trial_type,trial_index,time_elapsed,internal_node_id,interactions,blur_events,focus_events,fullscreenenter_events,fullscreenexit_events,success,rt,stimulus,key_press,prompt,subject_id,participant_id,age,gender,button_pressed,next_reward,animation_sequence,responses,planet,curr_prac_trial,n_prac_rounds,alien,aliens,reward_received,decay_rate_actual,decay_rate_exp,time_in_block,block_num,prt,last_trial_on_planet,button_html,bonus,num_failures
pavlovia,0,8,0.0-0.0,"""event"",""trial"",""time""
""blur"",""0"",""0""
""focus"",""1"",""4368""
""fullscreenenter"",""1"",""4608""
","""event"",""trial"",""time""
""blur"",""0"",""0""
","""event"",""trial"",""time""
""focus"",""1"",""4368""
","""event"",""trial"",""time""
""fullscreenenter"",""1"",""4608""
","
",,,,,,,,,,,,,,,,,,,,,,,,,,,,
fullscreen,1,5586,0.0-1.0,"""event"",""trial"",""time""
""blur"",""0"",""0""
""focus"",""1"",""4368""
""fullscreenenter"",""1"",""4608""
","""event"",""trial"",""time""
""blur"",""0"",""0""
","""event"",""trial"",""time""
""focus"",""1"",""4368""
","""event"",""trial"",""time""
""fullscreenenter"",""1"",""4608""
","
",TRUE,,,,,,,,,,,,,,,,,,,,,,,,,,,
instruc_welcome,2,15355,0.0-2.0,"""event"",""trial"",""time""
""blur"",""0"",""0""
""focus"",""1"",""4368""
""fullscreenenter"",""1"",""4608""
","""event"",""trial"",""time""
""blur"",""0"",""0""
","""event"",""trial"",""time""
""focus"",""1"",""4368""
","""event"",""trial"",""time""
""fullscreenenter"",""1"",""4608""
","
",,null,run_exp/static/audio/clip_1_welcome.m4a,null,"<p>Howdy! In this experiment, you’ll be an explorer traveling through space to collect space treasure.</p><p>Your mission is to collect as much treasure as possible.</p><br><br><p><img src='run_exp/static/images/task_images/opening_img-01.jpg' height='300' width='auto'></p>",8288,3889,22.48,Male,,,,,,,,,,,,,,,,,,,
audio-keyboard-response,3,31973,0.0-3.0,"""event"",""trial"",""time""
""blur"",""0"",""0""
""focus"",""1"",""4368""
""fullscreenenter"",""1"",""4608""
","""event"",""trial"",""time""
""blur"",""0"",""0""
","""event"",""trial"",""time""
""focus"",""1"",""4368""
","""event"",""trial"",""time""
""fullscreenenter"",""1"",""4608""
","
",,null,run_exp/static/audio/clip_2_move.m4a,null,,,,,,,,,,,,,,,,,,,,,,,,
welcome_dec,4,32641,0.0-4.0,"""event"",""trial"",""time""
""blur"",""0"",""0""
""focus"",""1"",""4368""
""fullscreenenter"",""1"",""4608""
","""event"",""trial"",""time""
""blur"",""0"",""0""
","""event"",""trial"",""time""
""focus"",""1"",""4368""
","""event"",""trial"",""time""
""fullscreenenter"",""1"",""4608""
","
",,666.1,"<p>Howdy! In this experiment, you’ll be an explorer traveling through space to collect space treasure.</p><p>Your mission is to collect as much treasure as possible.</p><br><br><p><img src='run_exp/static/images/task_images/opening_img-01.jpg' height='300' width='auto'></p>",,,,,,,1,,,,,,,,,,,,,,,,,,
html-keyboard-response,5,33155,0.0-5.0,"""event"",""trial"",""time""
""blur"",""0"",""0""
""focus"",""1"",""4368""
""fullscreenenter"",""1"",""4608""
","""event"",""trial"",""time""
""blur"",""0"",""0""
","""event"",""trial"",""time""
""focus"",""1"",""4368""
","""event"",""trial"",""time""
""fullscreenenter"",""1"",""4608""
","
",,511.7,"<p>Howdy! In this experiment, you’ll be an explorer traveling through space to collect space treasure.</p><p>Your mission is to collect as much treasure as possible.</p><br><br><p><img src='run_exp/static/images/task_images/opening_img-01.jpg' height='300' width='auto'></p><button class=""jspsych-html-btn-unchosen""><img src=""run_exp/static/images/task_images/planet-01.jpg"" height=""50""></button><button class=""jspsych-html-btn-chosen""><img src=""run_exp/static/images/task_images/planet-02.jpg"" height=""50""></button><p><b>[press the space bar to lock in your answer]<b><br></p>",32,,,,,,,,,,,,,,,,,,,,,,,,
instruc_goal,6,43233,0.0-6.0-0.0,"""event"",""trial"",""time""
""blur"",""0"",""0""
""focus"",""1"",""4368""
""fullscreenenter"",""1"",""4608""
","""event"",""trial"",""time""
""blur"",""0"",""0""
","""event"",""trial"",""time""
""focus"",""1"",""4368""
","""event"",""trial"",""time""
""fullscreenenter"",""1"",""4608""
","
",,null,run_exp/static/audio/clip_3_goal.m4a,null,"<p> As a space explorer, you’ll visit different planets to dig for space treasure, these pink gems.</p> <p> The more treasure you dig up, the more bonus money you’ll win! </p><br><br><p><img src='run_exp/static/images/task_images/pink_gem.jpg' height='300' width='auto'></p>",,,,,,,,,,,,,,,,,,,,,,,
instruc_goal,7,44020,0.0-6.0-1.0,"""event"",""trial"",""time""
""blur"",""0"",""0""
""focus"",""1"",""4368""
""fullscreenenter"",""1"",""4608""
","""event"",""trial"",""time""
""blur"",""0"",""0""
","""event"",""trial"",""time""
""focus"",""1"",""4368""
","""event"",""trial"",""time""
""fullscreenenter"",""1"",""4608""
","
",,784.1,"<p> As a space explorer, you’ll visit different planets to dig for space treasure, these pink gems.</p> <p> The more treasure you dig up, the more bonus money you’ll win! </p><br><br><p><img src='run_exp/static/images/task_images/pink_gem.jpg' height='300' width='auto'></p>",,,,,,,1,,,,,,,,,,,,,,,,,,
html-keyboard-response,8,44362,0.0-6.0-2.0,"""event"",""trial"",""time""
""blur"",""0"",""0""
""focus"",""1"",""4368""
""fullscreenenter"",""1"",""4608""
","""event"",""trial"",""time""
""blur"",""0"",""0""
","""event"",""trial"",""time""
""focus"",""1"",""4368""
","""event"",""trial"",""time""
""fullscreenenter"",""1"",""4608""
","
",,340.6,"<p> As a space explorer, you’ll visit different planets to dig for space treasure, these pink gems.</p> <p> The more treasure you dig up, the more bonus money you’ll win! </p><br><br><p><img src='run_exp/static/images/task_images/pink_gem.jpg' height='300' width='auto'></p><button class=""jspsych-html-btn-unchosen""><img src=""run_exp/static/images/task_images/planet-01.jpg"" height=""50""></button><button class=""jspsych-html-btn-chosen""><img src=""run_exp/static/images/task_images/planet-02.jpg"" height=""50""></button><p><b>[press the space bar to lock in your answer]<b><br></p>",32,,,,,,,,,,,,,,,,,,,,,,,,
instruc_dig,9,60393,0.0-7.0-0.0,"""event"",""trial"",""time""
""blur"",""0"",""0""
""focus"",""1"",""4368""
""fullscreenenter"",""1"",""4608""
","""event"",""trial"",""time""
""blur"",""0"",""0""
","""event"",""trial"",""time""
""focus"",""1"",""4368""
","""event"",""trial"",""time""
""fullscreenenter"",""1"",""4608""
","
",,null,run_exp/static/audio/clip_4_dig.m4a,null,,,,,,,100,,,,,,,,,,,,,,,,,
instruc_dig_try,10,60865,0.0-7.0-1.0,"""event"",""trial"",""time""
""blur"",""0"",""0""
""focus"",""1"",""4368""
""fullscreenenter"",""1"",""4608""
","""event"",""trial"",""time""
""blur"",""0"",""0""
","""event"",""trial"",""time""
""focus"",""1"",""4368""
","""event"",""trial"",""time""
""fullscreenenter"",""1"",""4608""
","
",,363.5,"<p> When you’ve arrived at a new planet, you will dig once. </p> <p>Then, you get to decide if you want to stay on the planet and dig again or travel to a new planet and dig there.</p> <p> To stay and dig, press the letter <strong>‘A’</strong> on your keyboard. Try pressing it now! </p><p><img src='run_exp/static/images/task_images/land.jpg'  height='700' width='auto'></p>",65,"<p> When you’ve arrived at a new planet, you will dig once. </p> <p>Then, you get to decide if you want to stay on the planet and dig again or travel to a new planet and dig there.</p> <p> To stay and dig, press the letter <strong>‘A’</strong> on your keyboard. Try pressing it now! </p><p><img src='run_exp/static/images/task_images/land.jpg'  height='700' width='auto'></p>",,,,,,100,,,,,,,,,,,,,,,,,
dig_prac,11,65171,0.0-7.0-2.0,"""event"",""trial"",""time""
""blur"",""0"",""0""
""focus"",""1"",""4368""
""fullscreenenter"",""1"",""4608""
","""event"",""trial"",""time""
""blur"",""0"",""0""
","""event"",""trial"",""time""
""focus"",""1"",""4368""
","""event"",""trial"",""time""
""fullscreenenter"",""1"",""4608""
","
",,,,,,,,,,,,"[{""stimulus"":""run_exp/static/images/task_images/dig.jpg"",""time"":0.5},{""stimulus"":""run_exp/static/images/task_images/land.jpg"",""time"":672},{""stimulus"":""run_exp/static/images/task_images/dig.jpg"",""time"":1340.800000011921}]",[],,,,,,,,,,,,,,,
instruc_travel,12,101432,0.0-7.0-3.0,"""event"",""trial"",""time""
""blur"",""0"",""0""
""focus"",""1"",""4368""
""fullscreenenter"",""1"",""4608""
","""event"",""trial"",""time""
""blur"",""0"",""0""
","""event"",""trial"",""time""
""focus"",""1"",""4368""
","""event"",""trial"",""time""
""fullscreenenter"",""1"",""4608""
","
",,null,run_exp/static/audio/clip_5_travel.m4a,null,"<p>Every time you dig up gems, there are less gems on the planet, so the more you dig on a planet the fewer gems you’ll get with each dig.</p><p>When gems are running low, you may want to travel to a new planet. </p> <p>  Planets are very far apart in this galaxy, so it will take some time to travel between them. </p> <br><p>There are lots and lots of planets for you to visit, so you won’t be able to return to any planets you’ve seen before. </p><br><p>To leave this planet and travel to a new one, press the letter <strong>‘L’</strong> on your keyboard. Try pressing it now! </p><p><img src='run_exp/static/images/task_images/rocket-01.jpg'  height='600' width='auto'></p>",,,,,,,,,,,,,,,,,,,,,,,
instruc_travel_try,13,102523,0.0-7.0-4.0,"""event"",""trial"",""time""
""blur"",""0"",""0""
""focus"",""1"",""4368""
""fullscreenenter"",""1"",""4608""
","""event"",""trial"",""time""
""blur"",""0"",""0""
","""event"",""trial"",""time""
""focus"",""1"",""4368""
","""event"",""trial"",""time""
""fullscreenenter"",""1"",""4608""
","
",,1088.7,"<p>Every time you dig up gems, there are less gems on the planet, so the more you dig on a planet the fewer gems you’ll get with each dig.</p><p>When gems are running low, you may want to travel to a new planet. </p> <p>  Planets are very far apart in this galaxy, so it will take some time to travel between them. </p> <br><p>There are lots and lots of planets for you to visit, so you won’t be able to return to any planets you’ve seen before. </p><br><p>To leave this planet and travel to a new one, press the letter <strong>‘L’</strong> on your keyboard. Try pressing it now! </p><p><img src='run_exp/static/images/task_images/rocket-01.jpg'  height='600' width='auto'></p>",76,"<p>Every time you dig up gems, there are less gems on the planet, so the more you dig on a planet the fewer gems you’ll get with each dig.</p><p>When gems are running low, you may want to travel to a new planet. </p> <p>  Planets are very far apart in this galaxy, so it will take some time to travel between them. </p> <br><p>There are lots and lots of planets for you to visit, so you won’t be able to return to any planets you’ve seen before. </p><br><p>To leave this planet and travel to a new one, press the letter <strong>‘L’</strong> on your keyboard. Try pressing it now! </p><p><img src='run_exp/static/images/task_images/rocket-01.jpg'  height='600' width='auto'></p>",,,,,,,,,,,,,,,,,,,,,,,
travel_prac,14,112532,0.0-7.0-5.0,"""event"",""trial"",""time""
""blur"",""0"",""0""
""focus"",""1"",""4368""
""fullscreenenter"",""1"",""4608""
","""event"",""trial"",""time""
""blur"",""0"",""0""
","""event"",""trial"",""time""
""focus"",""1"",""4368""
","""event"",""trial"",""time""
""fullscreenenter"",""1"",""4608""
","
",,,,,,,,,,,,"[{""stimulus"":""run_exp/static/images/task_images/rocket-01.jpg"",""time"":0.10000002384185791},{""stimulus"":""run_exp/static/images/task_images/rocket-02.jpg"",""time"":1116.8999999761581},{""stimulus"":""run_exp/static/images/task_images/rocket-03.jpg"",""time"":2226.399999976158},{""stimulus"":""run_exp/static/images/task_images/rocket-04.jpg"",""time"":3337.5},{""stimulus"":""run_exp/static/images/task_images/rocket-05.jpg"",""time"":4456.5},{""stimulus"":""run_exp/static/images/task_images/rocket-06.jpg"",""time"":5557.600000023842},{""stimulus"":""run_exp/static/images/task_images/rocket-07.jpg"",""time"":6671.5},{""stimulus"":""run_exp/static/images/task_images/rocket-08.jpg"",""time"":7786.899999976158},{""stimulus"":""run_exp/static/images/task_images/rocket-09.jpg"",""time"":8897.199999988079}]",[],0,,,,,,,,,,,,,,
instruc_alien_greet,15,139733,0.0-7.0-6.0,"""event"",""trial"",""time""
""blur"",""0"",""0""
""focus"",""1"",""4368""
""fullscreenenter"",""1"",""4608""
","""event"",""trial"",""time""
""blur"",""0"",""0""
","""event"",""trial"",""time""
""focus"",""1"",""4368""
","""event"",""trial"",""time""
""fullscreenenter"",""1"",""4608""
","
",,null,run_exp/static/audio/clip_6_alien.m4a,null,"<p>When you arrive at a new planet, the alien who owns the treasure mine on that planet will greet you!</p><p>The better an alien takes care of their mine the easier it is to dig for gems. Some aliens take better care of their mine than others. So, you won’t get exactly the same amount of gems on each planet.</p><p>What the alien looks like does not tell you anything about how many gems there are on the planet.</p><br><p><img src=""run_exp/static/images/task_images/aliens/instructions_aliens/planet/alien_planet-1.jpg""  height=""600"" width=""auto""></p>",,,,,,,,,,,,,,,,,,,,,,,
instruc_alien_greet,16,335242,0.0-7.0-7.0,"""event"",""trial"",""time""
""blur"",""0"",""0""
""focus"",""1"",""4368""
""fullscreenenter"",""1"",""4608""
","""event"",""trial"",""time""
""blur"",""0"",""0""
","""event"",""trial"",""time""
""focus"",""1"",""4368""
","""event"",""trial"",""time""
""fullscreenenter"",""1"",""4608""
","
",,195515,"<p>When you arrive at a new planet, the alien who owns the treasure mine on that planet will greet you!</p><p>The better an alien takes care of their mine the easier it is to dig for gems. Some aliens take better care of their mine than others. So, you won’t get exactly the same amount of gems on each planet.</p><p>What the alien looks like does not tell you anything about how many gems there are on the planet.</p><br><p><img src=""run_exp/static/images/task_images/aliens/instructions_aliens/planet/alien_planet-1.jpg""  height=""600"" width=""auto""></p>",,,,,,,1,,,,,,,,,,,,,,,,,,
html-keyboard-response,17,336898,0.0-7.0-8.0,"""event"",""trial"",""time""
""blur"",""0"",""0""
""focus"",""1"",""4368""
""fullscreenenter"",""1"",""4608""
","""event"",""trial"",""time""
""blur"",""0"",""0""
","""event"",""trial"",""time""
""focus"",""1"",""4368""
","""event"",""trial"",""time""
""fullscreenenter"",""1"",""4608""
","
",,1653.6,"<p>When you arrive at a new planet, the alien who owns the treasure mine on that planet will greet you!</p><p>The better an alien takes care of their mine the easier it is to dig for gems. Some aliens take better care of their mine than others. So, you won’t get exactly the same amount of gems on each planet.</p><p>What the alien looks like does not tell you anything about how many gems there are on the planet.</p><br><p><img src=""run_exp/static/images/task_images/aliens/instructions_aliens/planet/alien_planet-1.jpg""  height=""600"" width=""auto""></p><button class=""jspsych-html-btn-unchosen""><img src=""run_exp/static/images/task_images/planet-01.jpg"" height=""50""></button><button class=""jspsych-html-btn-chosen""><img src=""run_exp/static/images/task_images/planet-02.jpg"" height=""50""></button><p><b>[press the space bar to lock in your answer]<b><br></p>",32,,,,,,,,,,,,,,,,,,,,,,,,
time_out,18,348992,0.0-8.0-0.0,"""event"",""trial"",""time""
""blur"",""0"",""0""
""focus"",""1"",""4368""
""fullscreenenter"",""1"",""4608""
","""event"",""trial"",""time""
""blur"",""0"",""0""
","""event"",""trial"",""time""
""focus"",""1"",""4368""
","""event"",""trial"",""time""
""fullscreenenter"",""1"",""4608""
","
",,null,run_exp/static/audio/clip_7_timeout.m4a,null,"<p>If you don't make your choice fast enough, you’ll have to wait a few seconds before you can make another one.</p><p>You can’t dig for more gems or travel to new planets. You just have to sit and wait.</p><br><p><img src='run_exp/static/images/task_images/time_out.jpg'  height='600' width='auto'></p>",,,,,,,,,,,,,,,,,,,,,,,
time_out,19,351090,0.0-8.0-1.0,"""event"",""trial"",""time""
""blur"",""0"",""0""
""focus"",""1"",""4368""
""fullscreenenter"",""1"",""4608""
","""event"",""trial"",""time""
""blur"",""0"",""0""
","""event"",""trial"",""time""
""focus"",""1"",""4368""
","""event"",""trial"",""time""
""fullscreenenter"",""1"",""4608""
","
",,2095,"<p>If you don't make your choice fast enough, you’ll have to wait a few seconds before you can make another one.</p><p>You can’t dig for more gems or travel to new planets. You just have to sit and wait.</p><br><p><img src='run_exp/static/images/task_images/time_out.jpg'  height='600' width='auto'></p>",,,,,,,1,,,,,,,,,,,,,,,,,,
html-keyboard-response,20,351327,0.0-8.0-2.0,"""event"",""trial"",""time""
""blur"",""0"",""0""
""focus"",""1"",""4368""
""fullscreenenter"",""1"",""4608""
","""event"",""trial"",""time""
""blur"",""0"",""0""
","""event"",""trial"",""time""
""focus"",""1"",""4368""
","""event"",""trial"",""time""
""fullscreenenter"",""1"",""4608""
","
",,234.5,"<p>If you don't make your choice fast enough, you’ll have to wait a few seconds before you can make another one.</p><p>You can’t dig for more gems or travel to new planets. You just have to sit and wait.</p><br><p><img src='run_exp/static/images/task_images/time_out.jpg'  height='600' width='auto'></p><button class=""jspsych-html-btn-unchosen""><img src=""run_exp/static/images/task_images/planet-01.jpg"" height=""50""></button><button class=""jspsych-html-btn-chosen""><img src=""run_exp/static/images/task_images/planet-02.jpg"" height=""50""></button><p><b>[press the space bar to lock in your answer]<b><br></p>",32,,,,,,,,,,,,,,,,,,,,,,,,
instruc_break,21,367052,0.0-9.0-0.0,"""event"",""trial"",""time""
""blur"",""0"",""0""
""focus"",""1"",""4368""
""fullscreenenter"",""1"",""4608""
","""event"",""trial"",""time""
""blur"",""0"",""0""
","""event"",""trial"",""time""
""focus"",""1"",""4368""
","""event"",""trial"",""time""
""fullscreenenter"",""1"",""4608""
","
",,null,run_exp/static/audio/clip_8_break.m4a,null,"<p> After digging and traveling for a while, you’ll be able to take a break at home base. </p><p>The game will last 20 minutes no matter what.</p><p>You will visit home base every 5 minutes, so, you will visit home base three times during the game.</p><br><p><img src='run_exp/static/images/task_images/home_base.jpg' height='600' width='auto'></p>",,,,,,,,,,,,,,,,,,,,,,,
instruc_break,22,458845,0.0-9.0-1.0,"""event"",""trial"",""time""
""blur"",""0"",""0""
""focus"",""1"",""4368""
""fullscreenenter"",""1"",""4608""
","""event"",""trial"",""time""
""blur"",""0"",""0""
","""event"",""trial"",""time""
""focus"",""1"",""4368""
","""event"",""trial"",""time""
""fullscreenenter"",""1"",""4608""
","
",,91784.4,"<p> After digging and traveling for a while, you’ll be able to take a break at home base. </p><p>The game will last 20 minutes no matter what.</p><p>You will visit home base every 5 minutes, so, you will visit home base three times during the game.</p><br><p><img src='run_exp/static/images/task_images/home_base.jpg' height='600' width='auto'></p>",,,,,,,1,,,,,,,,,,,,,,,,,,
html-keyboard-response,23,459392,0.0-9.0-2.0,"""event"",""trial"",""time""
""blur"",""0"",""0""
""focus"",""1"",""4368""
""fullscreenenter"",""1"",""4608""
","""event"",""trial"",""time""
""blur"",""0"",""0""
","""event"",""trial"",""time""
""focus"",""1"",""4368""
","""event"",""trial"",""time""
""fullscreenenter"",""1"",""4608""
","
",,546.4,"<p> After digging and traveling for a while, you’ll be able to take a break at home base. </p><p>The game will last 20 minutes no matter what.</p><p>You will visit home base every 5 minutes, so, you will visit home base three times during the game.</p><br><p><img src='run_exp/static/images/task_images/home_base.jpg' height='600' width='auto'></p><button class=""jspsych-html-btn-unchosen""><img src=""run_exp/static/images/task_images/planet-01.jpg"" height=""50""></button><button class=""jspsych-html-btn-chosen""><img src=""run_exp/static/images/task_images/planet-02.jpg"" height=""50""></button><p><b>[press the space bar to lock in your answer]<b><br></p>",32,,,,,,,,,,,,,,,,,,,,,,,,
instruc_prac_game,24,470465,0.0-10.0-0.0,"""event"",""trial"",""time""
""blur"",""0"",""0""
""focus"",""1"",""4368""
""fullscreenenter"",""1"",""4608""
""blur"",""25"",""701215""
""focus"",""25"",""735546""
""blur"",""25"",""977780""
""focus"",""25"",""1139220""
","""event"",""trial"",""time""
""blur"",""0"",""0""
""blur"",""25"",""701215""
""blur"",""25"",""977780""
","""event"",""trial"",""time""
""focus"",""1"",""4368""
""focus"",""25"",""735546""
""focus"",""25"",""1139220""
","""event"",""trial"",""time""
""fullscreenenter"",""1"",""4608""
","
",,null,run_exp/static/audio/clip_9_practice.m4a,null,"<p> Are you ready to play a practice game? </p> <p>In this practice game, you'll be digging up barrels of gems. But, in the real game, you'll be digging up the gems themselves. </p>",,,,,,,,,,,,,,,,,,,,,,,
html-button-response,25,1141222,0.0-10.0-1.0,"""event"",""trial"",""time""
""blur"",""0"",""0""
""focus"",""1"",""4368""
""fullscreenenter"",""1"",""4608""
""blur"",""25"",""701215""
""focus"",""25"",""735546""
""blur"",""25"",""977780""
""focus"",""25"",""1139220""
","""event"",""trial"",""time""
""blur"",""0"",""0""
""blur"",""25"",""701215""
""blur"",""25"",""977780""
","""event"",""trial"",""time""
""focus"",""1"",""4368""
""focus"",""25"",""735546""
""focus"",""25"",""1139220""
","""event"",""trial"",""time""
""fullscreenenter"",""1"",""4608""
","
",,670753.2,"<p> Are you ready to play a practice game? </p> <p>In this practice game, you'll be digging up barrels of gems. But, in the real game, you'll be digging up the gems themselves. </p>",,,,,,,0,,,,,,,,,,,,,,,,,,
alien_welcome_prac,26,1146226,0.0-11.0-0.0,"""event"",""trial"",""time""
""blur"",""0"",""0""
""focus"",""1"",""4368""
""fullscreenenter"",""1"",""4608""
""blur"",""25"",""701215""
""focus"",""25"",""735546""
""blur"",""25"",""977780""
""focus"",""25"",""1139220""
","""event"",""trial"",""time""
""blur"",""0"",""0""
""blur"",""25"",""701215""
""blur"",""25"",""977780""
","""event"",""trial"",""time""
""focus"",""1"",""4368""
""focus"",""25"",""735546""
""focus"",""25"",""1139220""
","""event"",""trial"",""time""
""fullscreenenter"",""1"",""4608""
","
",,null,run_exp/static/images/task_images/aliens/practice_aliens/planet/alien_planet-5.jpg,null,,,,,,,,,,,,,,,,,,,,,,,,
land_prac,27,1146733,0.0-11.0-1.0,"""event"",""trial"",""time""
""blur"",""0"",""0""
""focus"",""1"",""4368""
""fullscreenenter"",""1"",""4608""
""blur"",""25"",""701215""
""focus"",""25"",""735546""
""blur"",""25"",""977780""
""focus"",""25"",""1139220""
","""event"",""trial"",""time""
""blur"",""0"",""0""
""blur"",""25"",""701215""
""blur"",""25"",""977780""
","""event"",""trial"",""time""
""focus"",""1"",""4368""
""focus"",""25"",""735546""
""focus"",""25"",""1139220""
","""event"",""trial"",""time""
""fullscreenenter"",""1"",""4608""
","
",,null,run_exp/static/images/task_images/land.jpg,null,,,,,,,97,,,0,,,,,,,,,,,,,,
dig_prac,28,1148739,0.0-11.0-2.0,"""event"",""trial"",""time""
""blur"",""0"",""0""
""focus"",""1"",""4368""
""fullscreenenter"",""1"",""4608""
""blur"",""25"",""701215""
""focus"",""25"",""735546""
""blur"",""25"",""977780""
""focus"",""25"",""1139220""
","""event"",""trial"",""time""
""blur"",""0"",""0""
""blur"",""25"",""701215""
""blur"",""25"",""977780""
","""event"",""trial"",""time""
""focus"",""1"",""4368""
""focus"",""25"",""735546""
""focus"",""25"",""1139220""
","""event"",""trial"",""time""
""fullscreenenter"",""1"",""4608""
","
",,,,,,,,,,,,"[{""stimulus"":""run_exp/static/images/task_images/dig.jpg"",""time"":0.30000001192092896},{""stimulus"":""run_exp/static/images/task_images/land.jpg"",""time"":673.4000000357628},{""stimulus"":""run_exp/static/images/task_images/dig.jpg"",""time"":1343.7000000476837}]",[],,,,,,,,,,,,,,,
harvest_prac,29,1149749,0.0-11.0-3.0,"""event"",""trial"",""time""
""blur"",""0"",""0""
""focus"",""1"",""4368""
""fullscreenenter"",""1"",""4608""
""blur"",""25"",""701215""
""focus"",""25"",""735546""
""blur"",""25"",""977780""
""focus"",""25"",""1139220""
","""event"",""trial"",""time""
""blur"",""0"",""0""
""blur"",""25"",""701215""
""blur"",""25"",""977780""
","""event"",""trial"",""time""
""focus"",""1"",""4368""
""focus"",""25"",""735546""
""focus"",""25"",""1139220""
","""event"",""trial"",""time""
""fullscreenenter"",""1"",""4608""
","
",,null,run_exp/static/images/task_images/barrel_text.jpg,null,,,,,,,,,,,,,,,,,,,,,,,,
decision_prac,30,1150805,0.0-11.0-4.0,"""event"",""trial"",""time""
""blur"",""0"",""0""
""focus"",""1"",""4368""
""fullscreenenter"",""1"",""4608""
""blur"",""25"",""701215""
""focus"",""25"",""735546""
""blur"",""25"",""977780""
""focus"",""25"",""1139220""
","""event"",""trial"",""time""
""blur"",""0"",""0""
""blur"",""25"",""701215""
""blur"",""25"",""977780""
","""event"",""trial"",""time""
""focus"",""1"",""4368""
""focus"",""25"",""735546""
""focus"",""25"",""1139220""
","""event"",""trial"",""time""
""fullscreenenter"",""1"",""4608""
","
",,1054.5,run_exp/static/images/task_images/land.jpg,65,,,,,,,,,,,1,,,,,,,,,,,,,
dig_prac,31,1152819,0.0-12.0-0.0,"""event"",""trial"",""time""
""blur"",""0"",""0""
""focus"",""1"",""4368""
""fullscreenenter"",""1"",""4608""
""blur"",""25"",""701215""
""focus"",""25"",""735546""
""blur"",""25"",""977780""
""focus"",""25"",""1139220""
","""event"",""trial"",""time""
""blur"",""0"",""0""
""blur"",""25"",""701215""
""blur"",""25"",""977780""
","""event"",""trial"",""time""
""focus"",""1"",""4368""
""focus"",""25"",""735546""
""focus"",""25"",""1139220""
","""event"",""trial"",""time""
""fullscreenenter"",""1"",""4608""
","
",,,,,,,,,,,,"[{""stimulus"":""run_exp/static/images/task_images/dig.jpg"",""time"":0.20000004768371582},{""stimulus"":""run_exp/static/images/task_images/land.jpg"",""time"":670.2000000476837},{""stimulus"":""run_exp/static/images/task_images/dig.jpg"",""time"":1340.7000000476837}]",[],,,,,,,,,,,,,,,
harvest_prac,32,1153829,0.0-12.0-1.0,"""event"",""trial"",""time""
""blur"",""0"",""0""
""focus"",""1"",""4368""
""fullscreenenter"",""1"",""4608""
""blur"",""25"",""701215""
""focus"",""25"",""735546""
""blur"",""25"",""977780""
""focus"",""25"",""1139220""
","""event"",""trial"",""time""
""blur"",""0"",""0""
""blur"",""25"",""701215""
""blur"",""25"",""977780""
","""event"",""trial"",""time""
""focus"",""1"",""4368""
""focus"",""25"",""735546""
""focus"",""25"",""1139220""
","""event"",""trial"",""time""
""fullscreenenter"",""1"",""4608""
","
",,null,run_exp/static/images/task_images/barrel_text.jpg,null,,,,,,,,,,,,,,,,,,,,,,,,
decision_prac,33,1154261,0.0-12.0-2.0,"""event"",""trial"",""time""
""blur"",""0"",""0""
""focus"",""1"",""4368""
""fullscreenenter"",""1"",""4608""
""blur"",""25"",""701215""
""focus"",""25"",""735546""
""blur"",""25"",""977780""
""focus"",""25"",""1139220""
","""event"",""trial"",""time""
""blur"",""0"",""0""
""blur"",""25"",""701215""
""blur"",""25"",""977780""
","""event"",""trial"",""time""
""focus"",""1"",""4368""
""focus"",""25"",""735546""
""focus"",""25"",""1139220""
","""event"",""trial"",""time""
""fullscreenenter"",""1"",""4608""
","
",,430.4,run_exp/static/images/task_images/land.jpg,65,,,,,,,,,,,2,,,,,,,,,,,,,
dig_prac,34,1156268,0.0-13.0-0.0,"""event"",""trial"",""time""
""blur"",""0"",""0""
""focus"",""1"",""4368""
""fullscreenenter"",""1"",""4608""
""blur"",""25"",""701215""
""focus"",""25"",""735546""
""blur"",""25"",""977780""
""focus"",""25"",""1139220""
","""event"",""trial"",""time""
""blur"",""0"",""0""
""blur"",""25"",""701215""
""blur"",""25"",""977780""
","""event"",""trial"",""time""
""focus"",""1"",""4368""
""focus"",""25"",""735546""
""focus"",""25"",""1139220""
","""event"",""trial"",""time""
""fullscreenenter"",""1"",""4608""
","
",,,,,,,,,,,,"[{""stimulus"":""run_exp/static/images/task_images/dig.jpg"",""time"":0.20000004768371582},{""stimulus"":""run_exp/static/images/task_images/land.jpg"",""time"":673.9000000357628},{""stimulus"":""run_exp/static/images/task_images/dig.jpg"",""time"":1343.9000000357628}]",[],,,,,,,,,,,,,,,
harvest_prac,35,1157278,0.0-13.0-1.0,"""event"",""trial"",""time""
""blur"",""0"",""0""
""focus"",""1"",""4368""
""fullscreenenter"",""1"",""4608""
""blur"",""25"",""701215""
""focus"",""25"",""735546""
""blur"",""25"",""977780""
""focus"",""25"",""1139220""
","""event"",""trial"",""time""
""blur"",""0"",""0""
""blur"",""25"",""701215""
""blur"",""25"",""977780""
","""event"",""trial"",""time""
""focus"",""1"",""4368""
""focus"",""25"",""735546""
""focus"",""25"",""1139220""
","""event"",""trial"",""time""
""fullscreenenter"",""1"",""4608""
","
",,null,run_exp/static/images/task_images/barrel_text.jpg,null,,,,,,,,,,,,,,,,,,,,,,,,
decision_prac,36,1157694,0.0-13.0-2.0,"""event"",""trial"",""time""
""blur"",""0"",""0""
""focus"",""1"",""4368""
""fullscreenenter"",""1"",""4608""
""blur"",""25"",""701215""
""focus"",""25"",""735546""
""blur"",""25"",""977780""
""focus"",""25"",""1139220""
","""event"",""trial"",""time""
""blur"",""0"",""0""
""blur"",""25"",""701215""
""blur"",""25"",""977780""
","""event"",""trial"",""time""
""focus"",""1"",""4368""
""focus"",""25"",""735546""
""focus"",""25"",""1139220""
","""event"",""trial"",""time""
""fullscreenenter"",""1"",""4608""
","
",,414.3,run_exp/static/images/task_images/land.jpg,65,,,,,,,,,,,3,,,,,,,,,,,,,
dig_prac,37,1159699,0.0-14.0-0.0,"""event"",""trial"",""time""
""blur"",""0"",""0""
""focus"",""1"",""4368""
""fullscreenenter"",""1"",""4608""
""blur"",""25"",""701215""
""focus"",""25"",""735546""
""blur"",""25"",""977780""
""focus"",""25"",""1139220""
","""event"",""trial"",""time""
""blur"",""0"",""0""
""blur"",""25"",""701215""
""blur"",""25"",""977780""
","""event"",""trial"",""time""
""focus"",""1"",""4368""
""focus"",""25"",""735546""
""focus"",""25"",""1139220""
","""event"",""trial"",""time""
""fullscreenenter"",""1"",""4608""
","
",,,,,,,,,,,,"[{""stimulus"":""run_exp/static/images/task_images/dig.jpg"",""time"":0.09999996423721313},{""stimulus"":""run_exp/static/images/task_images/land.jpg"",""time"":672.8000000119209},{""stimulus"":""run_exp/static/images/task_images/dig.jpg"",""time"":1352.699999988079}]",[],,,,,,,,,,,,,,,
harvest_prac,38,1160719,0.0-14.0-1.0,"""event"",""trial"",""time""
""blur"",""0"",""0""
""focus"",""1"",""4368""
""fullscreenenter"",""1"",""4608""
""blur"",""25"",""701215""
""focus"",""25"",""735546""
""blur"",""25"",""977780""
""focus"",""25"",""1139220""
","""event"",""trial"",""time""
""blur"",""0"",""0""
""blur"",""25"",""701215""
""blur"",""25"",""977780""
","""event"",""trial"",""time""
""focus"",""1"",""4368""
""focus"",""25"",""735546""
""focus"",""25"",""1139220""
","""event"",""trial"",""time""
""fullscreenenter"",""1"",""4608""
","
",,null,run_exp/static/images/task_images/barrel_text.jpg,null,,,,,,,,,,,,,,,,,,,,,,,,
decision_prac,39,1161566,0.0-14.0-2.0,"""event"",""trial"",""time""
""blur"",""0"",""0""
""focus"",""1"",""4368""
""fullscreenenter"",""1"",""4608""
""blur"",""25"",""701215""
""focus"",""25"",""735546""
""blur"",""25"",""977780""
""focus"",""25"",""1139220""
","""event"",""trial"",""time""
""blur"",""0"",""0""
""blur"",""25"",""701215""
""blur"",""25"",""977780""
","""event"",""trial"",""time""
""focus"",""1"",""4368""
""focus"",""25"",""735546""
""focus"",""25"",""1139220""
","""event"",""trial"",""time""
""fullscreenenter"",""1"",""4608""
","
",,844.5,run_exp/static/images/task_images/land.jpg,65,,,,,,,,,,,4,,,,,,,,,,,,,
dig_prac,40,1163588,0.0-15.0-0.0,"""event"",""trial"",""time""
""blur"",""0"",""0""
""focus"",""1"",""4368""
""fullscreenenter"",""1"",""4608""
""blur"",""25"",""701215""
""focus"",""25"",""735546""
""blur"",""25"",""977780""
""focus"",""25"",""1139220""
","""event"",""trial"",""time""
""blur"",""0"",""0""
""blur"",""25"",""701215""
""blur"",""25"",""977780""
","""event"",""trial"",""time""
""focus"",""1"",""4368""
""focus"",""25"",""735546""
""focus"",""25"",""1139220""
","""event"",""trial"",""time""
""fullscreenenter"",""1"",""4608""
","
",,,,,,,,,,,,"[{""stimulus"":""run_exp/static/images/task_images/dig.jpg"",""time"":0.10000002384185791},{""stimulus"":""run_exp/static/images/task_images/land.jpg"",""time"":670.2000000476837},{""stimulus"":""run_exp/static/images/task_images/dig.jpg"",""time"":1349.5}]",[],,,,,,,,,,,,,,,
harvest_prac,41,1164599,0.0-15.0-1.0,"""event"",""trial"",""time""
""blur"",""0"",""0""
""focus"",""1"",""4368""
""fullscreenenter"",""1"",""4608""
""blur"",""25"",""701215""
""focus"",""25"",""735546""
""blur"",""25"",""977780""
""focus"",""25"",""1139220""
","""event"",""trial"",""time""
""blur"",""0"",""0""
""blur"",""25"",""701215""
""blur"",""25"",""977780""
","""event"",""trial"",""time""
""focus"",""1"",""4368""
""focus"",""25"",""735546""
""focus"",""25"",""1139220""
","""event"",""trial"",""time""
""fullscreenenter"",""1"",""4608""
","
",,null,run_exp/static/images/task_images/barrel_text.jpg,null,,,,,,,,,,,,,,,,,,,,,,,,
decision_prac,42,1166180,0.0-15.0-2.0,"""event"",""trial"",""time""
""blur"",""0"",""0""
""focus"",""1"",""4368""
""fullscreenenter"",""1"",""4608""
""blur"",""25"",""701215""
""focus"",""25"",""735546""
""blur"",""25"",""977780""
""focus"",""25"",""1139220""
","""event"",""trial"",""time""
""blur"",""0"",""0""
""blur"",""25"",""701215""
""blur"",""25"",""977780""
","""event"",""trial"",""time""
""focus"",""1"",""4368""
""focus"",""25"",""735546""
""focus"",""25"",""1139220""
","""event"",""trial"",""time""
""fullscreenenter"",""1"",""4608""
","
",,1580,run_exp/static/images/task_images/land.jpg,76,,,,,,,,,,,,1,,,,,,,,,,,,
quiz_instruc,43,1174084,0.0-16.0-0.0,"""event"",""trial"",""time""
""blur"",""0"",""0""
""focus"",""1"",""4368""
""fullscreenenter"",""1"",""4608""
""blur"",""25"",""701215""
""focus"",""25"",""735546""
""blur"",""25"",""977780""
""focus"",""25"",""1139220""
","""event"",""trial"",""time""
""blur"",""0"",""0""
""blur"",""25"",""701215""
""blur"",""25"",""977780""
","""event"",""trial"",""time""
""focus"",""1"",""4368""
""focus"",""25"",""735546""
""focus"",""25"",""1139220""
","""event"",""trial"",""time""
""fullscreenenter"",""1"",""4608""
","
",,7900.6,run_exp/static/audio/clip_10_quiz.m4a,,,,,,,0,,,,,,,,,,,,,,,,,,
instruc_repeat,44,1216869,0.0-16.0-1.0,"""event"",""trial"",""time""
""blur"",""0"",""0""
""focus"",""1"",""4368""
""fullscreenenter"",""1"",""4608""
""blur"",""25"",""701215""
""focus"",""25"",""735546""
""blur"",""25"",""977780""
""focus"",""25"",""1139220""
","""event"",""trial"",""time""
""blur"",""0"",""0""
""blur"",""25"",""701215""
""blur"",""25"",""977780""
","""event"",""trial"",""time""
""focus"",""1"",""4368""
""focus"",""25"",""735546""
""focus"",""25"",""1139220""
","""event"",""trial"",""time""
""fullscreenenter"",""1"",""4608""
","
",,null,"<p> Are you ready to play a practice game? </p> <p>In this practice game, you'll be digging up barrels of gems. But, in the real game, you'll be digging up the gems themselves. </p>",null,"<p>In this game, your goal is to collect as many gems as you can. That’s how you will win bonus money. </p> <p>The entire game will last 20 minutes no matter how many gems you collect or how many planets you visit. </p><p>To stay on a planet and dig again, press the letter A on your keyboard. To leave for a new planet, press the letter L.</p><p>The more you dig on a planet, the fewer gems you’ll get with each dig which is why you might consider leaving for a new planet. </p><p>When you arrive at a new planet, you’ll be greeted by an alien. What the alien looks like does not tell you anything about how much treasure is on the planet. </p>",,,,,,,,,,,,,,,,,,,,,,,
instruc_repeat_continue,45,1223672,0.0-16.0-2.0,"""event"",""trial"",""time""
""blur"",""0"",""0""
""focus"",""1"",""4368""
""fullscreenenter"",""1"",""4608""
""blur"",""25"",""701215""
""focus"",""25"",""735546""
""blur"",""25"",""977780""
""focus"",""25"",""1139220""
","""event"",""trial"",""time""
""blur"",""0"",""0""
""blur"",""25"",""701215""
""blur"",""25"",""977780""
","""event"",""trial"",""time""
""focus"",""1"",""4368""
""focus"",""25"",""735546""
""focus"",""25"",""1139220""
","""event"",""trial"",""time""
""fullscreenenter"",""1"",""4608""
","
",,6800.2,"<p> Are you ready to play a practice game? </p> <p>In this practice game, you'll be digging up barrels of gems. But, in the real game, you'll be digging up the gems themselves. </p>",,,,,,,0,,,,,,,,,,,,,,,,,,
quiz_q_1_ask,46,1227368,0.0-16.0-3.0,"""event"",""trial"",""time""
""blur"",""0"",""0""
""focus"",""1"",""4368""
""fullscreenenter"",""1"",""4608""
""blur"",""25"",""701215""
""focus"",""25"",""735546""
""blur"",""25"",""977780""
""focus"",""25"",""1139220""
","""event"",""trial"",""time""
""blur"",""0"",""0""
""blur"",""25"",""701215""
""blur"",""25"",""977780""
","""event"",""trial"",""time""
""focus"",""1"",""4368""
""focus"",""25"",""735546""
""focus"",""25"",""1139220""
","""event"",""trial"",""time""
""fullscreenenter"",""1"",""4608""
","
",,3695,run_exp/static/audio/clip_11_q1_ask.m4a,,,,,,,2,,,,,,,,,,,,,,,,,,
quiz_q_1_fb_correct,47,1231229,0.0-17.0-0.0,"""event"",""trial"",""time""
""blur"",""0"",""0""
""focus"",""1"",""4368""
""fullscreenenter"",""1"",""4608""
""blur"",""25"",""701215""
""focus"",""25"",""735546""
""blur"",""25"",""977780""
""focus"",""25"",""1139220""
","""event"",""trial"",""time""
""blur"",""0"",""0""
""blur"",""25"",""701215""
""blur"",""25"",""977780""
","""event"",""trial"",""time""
""focus"",""1"",""4368""
""focus"",""25"",""735546""
""focus"",""25"",""1139220""
","""event"",""trial"",""time""
""fullscreenenter"",""1"",""4608""
","
",,null,run_exp/static/audio/clip_12_q1_correct.m4a,null,<p>That’s correct. You win extra money by collecting more gems.</p>,,,,,,,,,,,,,,,,,,,,,,,
quiz_q_2_ask,48,1233858,0.0-17.0-1.0,"""event"",""trial"",""time""
""blur"",""0"",""0""
""focus"",""1"",""4368""
""fullscreenenter"",""1"",""4608""
""blur"",""25"",""701215""
""focus"",""25"",""735546""
""blur"",""25"",""977780""
""focus"",""25"",""1139220""
","""event"",""trial"",""time""
""blur"",""0"",""0""
""blur"",""25"",""701215""
""blur"",""25"",""977780""
","""event"",""trial"",""time""
""focus"",""1"",""4368""
""focus"",""25"",""735546""
""focus"",""25"",""1139220""
","""event"",""trial"",""time""
""fullscreenenter"",""1"",""4608""
","
",,2626.2,run_exp/static/audio/clip_14_q2_ask.m4a,,,,,,,1,,,,,,,,,,,,,,,,,,
quiz_q_2_fb_correct,49,1237869,0.0-18.0-0.0,"""event"",""trial"",""time""
""blur"",""0"",""0""
""focus"",""1"",""4368""
""fullscreenenter"",""1"",""4608""
""blur"",""25"",""701215""
""focus"",""25"",""735546""
""blur"",""25"",""977780""
""focus"",""25"",""1139220""
","""event"",""trial"",""time""
""blur"",""0"",""0""
""blur"",""25"",""701215""
""blur"",""25"",""977780""
","""event"",""trial"",""time""
""focus"",""1"",""4368""
""focus"",""25"",""735546""
""focus"",""25"",""1139220""
","""event"",""trial"",""time""
""fullscreenenter"",""1"",""4608""
","
",,null,run_exp/static/audio/clip_15_q2_correct.m4a,null,<p>That’s correct. The experiment is 20 minutes no matter what.</p>,,,,,,,,,,,,,,,,,,,,,,,
quiz_q_3_ask,50,1241740,0.0-18.0-1.0,"""event"",""trial"",""time""
""blur"",""0"",""0""
""focus"",""1"",""4368""
""fullscreenenter"",""1"",""4608""
""blur"",""25"",""701215""
""focus"",""25"",""735546""
""blur"",""25"",""977780""
""focus"",""25"",""1139220""
","""event"",""trial"",""time""
""blur"",""0"",""0""
""blur"",""25"",""701215""
""blur"",""25"",""977780""
","""event"",""trial"",""time""
""focus"",""1"",""4368""
""focus"",""25"",""735546""
""focus"",""25"",""1139220""
","""event"",""trial"",""time""
""fullscreenenter"",""1"",""4608""
","
",,3868.6,run_exp/static/audio/clip_17_q3_ask.m4a,,,,,,,1,,,,,,,,,,,,,,,,,,
quiz_q_3_fb_correct,51,1245729,0.0-19.0-0.0,"""event"",""trial"",""time""
""blur"",""0"",""0""
""focus"",""1"",""4368""
""fullscreenenter"",""1"",""4608""
""blur"",""25"",""701215""
""focus"",""25"",""735546""
""blur"",""25"",""977780""
""focus"",""25"",""1139220""
","""event"",""trial"",""time""
""blur"",""0"",""0""
""blur"",""25"",""701215""
""blur"",""25"",""977780""
","""event"",""trial"",""time""
""focus"",""1"",""4368""
""focus"",""25"",""735546""
""focus"",""25"",""1139220""
","""event"",""trial"",""time""
""fullscreenenter"",""1"",""4608""
","
",,null,run_exp/static/audio/clip_18_q3_correct.m4a,null,<p> That’s correct. You press the letter L to travel to a new planet.</p>,,,,,,,,,,,,,,,,,,,,,,,
quiz_q_4_ask,52,1249800,0.0-19.0-1.0,"""event"",""trial"",""time""
""blur"",""0"",""0""
""focus"",""1"",""4368""
""fullscreenenter"",""1"",""4608""
""blur"",""25"",""701215""
""focus"",""25"",""735546""
""blur"",""25"",""977780""
""focus"",""25"",""1139220""
","""event"",""trial"",""time""
""blur"",""0"",""0""
""blur"",""25"",""701215""
""blur"",""25"",""977780""
","""event"",""trial"",""time""
""focus"",""1"",""4368""
""focus"",""25"",""735546""
""focus"",""25"",""1139220""
","""event"",""trial"",""time""
""fullscreenenter"",""1"",""4608""
","
",,4068.8,run_exp/static/audio/clip_20_q4_ask.m4a,,,,,,,0,,,,,,,,,,,,,,,,,,
quiz_q_4_fb_correct,53,1255149,0.0-20.0-0.0,"""event"",""trial"",""time""
""blur"",""0"",""0""
""focus"",""1"",""4368""
""fullscreenenter"",""1"",""4608""
""blur"",""25"",""701215""
""focus"",""25"",""735546""
""blur"",""25"",""977780""
""focus"",""25"",""1139220""
","""event"",""trial"",""time""
""blur"",""0"",""0""
""blur"",""25"",""701215""
""blur"",""25"",""977780""
","""event"",""trial"",""time""
""focus"",""1"",""4368""
""focus"",""25"",""735546""
""focus"",""25"",""1139220""
","""event"",""trial"",""time""
""fullscreenenter"",""1"",""4608""
","
",,null,run_exp/static/audio/clip_21_q4_correct.m4a,null,<p> That’s correct. The more you dig on a planet the fewer gems you’ll get with each dig. </p>,,,,,,,,,,,,,,,,,,,,,,,
quiz_q_5_ask,54,1257638,0.0-20.0-1.0,"""event"",""trial"",""time""
""blur"",""0"",""0""
""focus"",""1"",""4368""
""fullscreenenter"",""1"",""4608""
""blur"",""25"",""701215""
""focus"",""25"",""735546""
""blur"",""25"",""977780""
""focus"",""25"",""1139220""
","""event"",""trial"",""time""
""blur"",""0"",""0""
""blur"",""25"",""701215""
""blur"",""25"",""977780""
","""event"",""trial"",""time""
""focus"",""1"",""4368""
""focus"",""25"",""735546""
""focus"",""25"",""1139220""
","""event"",""trial"",""time""
""fullscreenenter"",""1"",""4608""
","
",,2486.9,run_exp/static/audio/clip_23_q5_ask.m4a,,,,,,,1,,,,,,,,,,,,,,,,,,
quiz_q_5_fb_correct,55,1262649,0.0-21.0-0.0,"""event"",""trial"",""time""
""blur"",""0"",""0""
""focus"",""1"",""4368""
""fullscreenenter"",""1"",""4608""
""blur"",""25"",""701215""
""focus"",""25"",""735546""
""blur"",""25"",""977780""
""focus"",""25"",""1139220""
","""event"",""trial"",""time""
""blur"",""0"",""0""
""blur"",""25"",""701215""
""blur"",""25"",""977780""
","""event"",""trial"",""time""
""focus"",""1"",""4368""
""focus"",""25"",""735546""
""focus"",""25"",""1139220""
","""event"",""trial"",""time""
""fullscreenenter"",""1"",""4608""
","
",,null,run_exp/static/audio/clip_24_q5_correct.m4a,null,<p> That’s correct. The alien tells you nothing about how much treasure is on the planet.</p>,,,,,,,,,,,,,,,,,,,,,,,
quiz_correct,56,1266128,0.0-22.0-0.0,"""event"",""trial"",""time""
""blur"",""0"",""0""
""focus"",""1"",""4368""
""fullscreenenter"",""1"",""4608""
""blur"",""25"",""701215""
""focus"",""25"",""735546""
""blur"",""25"",""977780""
""focus"",""25"",""1139220""
","""event"",""trial"",""time""
""blur"",""0"",""0""
""blur"",""25"",""701215""
""blur"",""25"",""977780""
","""event"",""trial"",""time""
""focus"",""1"",""4368""
""focus"",""25"",""735546""
""focus"",""25"",""1139220""
","""event"",""trial"",""time""
""fullscreenenter"",""1"",""4608""
","
",,null,run_exp/static/audio/clip_26_correct_quiz.m4a,null,,,,,,,,,,,,,,,,,,,,,,,,
quiz_correct_continue,57,1268138,0.0-22.0-1.0,"""event"",""trial"",""time""
""blur"",""0"",""0""
""focus"",""1"",""4368""
""fullscreenenter"",""1"",""4608""
""blur"",""25"",""701215""
""focus"",""25"",""735546""
""blur"",""25"",""977780""
""focus"",""25"",""1139220""
","""event"",""trial"",""time""
""blur"",""0"",""0""
""blur"",""25"",""701215""
""blur"",""25"",""977780""
","""event"",""trial"",""time""
""focus"",""1"",""4368""
""focus"",""25"",""735546""
""focus"",""25"",""1139220""
","""event"",""trial"",""time""
""fullscreenenter"",""1"",""4608""
","
",,2008.9,<p>Good job! You're now ready to move on to the real game!</p>,,,,,,,0,,,,,,,,,,,,,,,,,,
audio-keyboard-response,58,1278269,0.0-22.0-2.0,"""event"",""trial"",""time""
""blur"",""0"",""0""
""focus"",""1"",""4368""
""fullscreenenter"",""1"",""4608""
""blur"",""25"",""701215""
""focus"",""25"",""735546""
""blur"",""25"",""977780""
""focus"",""25"",""1139220""
","""event"",""trial"",""time""
""blur"",""0"",""0""
""blur"",""25"",""701215""
""blur"",""25"",""977780""
","""event"",""trial"",""time""
""focus"",""1"",""4368""
""focus"",""25"",""735546""
""focus"",""25"",""1139220""
","""event"",""trial"",""time""
""fullscreenenter"",""1"",""4608""
","
",,null,run_exp/static/audio/clip_28_real_game.m4a,null,,,,,,,,,,,,,,,,,,,,,,,,
instruc_begin_exp_contine,59,1279967,0.0-22.0-3.0,"""event"",""trial"",""time""
""blur"",""0"",""0""
""focus"",""1"",""4368""
""fullscreenenter"",""1"",""4608""
""blur"",""25"",""701215""
""focus"",""25"",""735546""
""blur"",""25"",""977780""
""focus"",""25"",""1139220""
","""event"",""trial"",""time""
""blur"",""0"",""0""
""blur"",""25"",""701215""
""blur"",""25"",""977780""
","""event"",""trial"",""time""
""focus"",""1"",""4368""
""focus"",""25"",""735546""
""focus"",""25"",""1139220""
","""event"",""trial"",""time""
""fullscreenenter"",""1"",""4608""
","
",,1696,"<p>Now that you know how  to dig for space treasure and travel to new planets,you can start exploring! </p><p>Do you want to go over the instructions again or get started with the real game?</p>",,,,,,,1,,,,,,1,,,,,,,,,,,,
alien_welcome,60,1284978,0.0-23.0-0.0,"""event"",""trial"",""time""
""blur"",""0"",""0""
""focus"",""1"",""4368""
""fullscreenenter"",""1"",""4608""
""blur"",""25"",""701215""
""focus"",""25"",""735546""
""blur"",""25"",""977780""
""focus"",""25"",""1139220""
","""event"",""trial"",""time""
""blur"",""0"",""0""
""blur"",""25"",""701215""
""blur"",""25"",""977780""
","""event"",""trial"",""time""
""focus"",""1"",""4368""
""focus"",""25"",""735546""
""focus"",""25"",""1139220""
","""event"",""trial"",""time""
""fullscreenenter"",""1"",""4608""
","
",,null,run_exp/static/images/task_images/aliens/old_aliens/planet/alien_planet-67.jpg,null,,,,,,,,,,,,,67,"67,38,57,28,21,11,68,47,37,9,70,26,75,19,30,36,12,6,18,25,8,58,73,48,78,51,22,27,10,56,41,16,71,53,24,52,64,62,15,76,44,13,63,49,50",,,,,,,,,,
land,61,1285487,0.0-23.0-1.0,"""event"",""trial"",""time""
""blur"",""0"",""0""
""focus"",""1"",""4368""
""fullscreenenter"",""1"",""4608""
""blur"",""25"",""701215""
""focus"",""25"",""735546""
""blur"",""25"",""977780""
""focus"",""25"",""1139220""
","""event"",""trial"",""time""
""blur"",""0"",""0""
""blur"",""25"",""701215""
""blur"",""25"",""977780""
","""event"",""trial"",""time""
""focus"",""1"",""4368""
""focus"",""25"",""735546""
""focus"",""25"",""1139220""
","""event"",""trial"",""time""
""fullscreenenter"",""1"",""4608""
","
",,null,run_exp/static/images/task_images/land.jpg,null,,,,,,,108,,,1,,,,,,,,,,,,,,
dig,62,1287498,0.0-23.0-2.0,"""event"",""trial"",""time""
""blur"",""0"",""0""
""focus"",""1"",""4368""
""fullscreenenter"",""1"",""4608""
""blur"",""25"",""701215""
""focus"",""25"",""735546""
""blur"",""25"",""977780""
""focus"",""25"",""1139220""
","""event"",""trial"",""time""
""blur"",""0"",""0""
""blur"",""25"",""701215""
""blur"",""25"",""977780""
","""event"",""trial"",""time""
""focus"",""1"",""4368""
""focus"",""25"",""735546""
""focus"",""25"",""1139220""
","""event"",""trial"",""time""
""fullscreenenter"",""1"",""4608""
","
",,,,,,,,,,,,"[{""stimulus"":""run_exp/static/images/task_images/dig.jpg"",""time"":0.30000001192092896},{""stimulus"":""run_exp/static/images/task_images/land.jpg"",""time"":669.3000000119209},{""stimulus"":""run_exp/static/images/task_images/dig.jpg"",""time"":1338.800000011921}]",[],1,,,,,,,,,,,,,,
harvest,63,1288518,0.0-23.0-3.0,"""event"",""trial"",""time""
""blur"",""0"",""0""
""focus"",""1"",""4368""
""fullscreenenter"",""1"",""4608""
""blur"",""25"",""701215""
""focus"",""25"",""735546""
""blur"",""25"",""977780""
""focus"",""25"",""1139220""
","""event"",""trial"",""time""
""blur"",""0"",""0""
""blur"",""25"",""701215""
""blur"",""25"",""977780""
","""event"",""trial"",""time""
""focus"",""1"",""4368""
""focus"",""25"",""735546""
""focus"",""25"",""1139220""
","""event"",""trial"",""time""
""fullscreenenter"",""1"",""4608""
","
",,null,run_exp/static/images/task_images/gems/108.jpg,null,,,,,,,28,,,1,,,,,108,0.262122081,0.259259259,,,,,,,
decision,64,1289003,0.0-23.0-4.0,"""event"",""trial"",""time""
""blur"",""0"",""0""
""focus"",""1"",""4368""
""fullscreenenter"",""1"",""4608""
""blur"",""25"",""701215""
""focus"",""25"",""735546""
""blur"",""25"",""977780""
""focus"",""25"",""1139220""
","""event"",""trial"",""time""
""blur"",""0"",""0""
""blur"",""25"",""701215""
""blur"",""25"",""977780""
","""event"",""trial"",""time""
""focus"",""1"",""4368""
""focus"",""25"",""735546""
""focus"",""25"",""1139220""
","""event"",""trial"",""time""
""fullscreenenter"",""1"",""4608""
","
",,483.1,run_exp/static/images/task_images/land.jpg,65,,,,,,,28,,,1,,,,,,,,9034,1,0,FALSE,,,
dig,65,1291527,0.0-24.0-0.0,"""event"",""trial"",""time""
""blur"",""0"",""0""
""focus"",""1"",""4368""
""fullscreenenter"",""1"",""4608""
""blur"",""25"",""701215""
""focus"",""25"",""735546""
""blur"",""25"",""977780""
""focus"",""25"",""1139220""
","""event"",""trial"",""time""
""blur"",""0"",""0""
""blur"",""25"",""701215""
""blur"",""25"",""977780""
","""event"",""trial"",""time""
""focus"",""1"",""4368""
""focus"",""25"",""735546""
""focus"",""25"",""1139220""
","""event"",""trial"",""time""
""fullscreenenter"",""1"",""4608""
","
",,,,,,,,,,,,"[{""stimulus"":""run_exp/static/images/task_images/dig.jpg"",""time"":0.09999996423721313},{""stimulus"":""run_exp/static/images/task_images/land.jpg"",""time"":839.1999999880791},{""stimulus"":""run_exp/static/images/task_images/dig.jpg"",""time"":1681.5}]",[],1,,,,,,,,,,,,,,
harvest,66,1292538,0.0-24.0-1.0,"""event"",""trial"",""time""
""blur"",""0"",""0""
""focus"",""1"",""4368""
""fullscreenenter"",""1"",""4608""
""blur"",""25"",""701215""
""focus"",""25"",""735546""
""blur"",""25"",""977780""
""focus"",""25"",""1139220""
","""event"",""trial"",""time""
""blur"",""0"",""0""
""blur"",""25"",""701215""
""blur"",""25"",""977780""
","""event"",""trial"",""time""
""focus"",""1"",""4368""
""focus"",""25"",""735546""
""focus"",""25"",""1139220""
","""event"",""trial"",""time""
""fullscreenenter"",""1"",""4608""
","
",,null,run_exp/static/images/task_images/gems/28.jpg,null,,,,,,,5,,,1,,,,,28,0.174075264,0.178571429,,,,,,,
decision,67,1294325,0.0-24.0-2.0,"""event"",""trial"",""time""
""blur"",""0"",""0""
""focus"",""1"",""4368""
""fullscreenenter"",""1"",""4608""
""blur"",""25"",""701215""
""focus"",""25"",""735546""
""blur"",""25"",""977780""
""focus"",""25"",""1139220""
","""event"",""trial"",""time""
""blur"",""0"",""0""
""blur"",""25"",""701215""
""blur"",""25"",""977780""
","""event"",""trial"",""time""
""focus"",""1"",""4368""
""focus"",""25"",""735546""
""focus"",""25"",""1139220""
","""event"",""trial"",""time""
""fullscreenenter"",""1"",""4608""
","
",,1785.4,run_exp/static/images/task_images/land.jpg,76,,,,,,,5,,,1,,,,,,,,14356,1,1,TRUE,,,
travel,68,1302547,0.0-25.0-0.0,"""event"",""trial"",""time""
""blur"",""0"",""0""
""focus"",""1"",""4368""
""fullscreenenter"",""1"",""4608""
""blur"",""25"",""701215""
""focus"",""25"",""735546""
""blur"",""25"",""977780""
""focus"",""25"",""1139220""
","""event"",""trial"",""time""
""blur"",""0"",""0""
""blur"",""25"",""701215""
""blur"",""25"",""977780""
","""event"",""trial"",""time""
""focus"",""1"",""4368""
""focus"",""25"",""735546""
""focus"",""25"",""1139220""
","""event"",""trial"",""time""
""fullscreenenter"",""1"",""4608""
","
",,,,,,,,,,,,"[{""stimulus"":""run_exp/static/images/task_images/rocket-01.jpg"",""time"":0.20000004768371582},{""stimulus"":""run_exp/static/images/task_images/rocket-02.jpg"",""time"":918.1000000238419},{""stimulus"":""run_exp/static/images/task_images/rocket-03.jpg"",""time"":1827.9000000357628},{""stimulus"":""run_exp/static/images/task_images/rocket-04.jpg"",""time"":2738.7000000476837},{""stimulus"":""run_exp/static/images/task_images/rocket-05.jpg"",""time"":3656},{""stimulus"":""run_exp/static/images/task_images/rocket-06.jpg"",""time"":4568.200000047684},{""stimulus"":""run_exp/static/images/task_images/rocket-07.jpg"",""time"":5488.5},{""stimulus"":""run_exp/static/images/task_images/rocket-08.jpg"",""time"":6388.600000023842},{""stimulus"":""run_exp/static/images/task_images/rocket-09.jpg"",""time"":7298.100000023842}]",[],1,,,,,,,,,,,,,,
alien_welcome,69,1307557,0.0-25.0-1.0,"""event"",""trial"",""time""
""blur"",""0"",""0""
""focus"",""1"",""4368""
""fullscreenenter"",""1"",""4608""
""blur"",""25"",""701215""
""focus"",""25"",""735546""
""blur"",""25"",""977780""
""focus"",""25"",""1139220""
","""event"",""trial"",""time""
""blur"",""0"",""0""
""blur"",""25"",""701215""
""blur"",""25"",""977780""
","""event"",""trial"",""time""
""focus"",""1"",""4368""
""focus"",""25"",""735546""
""focus"",""25"",""1139220""
","""event"",""trial"",""time""
""fullscreenenter"",""1"",""4608""
","
",,null,run_exp/static/images/task_images/aliens/old_aliens/planet/alien_planet-38.jpg,null,,,,,,,,,,,,,38,"67,38,57,28,21,11,68,47,37,9,70,26,75,19,30,36,12,6,18,25,8,58,73,48,78,51,22,27,10,56,41,16,71,53,24,52,64,62,15,76,44,13,63,49,50",,,,,,,,,,
land,70,1308068,0.0-25.0-2.0,"""event"",""trial"",""time""
""blur"",""0"",""0""
""focus"",""1"",""4368""
""fullscreenenter"",""1"",""4608""
""blur"",""25"",""701215""
""focus"",""25"",""735546""
""blur"",""25"",""977780""
""focus"",""25"",""1139220""
","""event"",""trial"",""time""
""blur"",""0"",""0""
""blur"",""25"",""701215""
""blur"",""25"",""977780""
","""event"",""trial"",""time""
""focus"",""1"",""4368""
""focus"",""25"",""735546""
""focus"",""25"",""1139220""
","""event"",""trial"",""time""
""fullscreenenter"",""1"",""4608""
","
",,null,run_exp/static/images/task_images/land.jpg,null,,,,,,,99,,,2,,,,,,,,,,,,,,
dig,71,1310077,0.0-25.0-3.0,"""event"",""trial"",""time""
""blur"",""0"",""0""
""focus"",""1"",""4368""
""fullscreenenter"",""1"",""4608""
""blur"",""25"",""701215""
""focus"",""25"",""735546""
""blur"",""25"",""977780""
""focus"",""25"",""1139220""
","""event"",""trial"",""time""
""blur"",""0"",""0""
""blur"",""25"",""701215""
""blur"",""25"",""977780""
","""event"",""trial"",""time""
""focus"",""1"",""4368""
""focus"",""25"",""735546""
""focus"",""25"",""1139220""
","""event"",""trial"",""time""
""fullscreenenter"",""1"",""4608""
","
",,,,,,,,,,,,"[{""stimulus"":""run_exp/static/images/task_images/dig.jpg"",""time"":0.2999999523162842},{""stimulus"":""run_exp/static/images/task_images/land.jpg"",""time"":677.7999999523163},{""stimulus"":""run_exp/static/images/task_images/dig.jpg"",""time"":1343.5}]",[],2,,,,,,,,,,,,,,
harvest,72,1311088,0.0-25.0-4.0,"""event"",""trial"",""time""
""blur"",""0"",""0""
""focus"",""1"",""4368""
""fullscreenenter"",""1"",""4608""
""blur"",""25"",""701215""
""focus"",""25"",""735546""
""blur"",""25"",""977780""
""focus"",""25"",""1139220""
","""event"",""trial"",""time""
""blur"",""0"",""0""
""blur"",""25"",""701215""
""blur"",""25"",""977780""
","""event"",""trial"",""time""
""focus"",""1"",""4368""
""focus"",""25"",""735546""
""focus"",""25"",""1139220""
","""event"",""trial"",""time""
""fullscreenenter"",""1"",""4608""
","
",,null,run_exp/static/images/task_images/gems/99.jpg,null,,,,,,,15,,,2,,,,,99,0.148641165,0.151515152,,,,,,,
decision,73,1311411,0.0-25.0-5.0,"""event"",""trial"",""time""
""blur"",""0"",""0""
""focus"",""1"",""4368""
""fullscreenenter"",""1"",""4608""
""blur"",""25"",""701215""
""focus"",""25"",""735546""
""blur"",""25"",""977780""
""focus"",""25"",""1139220""
","""event"",""trial"",""time""
""blur"",""0"",""0""
""blur"",""25"",""701215""
""blur"",""25"",""977780""
","""event"",""trial"",""time""
""focus"",""1"",""4368""
""focus"",""25"",""735546""
""focus"",""25"",""1139220""
","""event"",""trial"",""time""
""fullscreenenter"",""1"",""4608""
","
",,321.2,run_exp/static/images/task_images/land.jpg,65,,,,,,,15,,,2,,,,,,,,31442,1,0,FALSE,,,
dig,74,1314108,0.0-26.0-0.0,"""event"",""trial"",""time""
""blur"",""0"",""0""
""focus"",""1"",""4368""
""fullscreenenter"",""1"",""4608""
""blur"",""25"",""701215""
""focus"",""25"",""735546""
""blur"",""25"",""977780""
""focus"",""25"",""1139220""
","""event"",""trial"",""time""
""blur"",""0"",""0""
""blur"",""25"",""701215""
""blur"",""25"",""977780""
","""event"",""trial"",""time""
""focus"",""1"",""4368""
""focus"",""25"",""735546""
""focus"",""25"",""1139220""
","""event"",""trial"",""time""
""fullscreenenter"",""1"",""4608""
","
",,,,,,,,,,,,"[{""stimulus"":""run_exp/static/images/task_images/dig.jpg"",""time"":0},{""stimulus"":""run_exp/static/images/task_images/land.jpg"",""time"":905},{""stimulus"":""run_exp/static/images/task_images/dig.jpg"",""time"":1794.8999999761581}]",[],2,,,,,,,,,,,,,,
harvest,75,1315117,0.0-26.0-1.0,"""event"",""trial"",""time""
""blur"",""0"",""0""
""focus"",""1"",""4368""
""fullscreenenter"",""1"",""4608""
""blur"",""25"",""701215""
""focus"",""25"",""735546""
""blur"",""25"",""977780""
""focus"",""25"",""1139220""
","""event"",""trial"",""time""
""blur"",""0"",""0""
""blur"",""25"",""701215""
""blur"",""25"",""977780""
","""event"",""trial"",""time""
""focus"",""1"",""4368""
""focus"",""25"",""735546""
""focus"",""25"",""1139220""
","""event"",""trial"",""time""
""fullscreenenter"",""1"",""4608""
","
",,null,run_exp/static/images/task_images/gems/15.jpg,null,,,,,,,3,,,2,,,,,15,0.171629381,0.2,,,,,,,
decision,76,1315647,0.0-26.0-2.0,"""event"",""trial"",""time""
""blur"",""0"",""0""
""focus"",""1"",""4368""
""fullscreenenter"",""1"",""4608""
""blur"",""25"",""701215""
""focus"",""25"",""735546""
""blur"",""25"",""977780""
""focus"",""25"",""1139220""
","""event"",""trial"",""time""
""blur"",""0"",""0""
""blur"",""25"",""701215""
""blur"",""25"",""977780""
","""event"",""trial"",""time""
""focus"",""1"",""4368""
""focus"",""25"",""735546""
""focus"",""25"",""1139220""
","""event"",""trial"",""time""
""fullscreenenter"",""1"",""4608""
","
",,528.2,run_exp/static/images/task_images/land.jpg,76,,,,,,,3,,,2,,,,,,,,35678,1,1,TRUE,,,
travel,77,1325137,0.0-27.0-0.0,"""event"",""trial"",""time""
""blur"",""0"",""0""
""focus"",""1"",""4368""
""fullscreenenter"",""1"",""4608""
""blur"",""25"",""701215""
""focus"",""25"",""735546""
""blur"",""25"",""977780""
""focus"",""25"",""1139220""
","""event"",""trial"",""time""
""blur"",""0"",""0""
""blur"",""25"",""701215""
""blur"",""25"",""977780""
","""event"",""trial"",""time""
""focus"",""1"",""4368""
""focus"",""25"",""735546""
""focus"",""25"",""1139220""
","""event"",""trial"",""time""
""fullscreenenter"",""1"",""4608""
","
",,,,,,,,,,,,"[{""stimulus"":""run_exp/static/images/task_images/rocket-01.jpg"",""time"":0.19999998807907104},{""stimulus"":""run_exp/static/images/task_images/rocket-02.jpg"",""time"":1056.8999999761581},{""stimulus"":""run_exp/static/images/task_images/rocket-03.jpg"",""time"":2106.899999976158},{""stimulus"":""run_exp/static/images/task_images/rocket-04.jpg"",""time"":3167.5},{""stimulus"":""run_exp/static/images/task_images/rocket-05.jpg"",""time"":4216.799999952316},{""stimulus"":""run_exp/static/images/task_images/rocket-06.jpg"",""time"":5267.699999988079},{""stimulus"":""run_exp/static/images/task_images/rocket-07.jpg"",""time"":6317.099999964237},{""stimulus"":""run_exp/static/images/task_images/rocket-08.jpg"",""time"":7376.899999976158},{""stimulus"":""run_exp/static/images/task_images/rocket-09.jpg"",""time"":8426.899999976158}]",[],2,,,,,,,,,,,,,,
alien_welcome,78,1330147,0.0-27.0-1.0,"""event"",""trial"",""time""
""blur"",""0"",""0""
""focus"",""1"",""4368""
""fullscreenenter"",""1"",""4608""
""blur"",""25"",""701215""
""focus"",""25"",""735546""
""blur"",""25"",""977780""
""focus"",""25"",""1139220""
","""event"",""trial"",""time""
""blur"",""0"",""0""
""blur"",""25"",""701215""
""blur"",""25"",""977780""
","""event"",""trial"",""time""
""focus"",""1"",""4368""
""focus"",""25"",""735546""
""focus"",""25"",""1139220""
","""event"",""trial"",""time""
""fullscreenenter"",""1"",""4608""
","
",,null,run_exp/static/images/task_images/aliens/old_aliens/planet/alien_planet-57.jpg,null,,,,,,,,,,,,,57,"67,38,57,28,21,11,68,47,37,9,70,26,75,19,30,36,12,6,18,25,8,58,73,48,78,51,22,27,10,56,41,16,71,53,24,52,64,62,15,76,44,13,63,49,50",,,,,,,,,,
land,79,1330657,0.0-27.0-2.0,"""event"",""trial"",""time""
""blur"",""0"",""0""
""focus"",""1"",""4368""
""fullscreenenter"",""1"",""4608""
""blur"",""25"",""701215""
""focus"",""25"",""735546""
""blur"",""25"",""977780""
""focus"",""25"",""1139220""
","""event"",""trial"",""time""
""blur"",""0"",""0""
""blur"",""25"",""701215""
""blur"",""25"",""977780""
","""event"",""trial"",""time""
""focus"",""1"",""4368""
""focus"",""25"",""735546""
""focus"",""25"",""1139220""
","""event"",""trial"",""time""
""fullscreenenter"",""1"",""4608""
","
",,null,run_exp/static/images/task_images/land.jpg,null,,,,,,,104,,,3,,,,,,,,,,,,,,
dig,80,1332668,0.0-27.0-3.0,"""event"",""trial"",""time""
""blur"",""0"",""0""
""focus"",""1"",""4368""
""fullscreenenter"",""1"",""4608""
""blur"",""25"",""701215""
""focus"",""25"",""735546""
""blur"",""25"",""977780""
""focus"",""25"",""1139220""
","""event"",""trial"",""time""
""blur"",""0"",""0""
""blur"",""25"",""701215""
""blur"",""25"",""977780""
","""event"",""trial"",""time""
""focus"",""1"",""4368""
""focus"",""25"",""735546""
""focus"",""25"",""1139220""
","""event"",""trial"",""time""
""fullscreenenter"",""1"",""4608""
","
",,,,,,,,,,,,"[{""stimulus"":""run_exp/static/images/task_images/dig.jpg"",""time"":0.30000001192092896},{""stimulus"":""run_exp/static/images/task_images/land.jpg"",""time"":678.6000000238419},{""stimulus"":""run_exp/static/images/task_images/dig.jpg"",""time"":1338.9000000357628}]",[],3,,,,,,,,,,,,,,
harvest,81,1333678,0.0-27.0-4.0,"""event"",""trial"",""time""
""blur"",""0"",""0""
""focus"",""1"",""4368""
""fullscreenenter"",""1"",""4608""
""blur"",""25"",""701215""
""focus"",""25"",""735546""
""blur"",""25"",""977780""
""focus"",""25"",""1139220""
","""event"",""trial"",""time""
""blur"",""0"",""0""
""blur"",""25"",""701215""
""blur"",""25"",""977780""
","""event"",""trial"",""time""
""focus"",""1"",""4368""
""focus"",""25"",""735546""
""focus"",""25"",""1139220""
","""event"",""trial"",""time""
""fullscreenenter"",""1"",""4608""
","
",,null,run_exp/static/images/task_images/gems/104.jpg,null,,,,,,,55,,,3,,,,,104,0.531656596,0.528846154,,,,,,,
decision,82,1333681,0.0-27.0-5.0,"""event"",""trial"",""time""
""blur"",""0"",""0""
""focus"",""1"",""4368""
""fullscreenenter"",""1"",""4608""
""blur"",""25"",""701215""
""focus"",""25"",""735546""
""blur"",""25"",""977780""
""focus"",""25"",""1139220""
","""event"",""trial"",""time""
""blur"",""0"",""0""
""blur"",""25"",""701215""
""blur"",""25"",""977780""
","""event"",""trial"",""time""
""focus"",""1"",""4368""
""focus"",""25"",""735546""
""focus"",""25"",""1139220""
","""event"",""trial"",""time""
""fullscreenenter"",""1"",""4608""
","
",,1.200000048,run_exp/static/images/task_images/land.jpg,65,,,,,,,55,,,3,,,,,,,,53712,1,0,FALSE,,,
dig,83,1336688,0.0-28.0-0.0,"""event"",""trial"",""time""
""blur"",""0"",""0""
""focus"",""1"",""4368""
""fullscreenenter"",""1"",""4608""
""blur"",""25"",""701215""
""focus"",""25"",""735546""
""blur"",""25"",""977780""
""focus"",""25"",""1139220""
","""event"",""trial"",""time""
""blur"",""0"",""0""
""blur"",""25"",""701215""
""blur"",""25"",""977780""
","""event"",""trial"",""time""
""focus"",""1"",""4368""
""focus"",""25"",""735546""
""focus"",""25"",""1139220""
","""event"",""trial"",""time""
""fullscreenenter"",""1"",""4608""
","
",,,,,,,,,,,,"[{""stimulus"":""run_exp/static/images/task_images/dig.jpg"",""time"":0.30000001192092896},{""stimulus"":""run_exp/static/images/task_images/land.jpg"",""time"":1003.3999999761581},{""stimulus"":""run_exp/static/images/task_images/dig.jpg"",""time"":2004}]",[],3,,,,,,,,,,,,,,
harvest,84,1337697,0.0-28.0-1.0,"""event"",""trial"",""time""
""blur"",""0"",""0""
""focus"",""1"",""4368""
""fullscreenenter"",""1"",""4608""
""blur"",""25"",""701215""
""focus"",""25"",""735546""
""blur"",""25"",""977780""
""focus"",""25"",""1139220""
","""event"",""trial"",""time""
""blur"",""0"",""0""
""blur"",""25"",""701215""
""blur"",""25"",""977780""
","""event"",""trial"",""time""
""focus"",""1"",""4368""
""focus"",""25"",""735546""
""focus"",""25"",""1139220""
","""event"",""trial"",""time""
""fullscreenenter"",""1"",""4608""
","
",,null,run_exp/static/images/task_images/gems/55.jpg,null,,,,,,,29,,,3,,,,,55,0.518333831,0.527272727,,,,,,,
decision,85,1338509,0.0-28.0-2.0,"""event"",""trial"",""time""
""blur"",""0"",""0""
""focus"",""1"",""4368""
""fullscreenenter"",""1"",""4608""
""blur"",""25"",""701215""
""focus"",""25"",""735546""
""blur"",""25"",""977780""
""focus"",""25"",""1139220""
","""event"",""trial"",""time""
""blur"",""0"",""0""
""blur"",""25"",""701215""
""blur"",""25"",""977780""
","""event"",""trial"",""time""
""focus"",""1"",""4368""
""focus"",""25"",""735546""
""focus"",""25"",""1139220""
","""event"",""trial"",""time""
""fullscreenenter"",""1"",""4608""
","
",,816.5,run_exp/static/images/task_images/land.jpg,65,,,,,,,29,,,3,,,,,,,,58540,1,1,FALSE,,,
dig,86,1340702,0.0-29.0-0.0,"""event"",""trial"",""time""
""blur"",""0"",""0""
""focus"",""1"",""4368""
""fullscreenenter"",""1"",""4608""
""blur"",""25"",""701215""
""focus"",""25"",""735546""
""blur"",""25"",""977780""
""focus"",""25"",""1139220""
","""event"",""trial"",""time""
""blur"",""0"",""0""
""blur"",""25"",""701215""
""blur"",""25"",""977780""
","""event"",""trial"",""time""
""focus"",""1"",""4368""
""focus"",""25"",""735546""
""focus"",""25"",""1139220""
","""event"",""trial"",""time""
""fullscreenenter"",""1"",""4608""
","
",,,,,,,,,,,,"[{""stimulus"":""run_exp/static/images/task_images/dig.jpg"",""time"":0.10000002384185791},{""stimulus"":""run_exp/static/images/task_images/land.jpg"",""time"":730.4000000357628},{""stimulus"":""run_exp/static/images/task_images/dig.jpg"",""time"":1469.7000000476837}]",[],3,,,,,,,,,,,,,,
harvest,87,1341712,0.0-29.0-1.0,"""event"",""trial"",""time""
""blur"",""0"",""0""
""focus"",""1"",""4368""
""fullscreenenter"",""1"",""4608""
""blur"",""25"",""701215""
""focus"",""25"",""735546""
""blur"",""25"",""977780""
""focus"",""25"",""1139220""
","""event"",""trial"",""time""
""blur"",""0"",""0""
""blur"",""25"",""701215""
""blur"",""25"",""977780""
","""event"",""trial"",""time""
""focus"",""1"",""4368""
""focus"",""25"",""735546""
""focus"",""25"",""1139220""
","""event"",""trial"",""time""
""fullscreenenter"",""1"",""4608""
","
",,null,run_exp/static/images/task_images/gems/29.jpg,null,,,,,,,13,,,3,,,,,29,0.450496236,0.448275862,,,,,,,
decision,88,1342239,0.0-29.0-2.0,"""event"",""trial"",""time""
""blur"",""0"",""0""
""focus"",""1"",""4368""
""fullscreenenter"",""1"",""4608""
""blur"",""25"",""701215""
""focus"",""25"",""735546""
""blur"",""25"",""977780""
""focus"",""25"",""1139220""
","""event"",""trial"",""time""
""blur"",""0"",""0""
""blur"",""25"",""701215""
""blur"",""25"",""977780""
","""event"",""trial"",""time""
""focus"",""1"",""4368""
""focus"",""25"",""735546""
""focus"",""25"",""1139220""
","""event"",""trial"",""time""
""fullscreenenter"",""1"",""4608""
","
",,526.1,run_exp/static/images/task_images/land.jpg,76,,,,,,,13,,,3,,,,,,,,62270,1,2,TRUE,,,
travel,89,1351711,0.0-30.0-0.0,"""event"",""trial"",""time""
""blur"",""0"",""0""
""focus"",""1"",""4368""
""fullscreenenter"",""1"",""4608""
""blur"",""25"",""701215""
""focus"",""25"",""735546""
""blur"",""25"",""977780""
""focus"",""25"",""1139220""
","""event"",""trial"",""time""
""blur"",""0"",""0""
""blur"",""25"",""701215""
""blur"",""25"",""977780""
","""event"",""trial"",""time""
""focus"",""1"",""4368""
""focus"",""25"",""735546""
""focus"",""25"",""1139220""
","""event"",""trial"",""time""
""fullscreenenter"",""1"",""4608""
","
",,,,,,,,,,,,"[{""stimulus"":""run_exp/static/images/task_images/rocket-01.jpg"",""time"":0.30000001192092896},{""stimulus"":""run_exp/static/images/task_images/rocket-02.jpg"",""time"":1059.199999988079},{""stimulus"":""run_exp/static/images/task_images/rocket-03.jpg"",""time"":2109.100000023842},{""stimulus"":""run_exp/static/images/task_images/rocket-04.jpg"",""time"":3158.699999988079},{""stimulus"":""run_exp/static/images/task_images/rocket-05.jpg"",""time"":4219.400000035763},{""stimulus"":""run_exp/static/images/task_images/rocket-06.jpg"",""time"":5269.600000023842},{""stimulus"":""run_exp/static/images/task_images/rocket-07.jpg"",""time"":6319.5},{""stimulus"":""run_exp/static/images/task_images/rocket-08.jpg"",""time"":7369.600000023842},{""stimulus"":""run_exp/static/images/task_images/rocket-09.jpg"",""time"":8429.699999988079}]",[],3,,,,,,,,,,,,,,
alien_welcome,90,1356721,0.0-30.0-1.0,"""event"",""trial"",""time""
""blur"",""0"",""0""
""focus"",""1"",""4368""
""fullscreenenter"",""1"",""4608""
""blur"",""25"",""701215""
""focus"",""25"",""735546""
""blur"",""25"",""977780""
""focus"",""25"",""1139220""
","""event"",""trial"",""time""
""blur"",""0"",""0""
""blur"",""25"",""701215""
""blur"",""25"",""977780""
","""event"",""trial"",""time""
""focus"",""1"",""4368""
""focus"",""25"",""735546""
""focus"",""25"",""1139220""
","""event"",""trial"",""time""
""fullscreenenter"",""1"",""4608""
","
",,null,run_exp/static/images/task_images/aliens/old_aliens/planet/alien_planet-28.jpg,null,,,,,,,,,,,,,28,"67,38,57,28,21,11,68,47,37,9,70,26,75,19,30,36,12,6,18,25,8,58,73,48,78,51,22,27,10,56,41,16,71,53,24,52,64,62,15,76,44,13,63,49,50",,,,,,,,,,
land,91,1357232,0.0-30.0-2.0,"""event"",""trial"",""time""
""blur"",""0"",""0""
""focus"",""1"",""4368""
""fullscreenenter"",""1"",""4608""
""blur"",""25"",""701215""
""focus"",""25"",""735546""
""blur"",""25"",""977780""
""focus"",""25"",""1139220""
","""event"",""trial"",""time""
""blur"",""0"",""0""
""blur"",""25"",""701215""
""blur"",""25"",""977780""
","""event"",""trial"",""time""
""focus"",""1"",""4368""
""focus"",""25"",""735546""
""focus"",""25"",""1139220""
","""event"",""trial"",""time""
""fullscreenenter"",""1"",""4608""
","
",,null,run_exp/static/images/task_images/land.jpg,null,,,,,,,96,,,4,,,,,,,,,,,,,,
dig,92,1359251,0.0-30.0-3.0,"""event"",""trial"",""time""
""blur"",""0"",""0""
""focus"",""1"",""4368""
""fullscreenenter"",""1"",""4608""
""blur"",""25"",""701215""
""focus"",""25"",""735546""
""blur"",""25"",""977780""
""focus"",""25"",""1139220""
","""event"",""trial"",""time""
""blur"",""0"",""0""
""blur"",""25"",""701215""
""blur"",""25"",""977780""
","""event"",""trial"",""time""
""focus"",""1"",""4368""
""focus"",""25"",""735546""
""focus"",""25"",""1139220""
","""event"",""trial"",""time""
""fullscreenenter"",""1"",""4608""
","
",,,,,,,,,,,,"[{""stimulus"":""run_exp/static/images/task_images/dig.jpg"",""time"":0.20000004768371582},{""stimulus"":""run_exp/static/images/task_images/land.jpg"",""time"":673.7000000476837},{""stimulus"":""run_exp/static/images/task_images/dig.jpg"",""time"":1338.1000000238419}]",[],4,,,,,,,,,,,,,,
harvest,93,1360261,0.0-30.0-4.0,"""event"",""trial"",""time""
""blur"",""0"",""0""
""focus"",""1"",""4368""
""fullscreenenter"",""1"",""4608""
""blur"",""25"",""701215""
""focus"",""25"",""735546""
""blur"",""25"",""977780""
""focus"",""25"",""1139220""
","""event"",""trial"",""time""
""blur"",""0"",""0""
""blur"",""25"",""701215""
""blur"",""25"",""977780""
","""event"",""trial"",""time""
""focus"",""1"",""4368""
""focus"",""25"",""735546""
""focus"",""25"",""1139220""
","""event"",""trial"",""time""
""fullscreenenter"",""1"",""4608""
","
",,null,run_exp/static/images/task_images/gems/96.jpg,null,,,,,,,45,,,4,,,,,96,0.471887029,0.46875,,,,,,,
decision,94,1360958,0.0-30.0-5.0,"""event"",""trial"",""time""
""blur"",""0"",""0""
""focus"",""1"",""4368""
""fullscreenenter"",""1"",""4608""
""blur"",""25"",""701215""
""focus"",""25"",""735546""
""blur"",""25"",""977780""
""focus"",""25"",""1139220""
","""event"",""trial"",""time""
""blur"",""0"",""0""
""blur"",""25"",""701215""
""blur"",""25"",""977780""
","""event"",""trial"",""time""
""focus"",""1"",""4368""
""focus"",""25"",""735546""
""focus"",""25"",""1139220""
","""event"",""trial"",""time""
""fullscreenenter"",""1"",""4608""
","
",,694.7,run_exp/static/images/task_images/land.jpg,65,,,,,,,45,,,4,,,,,,,,80989,1,0,FALSE,,,
dig,95,1363271,0.0-31.0-0.0,"""event"",""trial"",""time""
""blur"",""0"",""0""
""focus"",""1"",""4368""
""fullscreenenter"",""1"",""4608""
""blur"",""25"",""701215""
""focus"",""25"",""735546""
""blur"",""25"",""977780""
""focus"",""25"",""1139220""
","""event"",""trial"",""time""
""blur"",""0"",""0""
""blur"",""25"",""701215""
""blur"",""25"",""977780""
","""event"",""trial"",""time""
""focus"",""1"",""4368""
""focus"",""25"",""735546""
""focus"",""25"",""1139220""
","""event"",""trial"",""time""
""fullscreenenter"",""1"",""4608""
","
",,,,,,,,,,,,"[{""stimulus"":""run_exp/static/images/task_images/dig.jpg"",""time"":0.19999998807907104},{""stimulus"":""run_exp/static/images/task_images/land.jpg"",""time"":770.8999999761581},{""stimulus"":""run_exp/static/images/task_images/dig.jpg"",""time"":1540.3999999761581}]",[],4,,,,,,,,,,,,,,
harvest,96,1364282,0.0-31.0-1.0,"""event"",""trial"",""time""
""blur"",""0"",""0""
""focus"",""1"",""4368""
""fullscreenenter"",""1"",""4608""
""blur"",""25"",""701215""
""focus"",""25"",""735546""
""blur"",""25"",""977780""
""focus"",""25"",""1139220""
","""event"",""trial"",""time""
""blur"",""0"",""0""
""blur"",""25"",""701215""
""blur"",""25"",""977780""
","""event"",""trial"",""time""
""focus"",""1"",""4368""
""focus"",""25"",""735546""
""focus"",""25"",""1139220""
","""event"",""trial"",""time""
""fullscreenenter"",""1"",""4608""
","
",,null,run_exp/static/images/task_images/gems/45.jpg,null,,,,,,,25,,,4,,,,,45,0.55801075,0.555555556,,,,,,,
decision,97,1364317,0.0-31.0-2.0,"""event"",""trial"",""time""
""blur"",""0"",""0""
""focus"",""1"",""4368""
""fullscreenenter"",""1"",""4608""
""blur"",""25"",""701215""
""focus"",""25"",""735546""
""blur"",""25"",""977780""
""focus"",""25"",""1139220""
","""event"",""trial"",""time""
""blur"",""0"",""0""
""blur"",""25"",""701215""
""blur"",""25"",""977780""
","""event"",""trial"",""time""
""focus"",""1"",""4368""
""focus"",""25"",""735546""
""focus"",""25"",""1139220""
","""event"",""trial"",""time""
""fullscreenenter"",""1"",""4608""
","
",,33.59999996,run_exp/static/images/task_images/land.jpg,65,,,,,,,25,,,4,,,,,,,,84348,1,1,FALSE,,,
dig,98,1367291,0.0-32.0-0.0,"""event"",""trial"",""time""
""blur"",""0"",""0""
""focus"",""1"",""4368""
""fullscreenenter"",""1"",""4608""
""blur"",""25"",""701215""
""focus"",""25"",""735546""
""blur"",""25"",""977780""
""focus"",""25"",""1139220""
","""event"",""trial"",""time""
""blur"",""0"",""0""
""blur"",""25"",""701215""
""blur"",""25"",""977780""
","""event"",""trial"",""time""
""focus"",""1"",""4368""
""focus"",""25"",""735546""
""focus"",""25"",""1139220""
","""event"",""trial"",""time""
""fullscreenenter"",""1"",""4608""
","
",,,,,,,,,,,,"[{""stimulus"":""run_exp/static/images/task_images/dig.jpg"",""time"":0.10000002384185791},{""stimulus"":""run_exp/static/images/task_images/land.jpg"",""time"":992.6999999880791},{""stimulus"":""run_exp/static/images/task_images/dig.jpg"",""time"":1982.4000000357628}]",[],4,,,,,,,,,,,,,,
harvest,99,1368302,0.0-32.0-1.0,"""event"",""trial"",""time""
""blur"",""0"",""0""
""focus"",""1"",""4368""
""fullscreenenter"",""1"",""4608""
""blur"",""25"",""701215""
""focus"",""25"",""735546""
""blur"",""25"",""977780""
""focus"",""25"",""1139220""
","""event"",""trial"",""time""
""blur"",""0"",""0""
""blur"",""25"",""701215""
""blur"",""25"",""977780""
","""event"",""trial"",""time""
""focus"",""1"",""4368""
""focus"",""25"",""735546""
""focus"",""25"",""1139220""
","""event"",""trial"",""time""
""fullscreenenter"",""1"",""4608""
","
",,null,run_exp/static/images/task_images/gems/25.jpg,null,,,,,,,10,,,4,,,,,25,0.408012194,0.4,,,,,,,
decision,100,1368341,0.0-32.0-2.0,"""event"",""trial"",""time""
""blur"",""0"",""0""
""focus"",""1"",""4368""
""fullscreenenter"",""1"",""4608""
""blur"",""25"",""701215""
""focus"",""25"",""735546""
""blur"",""25"",""977780""
""focus"",""25"",""1139220""
","""event"",""trial"",""time""
""blur"",""0"",""0""
""blur"",""25"",""701215""
""blur"",""25"",""977780""
","""event"",""trial"",""time""
""focus"",""1"",""4368""
""focus"",""25"",""735546""
""focus"",""25"",""1139220""
","""event"",""trial"",""time""
""fullscreenenter"",""1"",""4608""
","
",,37.20000005,run_exp/static/images/task_images/land.jpg,76,,,,,,,10,,,4,,,,,,,,88372,1,2,TRUE,,,
travel,101,1378301,0.0-33.0-0.0,"""event"",""trial"",""time""
""blur"",""0"",""0""
""focus"",""1"",""4368""
""fullscreenenter"",""1"",""4608""
""blur"",""25"",""701215""
""focus"",""25"",""735546""
""blur"",""25"",""977780""
""focus"",""25"",""1139220""
","""event"",""trial"",""time""
""blur"",""0"",""0""
""blur"",""25"",""701215""
""blur"",""25"",""977780""
","""event"",""trial"",""time""
""focus"",""1"",""4368""
""focus"",""25"",""735546""
""focus"",""25"",""1139220""
","""event"",""trial"",""time""
""fullscreenenter"",""1"",""4608""
","
",,,,,,,,,,,,"[{""stimulus"":""run_exp/static/images/task_images/rocket-01.jpg"",""time"":0.19999998807907104},{""stimulus"":""run_exp/static/images/task_images/rocket-02.jpg"",""time"":1117.3999999761581},{""stimulus"":""run_exp/static/images/task_images/rocket-03.jpg"",""time"":2217.699999988079},{""stimulus"":""run_exp/static/images/task_images/rocket-04.jpg"",""time"":3328},{""stimulus"":""run_exp/static/images/task_images/rocket-05.jpg"",""time"":4427.599999964237},{""stimulus"":""run_exp/static/images/task_images/rocket-06.jpg"",""time"":5537.099999964237},{""stimulus"":""run_exp/static/images/task_images/rocket-07.jpg"",""time"":6647.199999988079},{""stimulus"":""run_exp/static/images/task_images/rocket-08.jpg"",""time"":7747.399999976158},{""stimulus"":""run_exp/static/images/task_images/rocket-09.jpg"",""time"":8857.399999976158}]",[],4,,,,,,,,,,,,,,
alien_welcome,102,1383311,0.0-33.0-1.0,"""event"",""trial"",""time""
""blur"",""0"",""0""
""focus"",""1"",""4368""
""fullscreenenter"",""1"",""4608""
""blur"",""25"",""701215""
""focus"",""25"",""735546""
""blur"",""25"",""977780""
""focus"",""25"",""1139220""
","""event"",""trial"",""time""
""blur"",""0"",""0""
""blur"",""25"",""701215""
""blur"",""25"",""977780""
","""event"",""trial"",""time""
""focus"",""1"",""4368""
""focus"",""25"",""735546""
""focus"",""25"",""1139220""
","""event"",""trial"",""time""
""fullscreenenter"",""1"",""4608""
","
",,null,run_exp/static/images/task_images/aliens/old_aliens/planet/alien_planet-21.jpg,null,,,,,,,,,,,,,21,"67,38,57,28,21,11,68,47,37,9,70,26,75,19,30,36,12,6,18,25,8,58,73,48,78,51,22,27,10,56,41,16,71,53,24,52,64,62,15,76,44,13,63,49,50",,,,,,,,,,
land,103,1383820,0.0-33.0-2.0,"""event"",""trial"",""time""
""blur"",""0"",""0""
""focus"",""1"",""4368""
""fullscreenenter"",""1"",""4608""
""blur"",""25"",""701215""
""focus"",""25"",""735546""
""blur"",""25"",""977780""
""focus"",""25"",""1139220""
","""event"",""trial"",""time""
""blur"",""0"",""0""
""blur"",""25"",""701215""
""blur"",""25"",""977780""
","""event"",""trial"",""time""
""focus"",""1"",""4368""
""focus"",""25"",""735546""
""focus"",""25"",""1139220""
","""event"",""trial"",""time""
""fullscreenenter"",""1"",""4608""
","
",,null,run_exp/static/images/task_images/land.jpg,null,,,,,,,105,,,5,,,,,,,,,,,,,,
dig,104,1385831,0.0-33.0-3.0,"""event"",""trial"",""time""
""blur"",""0"",""0""
""focus"",""1"",""4368""
""fullscreenenter"",""1"",""4608""
""blur"",""25"",""701215""
""focus"",""25"",""735546""
""blur"",""25"",""977780""
""focus"",""25"",""1139220""
","""event"",""trial"",""time""
""blur"",""0"",""0""
""blur"",""25"",""701215""
""blur"",""25"",""977780""
","""event"",""trial"",""time""
""focus"",""1"",""4368""
""focus"",""25"",""735546""
""focus"",""25"",""1139220""
","""event"",""trial"",""time""
""fullscreenenter"",""1"",""4608""
","
",,,,,,,,,,,,"[{""stimulus"":""run_exp/static/images/task_images/dig.jpg"",""time"":0.30000001192092896},{""stimulus"":""run_exp/static/images/task_images/land.jpg"",""time"":679.6999999880791},{""stimulus"":""run_exp/static/images/task_images/dig.jpg"",""time"":1339.5}]",[],5,,,,,,,,,,,,,,
harvest,105,1386841,0.0-33.0-4.0,"""event"",""trial"",""time""
""blur"",""0"",""0""
""focus"",""1"",""4368""
""fullscreenenter"",""1"",""4608""
""blur"",""25"",""701215""
""focus"",""25"",""735546""
""blur"",""25"",""977780""
""focus"",""25"",""1139220""
","""event"",""trial"",""time""
""blur"",""0"",""0""
""blur"",""25"",""701215""
""blur"",""25"",""977780""
","""event"",""trial"",""time""
""focus"",""1"",""4368""
""focus"",""25"",""735546""
""focus"",""25"",""1139220""
","""event"",""trial"",""time""
""fullscreenenter"",""1"",""4608""
","
",,null,run_exp/static/images/task_images/gems/105.jpg,null,,,,,,,52,,,5,,,,,105,0.495308582,0.495238095,,,,,,,
decision,106,1387228,0.0-33.0-5.0,"""event"",""trial"",""time""
""blur"",""0"",""0""
""focus"",""1"",""4368""
""fullscreenenter"",""1"",""4608""
""blur"",""25"",""701215""
""focus"",""25"",""735546""
""blur"",""25"",""977780""
""focus"",""25"",""1139220""
","""event"",""trial"",""time""
""blur"",""0"",""0""
""blur"",""25"",""701215""
""blur"",""25"",""977780""
","""event"",""trial"",""time""
""focus"",""1"",""4368""
""focus"",""25"",""735546""
""focus"",""25"",""1139220""
","""event"",""trial"",""time""
""fullscreenenter"",""1"",""4608""
","
",,384.7,run_exp/static/images/task_images/land.jpg,65,,,,,,,52,,,5,,,,,,,,107259,1,0,FALSE,,,
dig,107,1389851,0.0-34.0-0.0,"""event"",""trial"",""time""
""blur"",""0"",""0""
""focus"",""1"",""4368""
""fullscreenenter"",""1"",""4608""
""blur"",""25"",""701215""
""focus"",""25"",""735546""
""blur"",""25"",""977780""
""focus"",""25"",""1139220""
","""event"",""trial"",""time""
""blur"",""0"",""0""
""blur"",""25"",""701215""
""blur"",""25"",""977780""
","""event"",""trial"",""time""
""focus"",""1"",""4368""
""focus"",""25"",""735546""
""focus"",""25"",""1139220""
","""event"",""trial"",""time""
""fullscreenenter"",""1"",""4608""
","
",,,,,,,,,,,,"[{""stimulus"":""run_exp/static/images/task_images/dig.jpg"",""time"":0.30000001192092896},{""stimulus"":""run_exp/static/images/task_images/land.jpg"",""time"":879.9000000357628},{""stimulus"":""run_exp/static/images/task_images/dig.jpg"",""time"":1750.1000000238419}]",[],5,,,,,,,,,,,,,,
harvest,108,1390861,0.0-34.0-1.0,"""event"",""trial"",""time""
""blur"",""0"",""0""
""focus"",""1"",""4368""
""fullscreenenter"",""1"",""4608""
""blur"",""25"",""701215""
""focus"",""25"",""735546""
""blur"",""25"",""977780""
""focus"",""25"",""1139220""
","""event"",""trial"",""time""
""blur"",""0"",""0""
""blur"",""25"",""701215""
""blur"",""25"",""977780""
","""event"",""trial"",""time""
""focus"",""1"",""4368""
""focus"",""25"",""735546""
""focus"",""25"",""1139220""
","""event"",""trial"",""time""
""fullscreenenter"",""1"",""4608""
","
",,null,run_exp/static/images/task_images/gems/52.jpg,null,,,,,,,27,,,5,,,,,52,0.513408619,0.519230769,,,,,,,
decision,109,1391204,0.0-34.0-2.0,"""event"",""trial"",""time""
""blur"",""0"",""0""
""focus"",""1"",""4368""
""fullscreenenter"",""1"",""4608""
""blur"",""25"",""701215""
""focus"",""25"",""735546""
""blur"",""25"",""977780""
""focus"",""25"",""1139220""
","""event"",""trial"",""time""
""blur"",""0"",""0""
""blur"",""25"",""701215""
""blur"",""25"",""977780""
","""event"",""trial"",""time""
""focus"",""1"",""4368""
""focus"",""25"",""735546""
""focus"",""25"",""1139220""
","""event"",""trial"",""time""
""fullscreenenter"",""1"",""4608""
","
",,341.3,run_exp/static/images/task_images/land.jpg,65,,,,,,,27,,,5,,,,,,,,111235,1,1,FALSE,,,
dig,110,1393872,0.0-35.0-0.0,"""event"",""trial"",""time""
""blur"",""0"",""0""
""focus"",""1"",""4368""
""fullscreenenter"",""1"",""4608""
""blur"",""25"",""701215""
""focus"",""25"",""735546""
""blur"",""25"",""977780""
""focus"",""25"",""1139220""
","""event"",""trial"",""time""
""blur"",""0"",""0""
""blur"",""25"",""701215""
""blur"",""25"",""977780""
","""event"",""trial"",""time""
""focus"",""1"",""4368""
""focus"",""25"",""735546""
""focus"",""25"",""1139220""
","""event"",""trial"",""time""
""fullscreenenter"",""1"",""4608""
","
",,,,,,,,,,,,"[{""stimulus"":""run_exp/static/images/task_images/dig.jpg"",""time"":0.19999998807907104},{""stimulus"":""run_exp/static/images/task_images/land.jpg"",""time"":895.1000000238419},{""stimulus"":""run_exp/static/images/task_images/dig.jpg"",""time"":1774.9000000357628}]",[],5,,,,,,,,,,,,,,
harvest,111,1394882,0.0-35.0-1.0,"""event"",""trial"",""time""
""blur"",""0"",""0""
""focus"",""1"",""4368""
""fullscreenenter"",""1"",""4608""
""blur"",""25"",""701215""
""focus"",""25"",""735546""
""blur"",""25"",""977780""
""focus"",""25"",""1139220""
","""event"",""trial"",""time""
""blur"",""0"",""0""
""blur"",""25"",""701215""
""blur"",""25"",""977780""
","""event"",""trial"",""time""
""focus"",""1"",""4368""
""focus"",""25"",""735546""
""focus"",""25"",""1139220""
","""event"",""trial"",""time""
""fullscreenenter"",""1"",""4608""
","
",,null,run_exp/static/images/task_images/gems/27.jpg,null,,,,,,,13,,,5,,,,,27,0.486941719,0.481481481,,,,,,,
decision,112,1394989,0.0-35.0-2.0,"""event"",""trial"",""time""
""blur"",""0"",""0""
""focus"",""1"",""4368""
""fullscreenenter"",""1"",""4608""
""blur"",""25"",""701215""
""focus"",""25"",""735546""
""blur"",""25"",""977780""
""focus"",""25"",""1139220""
","""event"",""trial"",""time""
""blur"",""0"",""0""
""blur"",""25"",""701215""
""blur"",""25"",""977780""
","""event"",""trial"",""time""
""focus"",""1"",""4368""
""focus"",""25"",""735546""
""focus"",""25"",""1139220""
","""event"",""trial"",""time""
""fullscreenenter"",""1"",""4608""
","
",,106.8,run_exp/static/images/task_images/land.jpg,76,,,,,,,13,,,5,,,,,,,,115020,1,2,TRUE,,,
travel,113,1404893,0.0-36.0-0.0,"""event"",""trial"",""time""
""blur"",""0"",""0""
""focus"",""1"",""4368""
""fullscreenenter"",""1"",""4608""
""blur"",""25"",""701215""
""focus"",""25"",""735546""
""blur"",""25"",""977780""
""focus"",""25"",""1139220""
","""event"",""trial"",""time""
""blur"",""0"",""0""
""blur"",""25"",""701215""
""blur"",""25"",""977780""
","""event"",""trial"",""time""
""focus"",""1"",""4368""
""focus"",""25"",""735546""
""focus"",""25"",""1139220""
","""event"",""trial"",""time""
""fullscreenenter"",""1"",""4608""
","
",,,,,,,,,,,,"[{""stimulus"":""run_exp/static/images/task_images/rocket-01.jpg"",""time"":0.10000002384185791},{""stimulus"":""run_exp/static/images/task_images/rocket-02.jpg"",""time"":1109.3999999761581},{""stimulus"":""run_exp/static/images/task_images/rocket-03.jpg"",""time"":2209.399999976158},{""stimulus"":""run_exp/static/images/task_images/rocket-04.jpg"",""time"":3300.100000023842},{""stimulus"":""run_exp/static/images/task_images/rocket-05.jpg"",""time"":4399.800000011921},{""stimulus"":""run_exp/static/images/task_images/rocket-06.jpg"",""time"":5499.199999988079},{""stimulus"":""run_exp/static/images/task_images/rocket-07.jpg"",""time"":6599.899999976158},{""stimulus"":""run_exp/static/images/task_images/rocket-08.jpg"",""time"":7709.899999976158},{""stimulus"":""run_exp/static/images/task_images/rocket-09.jpg"",""time"":8809.800000011921}]",[],5,,,,,,,,,,,,,,
alien_welcome,114,1409897,0.0-36.0-1.0,"""event"",""trial"",""time""
""blur"",""0"",""0""
""focus"",""1"",""4368""
""fullscreenenter"",""1"",""4608""
""blur"",""25"",""701215""
""focus"",""25"",""735546""
""blur"",""25"",""977780""
""focus"",""25"",""1139220""
","""event"",""trial"",""time""
""blur"",""0"",""0""
""blur"",""25"",""701215""
""blur"",""25"",""977780""
","""event"",""trial"",""time""
""focus"",""1"",""4368""
""focus"",""25"",""735546""
""focus"",""25"",""1139220""
","""event"",""trial"",""time""
""fullscreenenter"",""1"",""4608""
","
",,null,run_exp/static/images/task_images/aliens/old_aliens/planet/alien_planet-11.jpg,null,,,,,,,,,,,,,11,"67,38,57,28,21,11,68,47,37,9,70,26,75,19,30,36,12,6,18,25,8,58,73,48,78,51,22,27,10,56,41,16,71,53,24,52,64,62,15,76,44,13,63,49,50",,,,,,,,,,
land,115,1410406,0.0-36.0-2.0,"""event"",""trial"",""time""
""blur"",""0"",""0""
""focus"",""1"",""4368""
""fullscreenenter"",""1"",""4608""
""blur"",""25"",""701215""
""focus"",""25"",""735546""
""blur"",""25"",""977780""
""focus"",""25"",""1139220""
","""event"",""trial"",""time""
""blur"",""0"",""0""
""blur"",""25"",""701215""
""blur"",""25"",""977780""
","""event"",""trial"",""time""
""focus"",""1"",""4368""
""focus"",""25"",""735546""
""focus"",""25"",""1139220""
","""event"",""trial"",""time""
""fullscreenenter"",""1"",""4608""
","
",,null,run_exp/static/images/task_images/land.jpg,null,,,,,,,104,,,6,,,,,,,,,,,,,,
dig,116,1412417,0.0-36.0-3.0,"""event"",""trial"",""time""
""blur"",""0"",""0""
""focus"",""1"",""4368""
""fullscreenenter"",""1"",""4608""
""blur"",""25"",""701215""
""focus"",""25"",""735546""
""blur"",""25"",""977780""
""focus"",""25"",""1139220""
","""event"",""trial"",""time""
""blur"",""0"",""0""
""blur"",""25"",""701215""
""blur"",""25"",""977780""
","""event"",""trial"",""time""
""focus"",""1"",""4368""
""focus"",""25"",""735546""
""focus"",""25"",""1139220""
","""event"",""trial"",""time""
""fullscreenenter"",""1"",""4608""
","
",,,,,,,,,,,,"[{""stimulus"":""run_exp/static/images/task_images/dig.jpg"",""time"":0.2999999523162842},{""stimulus"":""run_exp/static/images/task_images/land.jpg"",""time"":678.0999999642372},{""stimulus"":""run_exp/static/images/task_images/dig.jpg"",""time"":1339}]",[],6,,,,,,,,,,,,,,
harvest,117,1413426,0.0-36.0-4.0,"""event"",""trial"",""time""
""blur"",""0"",""0""
""focus"",""1"",""4368""
""fullscreenenter"",""1"",""4608""
""blur"",""25"",""701215""
""focus"",""25"",""735546""
""blur"",""25"",""977780""
""focus"",""25"",""1139220""
","""event"",""trial"",""time""
""blur"",""0"",""0""
""blur"",""25"",""701215""
""blur"",""25"",""977780""
","""event"",""trial"",""time""
""focus"",""1"",""4368""
""focus"",""25"",""735546""
""focus"",""25"",""1139220""
","""event"",""trial"",""time""
""fullscreenenter"",""1"",""4608""
","
",,null,run_exp/static/images/task_images/gems/104.jpg,null,,,,,,,90,,,6,,,,,104,0.863029196,0.865384615,,,,,,,
decision,118,1413473,0.0-36.0-5.0,"""event"",""trial"",""time""
""blur"",""0"",""0""
""focus"",""1"",""4368""
""fullscreenenter"",""1"",""4608""
""blur"",""25"",""701215""
""focus"",""25"",""735546""
""blur"",""25"",""977780""
""focus"",""25"",""1139220""
","""event"",""trial"",""time""
""blur"",""0"",""0""
""blur"",""25"",""701215""
""blur"",""25"",""977780""
","""event"",""trial"",""time""
""focus"",""1"",""4368""
""focus"",""25"",""735546""
""focus"",""25"",""1139220""
","""event"",""trial"",""time""
""fullscreenenter"",""1"",""4608""
","
",,45.5,run_exp/static/images/task_images/land.jpg,65,,,,,,,90,,,6,,,,,,,,133504,1,0,FALSE,,,
dig,119,1416436,0.0-37.0-0.0,"""event"",""trial"",""time""
""blur"",""0"",""0""
""focus"",""1"",""4368""
""fullscreenenter"",""1"",""4608""
""blur"",""25"",""701215""
""focus"",""25"",""735546""
""blur"",""25"",""977780""
""focus"",""25"",""1139220""
","""event"",""trial"",""time""
""blur"",""0"",""0""
""blur"",""25"",""701215""
""blur"",""25"",""977780""
","""event"",""trial"",""time""
""focus"",""1"",""4368""
""focus"",""25"",""735546""
""focus"",""25"",""1139220""
","""event"",""trial"",""time""
""fullscreenenter"",""1"",""4608""
","
",,,,,,,,,,,,"[{""stimulus"":""run_exp/static/images/task_images/dig.jpg"",""time"":0.20000004768371582},{""stimulus"":""run_exp/static/images/task_images/land.jpg"",""time"":991.3000000119209},{""stimulus"":""run_exp/static/images/task_images/dig.jpg"",""time"":1971.5}]",[],6,,,,,,,,,,,,,,
harvest,120,1417447,0.0-37.0-1.0,"""event"",""trial"",""time""
""blur"",""0"",""0""
""focus"",""1"",""4368""
""fullscreenenter"",""1"",""4608""
""blur"",""25"",""701215""
""focus"",""25"",""735546""
""blur"",""25"",""977780""
""focus"",""25"",""1139220""
","""event"",""trial"",""time""
""blur"",""0"",""0""
""blur"",""25"",""701215""
""blur"",""25"",""977780""
","""event"",""trial"",""time""
""focus"",""1"",""4368""
""focus"",""25"",""735546""
""focus"",""25"",""1139220""
","""event"",""trial"",""time""
""fullscreenenter"",""1"",""4608""
","
",,null,run_exp/static/images/task_images/gems/90.jpg,null,,,,,,,76,,,6,,,,,90,0.84308989,0.844444444,,,,,,,
decision,121,1417494,0.0-37.0-2.0,"""event"",""trial"",""time""
""blur"",""0"",""0""
""focus"",""1"",""4368""
""fullscreenenter"",""1"",""4608""
""blur"",""25"",""701215""
""focus"",""25"",""735546""
""blur"",""25"",""977780""
""focus"",""25"",""1139220""
","""event"",""trial"",""time""
""blur"",""0"",""0""
""blur"",""25"",""701215""
""blur"",""25"",""977780""
","""event"",""trial"",""time""
""focus"",""1"",""4368""
""focus"",""25"",""735546""
""focus"",""25"",""1139220""
","""event"",""trial"",""time""
""fullscreenenter"",""1"",""4608""
","
",,45.30000001,run_exp/static/images/task_images/land.jpg,65,,,,,,,76,,,6,,,,,,,,137525,1,1,FALSE,,,
dig,122,1420457,0.0-38.0-0.0,"""event"",""trial"",""time""
""blur"",""0"",""0""
""focus"",""1"",""4368""
""fullscreenenter"",""1"",""4608""
""blur"",""25"",""701215""
""focus"",""25"",""735546""
""blur"",""25"",""977780""
""focus"",""25"",""1139220""
","""event"",""trial"",""time""
""blur"",""0"",""0""
""blur"",""25"",""701215""
""blur"",""25"",""977780""
","""event"",""trial"",""time""
""focus"",""1"",""4368""
""focus"",""25"",""735546""
""focus"",""25"",""1139220""
","""event"",""trial"",""time""
""fullscreenenter"",""1"",""4608""
","
",,,,,,,,,,,,"[{""stimulus"":""run_exp/static/images/task_images/dig.jpg"",""time"":0.19999998807907104},{""stimulus"":""run_exp/static/images/task_images/land.jpg"",""time"":990.9000000357628},{""stimulus"":""run_exp/static/images/task_images/dig.jpg"",""time"":1970.6000000238419}]",[],6,,,,,,,,,,,,,,
harvest,123,1421467,0.0-38.0-1.0,"""event"",""trial"",""time""
""blur"",""0"",""0""
""focus"",""1"",""4368""
""fullscreenenter"",""1"",""4608""
""blur"",""25"",""701215""
""focus"",""25"",""735546""
""blur"",""25"",""977780""
""focus"",""25"",""1139220""
","""event"",""trial"",""time""
""blur"",""0"",""0""
""blur"",""25"",""701215""
""blur"",""25"",""977780""
","""event"",""trial"",""time""
""focus"",""1"",""4368""
""focus"",""25"",""735546""
""focus"",""25"",""1139220""
","""event"",""trial"",""time""
""fullscreenenter"",""1"",""4608""
","
",,null,run_exp/static/images/task_images/gems/76.jpg,null,,,,,,,66,,,6,,,,,76,0.866727098,0.868421053,,,,,,,
decision,124,1421670,0.0-38.0-2.0,"""event"",""trial"",""time""
""blur"",""0"",""0""
""focus"",""1"",""4368""
""fullscreenenter"",""1"",""4608""
""blur"",""25"",""701215""
""focus"",""25"",""735546""
""blur"",""25"",""977780""
""focus"",""25"",""1139220""
","""event"",""trial"",""time""
""blur"",""0"",""0""
""blur"",""25"",""701215""
""blur"",""25"",""977780""
","""event"",""trial"",""time""
""focus"",""1"",""4368""
""focus"",""25"",""735546""
""focus"",""25"",""1139220""
","""event"",""trial"",""time""
""fullscreenenter"",""1"",""4608""
","
",,201.5,run_exp/static/images/task_images/land.jpg,65,,,,,,,66,,,6,,,,,,,,141701,1,2,FALSE,,,
dig,125,1424476,0.0-39.0-0.0,"""event"",""trial"",""time""
""blur"",""0"",""0""
""focus"",""1"",""4368""
""fullscreenenter"",""1"",""4608""
""blur"",""25"",""701215""
""focus"",""25"",""735546""
""blur"",""25"",""977780""
""focus"",""25"",""1139220""
","""event"",""trial"",""time""
""blur"",""0"",""0""
""blur"",""25"",""701215""
""blur"",""25"",""977780""
","""event"",""trial"",""time""
""focus"",""1"",""4368""
""focus"",""25"",""735546""
""focus"",""25"",""1139220""
","""event"",""trial"",""time""
""fullscreenenter"",""1"",""4608""
","
",,,,,,,,,,,,"[{""stimulus"":""run_exp/static/images/task_images/dig.jpg"",""time"":0.19999998807907104},{""stimulus"":""run_exp/static/images/task_images/land.jpg"",""time"":933.8999999761581},{""stimulus"":""run_exp/static/images/task_images/dig.jpg"",""time"":1872.8999999761581}]",[],6,,,,,,,,,,,,,,
harvest,126,1425487,0.0-39.0-1.0,"""event"",""trial"",""time""
""blur"",""0"",""0""
""focus"",""1"",""4368""
""fullscreenenter"",""1"",""4608""
""blur"",""25"",""701215""
""focus"",""25"",""735546""
""blur"",""25"",""977780""
""focus"",""25"",""1139220""
","""event"",""trial"",""time""
""blur"",""0"",""0""
""blur"",""25"",""701215""
""blur"",""25"",""977780""
","""event"",""trial"",""time""
""focus"",""1"",""4368""
""focus"",""25"",""735546""
""focus"",""25"",""1139220""
","""event"",""trial"",""time""
""fullscreenenter"",""1"",""4608""
","
",,null,run_exp/static/images/task_images/gems/66.jpg,null,,,,,,,53,,,6,,,,,66,0.803922031,0.803030303,,,,,,,
decision,127,1425500,0.0-39.0-2.0,"""event"",""trial"",""time""
""blur"",""0"",""0""
""focus"",""1"",""4368""
""fullscreenenter"",""1"",""4608""
""blur"",""25"",""701215""
""focus"",""25"",""735546""
""blur"",""25"",""977780""
""focus"",""25"",""1139220""
","""event"",""trial"",""time""
""blur"",""0"",""0""
""blur"",""25"",""701215""
""blur"",""25"",""977780""
","""event"",""trial"",""time""
""focus"",""1"",""4368""
""focus"",""25"",""735546""
""focus"",""25"",""1139220""
","""event"",""trial"",""time""
""fullscreenenter"",""1"",""4608""
","
",,11.10000002,run_exp/static/images/task_images/land.jpg,65,,,,,,,53,,,6,,,,,,,,145531,1,3,FALSE,,,
dig,128,1428507,0.0-40.0-0.0,"""event"",""trial"",""time""
""blur"",""0"",""0""
""focus"",""1"",""4368""
""fullscreenenter"",""1"",""4608""
""blur"",""25"",""701215""
""focus"",""25"",""735546""
""blur"",""25"",""977780""
""focus"",""25"",""1139220""
","""event"",""trial"",""time""
""blur"",""0"",""0""
""blur"",""25"",""701215""
""blur"",""25"",""977780""
","""event"",""trial"",""time""
""focus"",""1"",""4368""
""focus"",""25"",""735546""
""focus"",""25"",""1139220""
","""event"",""trial"",""time""
""fullscreenenter"",""1"",""4608""
","
",,,,,,,,,,,,"[{""stimulus"":""run_exp/static/images/task_images/dig.jpg"",""time"":0.19999998807907104},{""stimulus"":""run_exp/static/images/task_images/land.jpg"",""time"":1005.0999999642372},{""stimulus"":""run_exp/static/images/task_images/dig.jpg"",""time"":1995}]",[],6,,,,,,,,,,,,,,
harvest,129,1429517,0.0-40.0-1.0,"""event"",""trial"",""time""
""blur"",""0"",""0""
""focus"",""1"",""4368""
""fullscreenenter"",""1"",""4608""
""blur"",""25"",""701215""
""focus"",""25"",""735546""
""blur"",""25"",""977780""
""focus"",""25"",""1139220""
","""event"",""trial"",""time""
""blur"",""0"",""0""
""blur"",""25"",""701215""
""blur"",""25"",""977780""
","""event"",""trial"",""time""
""focus"",""1"",""4368""
""focus"",""25"",""735546""
""focus"",""25"",""1139220""
","""event"",""trial"",""time""
""fullscreenenter"",""1"",""4608""
","
",,null,run_exp/static/images/task_images/gems/53.jpg,null,,,,,,,34,,,6,,,,,53,0.65079085,0.641509434,,,,,,,
decision,130,1429840,0.0-40.0-2.0,"""event"",""trial"",""time""
""blur"",""0"",""0""
""focus"",""1"",""4368""
""fullscreenenter"",""1"",""4608""
""blur"",""25"",""701215""
""focus"",""25"",""735546""
""blur"",""25"",""977780""
""focus"",""25"",""1139220""
","""event"",""trial"",""time""
""blur"",""0"",""0""
""blur"",""25"",""701215""
""blur"",""25"",""977780""
","""event"",""trial"",""time""
""focus"",""1"",""4368""
""focus"",""25"",""735546""
