trial_type,trial_index,time_elapsed,internal_node_id,interactions,blur_events,focus_events,fullscreenenter_events,fullscreenexit_events,success,rt,stimulus,key_press,prompt,subject_id,participant_id,age,gender,button_pressed,next_reward,animation_sequence,responses,planet,curr_prac_trial,n_prac_rounds,alien,aliens,reward_received,decay_rate_actual,decay_rate_exp,time_in_block,block_num,prt,last_trial_on_planet,button_html,bonus,num_failures
pavlovia,0,3,0.0-0.0,"""event"",""trial"",""time""
""blur"",""0"",""0""
""focus"",""1"",""22583""
""fullscreenenter"",""1"",""23229""
","""event"",""trial"",""time""
""blur"",""0"",""0""
","""event"",""trial"",""time""
""focus"",""1"",""22583""
","""event"",""trial"",""time""
""fullscreenenter"",""1"",""23229""
","
",,,,,,,,,,,,,,,,,,,,,,,,,,,,
fullscreen,1,24220,0.0-1.0,"""event"",""trial"",""time""
""blur"",""0"",""0""
""focus"",""1"",""22583""
""fullscreenenter"",""1"",""23229""
","""event"",""trial"",""time""
""blur"",""0"",""0""
","""event"",""trial"",""time""
""focus"",""1"",""22583""
","""event"",""trial"",""time""
""fullscreenenter"",""1"",""23229""
","
",TRUE,,,,,,,,,,,,,,,,,,,,,,,,,,,
instruc_welcome,2,34276,0.0-2.0,"""event"",""trial"",""time""
""blur"",""0"",""0""
""focus"",""1"",""22583""
""fullscreenenter"",""1"",""23229""
","""event"",""trial"",""time""
""blur"",""0"",""0""
","""event"",""trial"",""time""
""focus"",""1"",""22583""
","""event"",""trial"",""time""
""fullscreenenter"",""1"",""23229""
","
",,null,run_exp/static/audio/clip_1_welcome.m4a,null,"<p>Howdy! In this experiment, you’ll be an explorer traveling through space to collect space treasure.</p><p>Your mission is to collect as much treasure as possible.</p><br><br><p><img src='run_exp/static/images/task_images/opening_img-01.jpg' height='300' width='auto'></p>",7926,42,21.94,Female,,,,,,,,,,,,,,,,,,,
audio-keyboard-response,3,51046,0.0-3.0,"""event"",""trial"",""time""
""blur"",""0"",""0""
""focus"",""1"",""22583""
""fullscreenenter"",""1"",""23229""
","""event"",""trial"",""time""
""blur"",""0"",""0""
","""event"",""trial"",""time""
""focus"",""1"",""22583""
","""event"",""trial"",""time""
""fullscreenenter"",""1"",""23229""
","
",,null,run_exp/static/audio/clip_2_move.m4a,null,,,,,,,,,,,,,,,,,,,,,,,,
welcome_dec,4,65096,0.0-4.0,"""event"",""trial"",""time""
""blur"",""0"",""0""
""focus"",""1"",""22583""
""fullscreenenter"",""1"",""23229""
","""event"",""trial"",""time""
""blur"",""0"",""0""
","""event"",""trial"",""time""
""focus"",""1"",""22583""
","""event"",""trial"",""time""
""fullscreenenter"",""1"",""23229""
","
",,14047.5,"<p>Howdy! In this experiment, you’ll be an explorer traveling through space to collect space treasure.</p><p>Your mission is to collect as much treasure as possible.</p><br><br><p><img src='run_exp/static/images/task_images/opening_img-01.jpg' height='300' width='auto'></p>",,,,,,,0,,,,,,,,,,,,,,,,,,
html-keyboard-response,5,68369,0.0-5.0,"""event"",""trial"",""time""
""blur"",""0"",""0""
""focus"",""1"",""22583""
""fullscreenenter"",""1"",""23229""
","""event"",""trial"",""time""
""blur"",""0"",""0""
","""event"",""trial"",""time""
""focus"",""1"",""22583""
","""event"",""trial"",""time""
""fullscreenenter"",""1"",""23229""
","
",,3271,"<p>Howdy! In this experiment, you’ll be an explorer traveling through space to collect space treasure.</p><p>Your mission is to collect as much treasure as possible.</p><br><br><p><img src='run_exp/static/images/task_images/opening_img-01.jpg' height='300' width='auto'></p><button class=""jspsych-html-btn-chosen""><img src=""run_exp/static/images/task_images/planet-01.jpg"" height=""50""></button><button class=""jspsych-html-btn-unchosen""><img src=""run_exp/static/images/task_images/planet-02.jpg"" height=""50""></button><p><b>[press the space bar to lock in your answer]<b><br></p>",32,,,,,,,,,,,,,,,,,,,,,,,,
instruc_welcome,6,78366,0.0-6.0-0.0,"""event"",""trial"",""time""
""blur"",""0"",""0""
""focus"",""1"",""22583""
""fullscreenenter"",""1"",""23229""
","""event"",""trial"",""time""
""blur"",""0"",""0""
","""event"",""trial"",""time""
""focus"",""1"",""22583""
","""event"",""trial"",""time""
""fullscreenenter"",""1"",""23229""
","
",,null,run_exp/static/audio/clip_1_welcome.m4a,null,"<p>Howdy! In this experiment, you’ll be an explorer traveling through space to collect space treasure.</p><p>Your mission is to collect as much treasure as possible.</p><br><br><p><img src='run_exp/static/images/task_images/opening_img-01.jpg' height='300' width='auto'></p>",7926,42,21,Female,,,,,,,,,,,,,,,,,,,
audio-keyboard-response,7,95136,0.0-6.0-1.0,"""event"",""trial"",""time""
""blur"",""0"",""0""
""focus"",""1"",""22583""
""fullscreenenter"",""1"",""23229""
","""event"",""trial"",""time""
""blur"",""0"",""0""
","""event"",""trial"",""time""
""focus"",""1"",""22583""
","""event"",""trial"",""time""
""fullscreenenter"",""1"",""23229""
","
",,null,run_exp/static/audio/clip_2_move.m4a,null,,,,,,,,,,,,,,,,,,,,,,,,
welcome_dec,8,96183,0.0-6.0-2.0,"""event"",""trial"",""time""
""blur"",""0"",""0""
""focus"",""1"",""22583""
""fullscreenenter"",""1"",""23229""
","""event"",""trial"",""time""
""blur"",""0"",""0""
","""event"",""trial"",""time""
""focus"",""1"",""22583""
","""event"",""trial"",""time""
""fullscreenenter"",""1"",""23229""
","
",,1045.4,"<p>Howdy! In this experiment, you’ll be an explorer traveling through space to collect space treasure.</p><p>Your mission is to collect as much treasure as possible.</p><br><br><p><img src='run_exp/static/images/task_images/opening_img-01.jpg' height='300' width='auto'></p>",,,,,,,1,,,,,,,,,,,,,,,,,,
html-keyboard-response,9,96852,0.0-6.0-3.0,"""event"",""trial"",""time""
""blur"",""0"",""0""
""focus"",""1"",""22583""
""fullscreenenter"",""1"",""23229""
","""event"",""trial"",""time""
""blur"",""0"",""0""
","""event"",""trial"",""time""
""focus"",""1"",""22583""
","""event"",""trial"",""time""
""fullscreenenter"",""1"",""23229""
","
",,667.6,"<p>Howdy! In this experiment, you’ll be an explorer traveling through space to collect space treasure.</p><p>Your mission is to collect as much treasure as possible.</p><br><br><p><img src='run_exp/static/images/task_images/opening_img-01.jpg' height='300' width='auto'></p><button class=""jspsych-html-btn-unchosen""><img src=""run_exp/static/images/task_images/planet-01.jpg"" height=""50""></button><button class=""jspsych-html-btn-chosen""><img src=""run_exp/static/images/task_images/planet-02.jpg"" height=""50""></button><p><b>[press the space bar to lock in your answer]<b><br></p>",32,,,,,,,,,,,,,,,,,,,,,,,,
instruc_goal,10,107066,0.0-7.0-0.0,"""event"",""trial"",""time""
""blur"",""0"",""0""
""focus"",""1"",""22583""
""fullscreenenter"",""1"",""23229""
","""event"",""trial"",""time""
""blur"",""0"",""0""
","""event"",""trial"",""time""
""focus"",""1"",""22583""
","""event"",""trial"",""time""
""fullscreenenter"",""1"",""23229""
","
",,null,run_exp/static/audio/clip_3_goal.m4a,null,"<p> As a space explorer, you’ll visit different planets to dig for space treasure, these pink gems.</p> <p> The more treasure you dig up, the more bonus money you’ll win! </p><br><br><p><img src='run_exp/static/images/task_images/pink_gem.jpg' height='300' width='auto'></p>",,,,,,,,,,,,,,,,,,,,,,,
instruc_goal,11,121885,0.0-7.0-1.0,"""event"",""trial"",""time""
""blur"",""0"",""0""
""focus"",""1"",""22583""
""fullscreenenter"",""1"",""23229""
","""event"",""trial"",""time""
""blur"",""0"",""0""
","""event"",""trial"",""time""
""focus"",""1"",""22583""
","""event"",""trial"",""time""
""fullscreenenter"",""1"",""23229""
","
",,14817.1,"<p> As a space explorer, you’ll visit different planets to dig for space treasure, these pink gems.</p> <p> The more treasure you dig up, the more bonus money you’ll win! </p><br><br><p><img src='run_exp/static/images/task_images/pink_gem.jpg' height='300' width='auto'></p>",,,,,,,1,,,,,,,,,,,,,,,,,,
html-keyboard-response,12,122854,0.0-7.0-2.0,"""event"",""trial"",""time""
""blur"",""0"",""0""
""focus"",""1"",""22583""
""fullscreenenter"",""1"",""23229""
","""event"",""trial"",""time""
""blur"",""0"",""0""
","""event"",""trial"",""time""
""focus"",""1"",""22583""
","""event"",""trial"",""time""
""fullscreenenter"",""1"",""23229""
","
",,967.6999999,"<p> As a space explorer, you’ll visit different planets to dig for space treasure, these pink gems.</p> <p> The more treasure you dig up, the more bonus money you’ll win! </p><br><br><p><img src='run_exp/static/images/task_images/pink_gem.jpg' height='300' width='auto'></p><button class=""jspsych-html-btn-unchosen""><img src=""run_exp/static/images/task_images/planet-01.jpg"" height=""50""></button><button class=""jspsych-html-btn-chosen""><img src=""run_exp/static/images/task_images/planet-02.jpg"" height=""50""></button><p><b>[press the space bar to lock in your answer]<b><br></p>",32,,,,,,,,,,,,,,,,,,,,,,,,
instruc_dig,13,139077,0.0-8.0-0.0,"""event"",""trial"",""time""
""blur"",""0"",""0""
""focus"",""1"",""22583""
""fullscreenenter"",""1"",""23229""
","""event"",""trial"",""time""
""blur"",""0"",""0""
","""event"",""trial"",""time""
""focus"",""1"",""22583""
","""event"",""trial"",""time""
""fullscreenenter"",""1"",""23229""
","
",,null,run_exp/static/audio/clip_4_dig.m4a,null,,,,,,,100,,,,,,,,,,,,,,,,,
instruc_dig_try,14,140318,0.0-8.0-1.0,"""event"",""trial"",""time""
""blur"",""0"",""0""
""focus"",""1"",""22583""
""fullscreenenter"",""1"",""23229""
","""event"",""trial"",""time""
""blur"",""0"",""0""
","""event"",""trial"",""time""
""focus"",""1"",""22583""
","""event"",""trial"",""time""
""fullscreenenter"",""1"",""23229""
","
",,1239.3,"<p> When you’ve arrived at a new planet, you will dig once. </p> <p>Then, you get to decide if you want to stay on the planet and dig again or travel to a new planet and dig there.</p> <p> To stay and dig, press the letter <strong>‘A’</strong> on your keyboard. Try pressing it now! </p><p><img src='run_exp/static/images/task_images/land.jpg'  height='700' width='auto'></p>",65,"<p> When you’ve arrived at a new planet, you will dig once. </p> <p>Then, you get to decide if you want to stay on the planet and dig again or travel to a new planet and dig there.</p> <p> To stay and dig, press the letter <strong>‘A’</strong> on your keyboard. Try pressing it now! </p><p><img src='run_exp/static/images/task_images/land.jpg'  height='700' width='auto'></p>",,,,,,100,,,,,,,,,,,,,,,,,
dig_prac,15,142335,0.0-8.0-2.0,"""event"",""trial"",""time""
""blur"",""0"",""0""
""focus"",""1"",""22583""
""fullscreenenter"",""1"",""23229""
","""event"",""trial"",""time""
""blur"",""0"",""0""
","""event"",""trial"",""time""
""focus"",""1"",""22583""
","""event"",""trial"",""time""
""fullscreenenter"",""1"",""23229""
","
",,,,,,,,,,,,"[{""stimulus"":""run_exp/static/images/task_images/dig.jpg"",""time"":0.19999992847442627},{""stimulus"":""run_exp/static/images/task_images/land.jpg"",""time"":676},{""stimulus"":""run_exp/static/images/task_images/dig.jpg"",""time"":1336}]",[],,,,,,,,,,,,,,,
instruc_travel,16,178738,0.0-8.0-3.0,"""event"",""trial"",""time""
""blur"",""0"",""0""
""focus"",""1"",""22583""
""fullscreenenter"",""1"",""23229""
","""event"",""trial"",""time""
""blur"",""0"",""0""
","""event"",""trial"",""time""
""focus"",""1"",""22583""
","""event"",""trial"",""time""
""fullscreenenter"",""1"",""23229""
","
",,null,run_exp/static/audio/clip_5_travel.m4a,null,"<p>Every time you dig up gems, there are less gems on the planet, so the more you dig on a planet the fewer gems you’ll get with each dig.</p><p>When gems are running low, you may want to travel to a new planet. </p> <p>  Planets are very far apart in this galaxy, so it will take some time to travel between them. </p> <br><p>There are lots and lots of planets for you to visit, so you won’t be able to return to any planets you’ve seen before. </p><br><p>To leave this planet and travel to a new one, press the letter <strong>‘L’</strong> on your keyboard. Try pressing it now! </p><p><img src='run_exp/static/images/task_images/rocket-01.jpg'  height='600' width='auto'></p>",,,,,,,,,,,,,,,,,,,,,,,
instruc_travel_try,17,179510,0.0-8.0-4.0,"""event"",""trial"",""time""
""blur"",""0"",""0""
""focus"",""1"",""22583""
""fullscreenenter"",""1"",""23229""
","""event"",""trial"",""time""
""blur"",""0"",""0""
","""event"",""trial"",""time""
""focus"",""1"",""22583""
","""event"",""trial"",""time""
""fullscreenenter"",""1"",""23229""
","
",,771,"<p>Every time you dig up gems, there are less gems on the planet, so the more you dig on a planet the fewer gems you’ll get with each dig.</p><p>When gems are running low, you may want to travel to a new planet. </p> <p>  Planets are very far apart in this galaxy, so it will take some time to travel between them. </p> <br><p>There are lots and lots of planets for you to visit, so you won’t be able to return to any planets you’ve seen before. </p><br><p>To leave this planet and travel to a new one, press the letter <strong>‘L’</strong> on your keyboard. Try pressing it now! </p><p><img src='run_exp/static/images/task_images/rocket-01.jpg'  height='600' width='auto'></p>",76,"<p>Every time you dig up gems, there are less gems on the planet, so the more you dig on a planet the fewer gems you’ll get with each dig.</p><p>When gems are running low, you may want to travel to a new planet. </p> <p>  Planets are very far apart in this galaxy, so it will take some time to travel between them. </p> <br><p>There are lots and lots of planets for you to visit, so you won’t be able to return to any planets you’ve seen before. </p><br><p>To leave this planet and travel to a new one, press the letter <strong>‘L’</strong> on your keyboard. Try pressing it now! </p><p><img src='run_exp/static/images/task_images/rocket-01.jpg'  height='600' width='auto'></p>",,,,,,,,,,,,,,,,,,,,,,,
travel_prac,18,189520,0.0-8.0-5.0,"""event"",""trial"",""time""
""blur"",""0"",""0""
""focus"",""1"",""22583""
""fullscreenenter"",""1"",""23229""
","""event"",""trial"",""time""
""blur"",""0"",""0""
","""event"",""trial"",""time""
""focus"",""1"",""22583""
","""event"",""trial"",""time""
""fullscreenenter"",""1"",""23229""
","
",,,,,,,,,,,,"[{""stimulus"":""run_exp/static/images/task_images/rocket-01.jpg"",""time"":0.20000004768371582},{""stimulus"":""run_exp/static/images/task_images/rocket-02.jpg"",""time"":1116.3999999761581},{""stimulus"":""run_exp/static/images/task_images/rocket-03.jpg"",""time"":2232.7000000476837},{""stimulus"":""run_exp/static/images/task_images/rocket-04.jpg"",""time"":3339.8000000715256},{""stimulus"":""run_exp/static/images/task_images/rocket-05.jpg"",""time"":4456.700000047684},{""stimulus"":""run_exp/static/images/task_images/rocket-06.jpg"",""time"":5563.800000071526},{""stimulus"":""run_exp/static/images/task_images/rocket-07.jpg"",""time"":6671.600000023842},{""stimulus"":""run_exp/static/images/task_images/rocket-08.jpg"",""time"":7782.399999976158},{""stimulus"":""run_exp/static/images/task_images/rocket-09.jpg"",""time"":8896.700000047684}]",[],0,,,,,,,,,,,,,,
instruc_alien_greet,19,216868,0.0-8.0-6.0,"""event"",""trial"",""time""
""blur"",""0"",""0""
""focus"",""1"",""22583""
""fullscreenenter"",""1"",""23229""
","""event"",""trial"",""time""
""blur"",""0"",""0""
","""event"",""trial"",""time""
""focus"",""1"",""22583""
","""event"",""trial"",""time""
""fullscreenenter"",""1"",""23229""
","
",,null,run_exp/static/audio/clip_6_alien.m4a,null,"<p>When you arrive at a new planet, the alien who owns the treasure mine on that planet will greet you!</p><p>The better an alien takes care of their mine the easier it is to dig for gems. Some aliens take better care of their mine than others. So, you won’t get exactly the same amount of gems on each planet.</p><p>What the alien looks like does not tell you anything about how many gems there are on the planet.</p><br><p><img src=""run_exp/static/images/task_images/aliens/instructions_aliens/planet/alien_planet-1.jpg""  height=""600"" width=""auto""></p>",,,,,,,,,,,,,,,,,,,,,,,
instruc_alien_greet,20,232394,0.0-8.0-7.0,"""event"",""trial"",""time""
""blur"",""0"",""0""
""focus"",""1"",""22583""
""fullscreenenter"",""1"",""23229""
","""event"",""trial"",""time""
""blur"",""0"",""0""
","""event"",""trial"",""time""
""focus"",""1"",""22583""
","""event"",""trial"",""time""
""fullscreenenter"",""1"",""23229""
","
",,15523.4,"<p>When you arrive at a new planet, the alien who owns the treasure mine on that planet will greet you!</p><p>The better an alien takes care of their mine the easier it is to dig for gems. Some aliens take better care of their mine than others. So, you won’t get exactly the same amount of gems on each planet.</p><p>What the alien looks like does not tell you anything about how many gems there are on the planet.</p><br><p><img src=""run_exp/static/images/task_images/aliens/instructions_aliens/planet/alien_planet-1.jpg""  height=""600"" width=""auto""></p>",,,,,,,1,,,,,,,,,,,,,,,,,,
html-keyboard-response,21,232721,0.0-8.0-8.0,"""event"",""trial"",""time""
""blur"",""0"",""0""
""focus"",""1"",""22583""
""fullscreenenter"",""1"",""23229""
","""event"",""trial"",""time""
""blur"",""0"",""0""
","""event"",""trial"",""time""
""focus"",""1"",""22583""
","""event"",""trial"",""time""
""fullscreenenter"",""1"",""23229""
","
",,325.9,"<p>When you arrive at a new planet, the alien who owns the treasure mine on that planet will greet you!</p><p>The better an alien takes care of their mine the easier it is to dig for gems. Some aliens take better care of their mine than others. So, you won’t get exactly the same amount of gems on each planet.</p><p>What the alien looks like does not tell you anything about how many gems there are on the planet.</p><br><p><img src=""run_exp/static/images/task_images/aliens/instructions_aliens/planet/alien_planet-1.jpg""  height=""600"" width=""auto""></p><button class=""jspsych-html-btn-unchosen""><img src=""run_exp/static/images/task_images/planet-01.jpg"" height=""50""></button><button class=""jspsych-html-btn-chosen""><img src=""run_exp/static/images/task_images/planet-02.jpg"" height=""50""></button><p><b>[press the space bar to lock in your answer]<b><br></p>",32,,,,,,,,,,,,,,,,,,,,,,,,
time_out,22,244047,0.0-9.0-0.0,"""event"",""trial"",""time""
""blur"",""0"",""0""
""focus"",""1"",""22583""
""fullscreenenter"",""1"",""23229""
","""event"",""trial"",""time""
""blur"",""0"",""0""
","""event"",""trial"",""time""
""focus"",""1"",""22583""
","""event"",""trial"",""time""
""fullscreenenter"",""1"",""23229""
","
",,null,run_exp/static/audio/clip_7_timeout.m4a,null,"<p>If you don't make your choice fast enough, you’ll have to wait a few seconds before you can make another one.</p><p>You can’t dig for more gems or travel to new planets. You just have to sit and wait.</p><br><p><img src='run_exp/static/images/task_images/time_out.jpg'  height='600' width='auto'></p>",,,,,,,,,,,,,,,,,,,,,,,
time_out,23,246160,0.0-9.0-1.0,"""event"",""trial"",""time""
""blur"",""0"",""0""
""focus"",""1"",""22583""
""fullscreenenter"",""1"",""23229""
","""event"",""trial"",""time""
""blur"",""0"",""0""
","""event"",""trial"",""time""
""focus"",""1"",""22583""
","""event"",""trial"",""time""
""fullscreenenter"",""1"",""23229""
","
",,2111.7,"<p>If you don't make your choice fast enough, you’ll have to wait a few seconds before you can make another one.</p><p>You can’t dig for more gems or travel to new planets. You just have to sit and wait.</p><br><p><img src='run_exp/static/images/task_images/time_out.jpg'  height='600' width='auto'></p>",,,,,,,1,,,,,,,,,,,,,,,,,,
html-keyboard-response,24,246314,0.0-9.0-2.0,"""event"",""trial"",""time""
""blur"",""0"",""0""
""focus"",""1"",""22583""
""fullscreenenter"",""1"",""23229""
","""event"",""trial"",""time""
""blur"",""0"",""0""
","""event"",""trial"",""time""
""focus"",""1"",""22583""
","""event"",""trial"",""time""
""fullscreenenter"",""1"",""23229""
","
",,152.8,"<p>If you don't make your choice fast enough, you’ll have to wait a few seconds before you can make another one.</p><p>You can’t dig for more gems or travel to new planets. You just have to sit and wait.</p><br><p><img src='run_exp/static/images/task_images/time_out.jpg'  height='600' width='auto'></p><button class=""jspsych-html-btn-unchosen""><img src=""run_exp/static/images/task_images/planet-01.jpg"" height=""50""></button><button class=""jspsych-html-btn-chosen""><img src=""run_exp/static/images/task_images/planet-02.jpg"" height=""50""></button><p><b>[press the space bar to lock in your answer]<b><br></p>",32,,,,,,,,,,,,,,,,,,,,,,,,
instruc_break,25,262158,0.0-10.0-0.0,"""event"",""trial"",""time""
""blur"",""0"",""0""
""focus"",""1"",""22583""
""fullscreenenter"",""1"",""23229""
","""event"",""trial"",""time""
""blur"",""0"",""0""
","""event"",""trial"",""time""
""focus"",""1"",""22583""
","""event"",""trial"",""time""
""fullscreenenter"",""1"",""23229""
","
",,null,run_exp/static/audio/clip_8_break.m4a,null,"<p> After digging and traveling for a while, you’ll be able to take a break at home base. </p><p>The game will last 20 minutes no matter what.</p><p>You will visit home base every 5 minutes, so, you will visit home base three times during the game.</p><br><p><img src='run_exp/static/images/task_images/home_base.jpg' height='600' width='auto'></p>",,,,,,,,,,,,,,,,,,,,,,,
instruc_break,26,263361,0.0-10.0-1.0,"""event"",""trial"",""time""
""blur"",""0"",""0""
""focus"",""1"",""22583""
""fullscreenenter"",""1"",""23229""
","""event"",""trial"",""time""
""blur"",""0"",""0""
","""event"",""trial"",""time""
""focus"",""1"",""22583""
","""event"",""trial"",""time""
""fullscreenenter"",""1"",""23229""
","
",,1201.8,"<p> After digging and traveling for a while, you’ll be able to take a break at home base. </p><p>The game will last 20 minutes no matter what.</p><p>You will visit home base every 5 minutes, so, you will visit home base three times during the game.</p><br><p><img src='run_exp/static/images/task_images/home_base.jpg' height='600' width='auto'></p>",,,,,,,1,,,,,,,,,,,,,,,,,,
html-keyboard-response,27,263669,0.0-10.0-2.0,"""event"",""trial"",""time""
""blur"",""0"",""0""
""focus"",""1"",""22583""
""fullscreenenter"",""1"",""23229""
","""event"",""trial"",""time""
""blur"",""0"",""0""
","""event"",""trial"",""time""
""focus"",""1"",""22583""
","""event"",""trial"",""time""
""fullscreenenter"",""1"",""23229""
","
",,306.6,"<p> After digging and traveling for a while, you’ll be able to take a break at home base. </p><p>The game will last 20 minutes no matter what.</p><p>You will visit home base every 5 minutes, so, you will visit home base three times during the game.</p><br><p><img src='run_exp/static/images/task_images/home_base.jpg' height='600' width='auto'></p><button class=""jspsych-html-btn-unchosen""><img src=""run_exp/static/images/task_images/planet-01.jpg"" height=""50""></button><button class=""jspsych-html-btn-chosen""><img src=""run_exp/static/images/task_images/planet-02.jpg"" height=""50""></button><p><b>[press the space bar to lock in your answer]<b><br></p>",32,,,,,,,,,,,,,,,,,,,,,,,,
instruc_prac_game,28,273978,0.0-11.0-0.0,"""event"",""trial"",""time""
""blur"",""0"",""0""
""focus"",""1"",""22583""
""fullscreenenter"",""1"",""23229""
","""event"",""trial"",""time""
""blur"",""0"",""0""
","""event"",""trial"",""time""
""focus"",""1"",""22583""
","""event"",""trial"",""time""
""fullscreenenter"",""1"",""23229""
","
",,null,run_exp/static/audio/clip_9_practice.m4a,null,"<p> Are you ready to play a practice game? </p> <p>In this practice game, you'll be digging up barrels of gems. But, in the real game, you'll be digging up the gems themselves. </p>",,,,,,,,,,,,,,,,,,,,,,,
html-button-response,29,275109,0.0-11.0-1.0,"""event"",""trial"",""time""
""blur"",""0"",""0""
""focus"",""1"",""22583""
""fullscreenenter"",""1"",""23229""
","""event"",""trial"",""time""
""blur"",""0"",""0""
","""event"",""trial"",""time""
""focus"",""1"",""22583""
","""event"",""trial"",""time""
""fullscreenenter"",""1"",""23229""
","
",,1129.9,"<p> Are you ready to play a practice game? </p> <p>In this practice game, you'll be digging up barrels of gems. But, in the real game, you'll be digging up the gems themselves. </p>",,,,,,,0,,,,,,,,,,,,,,,,,,
alien_welcome_prac,30,280117,0.0-12.0-0.0,"""event"",""trial"",""time""
""blur"",""0"",""0""
""focus"",""1"",""22583""
""fullscreenenter"",""1"",""23229""
","""event"",""trial"",""time""
""blur"",""0"",""0""
","""event"",""trial"",""time""
""focus"",""1"",""22583""
","""event"",""trial"",""time""
""fullscreenenter"",""1"",""23229""
","
",,null,run_exp/static/images/task_images/aliens/practice_aliens/planet/alien_planet-5.jpg,null,,,,,,,,,,,,,,,,,,,,,,,,
land_prac,31,280623,0.0-12.0-1.0,"""event"",""trial"",""time""
""blur"",""0"",""0""
""focus"",""1"",""22583""
""fullscreenenter"",""1"",""23229""
","""event"",""trial"",""time""
""blur"",""0"",""0""
","""event"",""trial"",""time""
""focus"",""1"",""22583""
","""event"",""trial"",""time""
""fullscreenenter"",""1"",""23229""
","
",,null,run_exp/static/images/task_images/land.jpg,null,,,,,,,104,,,0,,,,,,,,,,,,,,
dig_prac,32,282633,0.0-12.0-2.0,"""event"",""trial"",""time""
""blur"",""0"",""0""
""focus"",""1"",""22583""
""fullscreenenter"",""1"",""23229""
","""event"",""trial"",""time""
""blur"",""0"",""0""
","""event"",""trial"",""time""
""focus"",""1"",""22583""
","""event"",""trial"",""time""
""fullscreenenter"",""1"",""23229""
","
",,,,,,,,,,,,"[{""stimulus"":""run_exp/static/images/task_images/dig.jpg"",""time"":0.20000004768371582},{""stimulus"":""run_exp/static/images/task_images/land.jpg"",""time"":680.7000000476837},{""stimulus"":""run_exp/static/images/task_images/dig.jpg"",""time"":1340.6000000238419}]",[],,,,,,,,,,,,,,,
harvest_prac,33,283637,0.0-12.0-3.0,"""event"",""trial"",""time""
""blur"",""0"",""0""
""focus"",""1"",""22583""
""fullscreenenter"",""1"",""23229""
","""event"",""trial"",""time""
""blur"",""0"",""0""
","""event"",""trial"",""time""
""focus"",""1"",""22583""
","""event"",""trial"",""time""
""fullscreenenter"",""1"",""23229""
","
",,null,run_exp/static/images/task_images/barrel_text.jpg,null,,,,,,,,,,,,,,,,,,,,,,,,
decision_prac,34,284590,0.0-12.0-4.0,"""event"",""trial"",""time""
""blur"",""0"",""0""
""focus"",""1"",""22583""
""fullscreenenter"",""1"",""23229""
","""event"",""trial"",""time""
""blur"",""0"",""0""
","""event"",""trial"",""time""
""focus"",""1"",""22583""
","""event"",""trial"",""time""
""fullscreenenter"",""1"",""23229""
","
",,952.3,run_exp/static/images/task_images/land.jpg,65,,,,,,,,,,,1,,,,,,,,,,,,,
dig_prac,35,286598,0.0-13.0-0.0,"""event"",""trial"",""time""
""blur"",""0"",""0""
""focus"",""1"",""22583""
""fullscreenenter"",""1"",""23229""
","""event"",""trial"",""time""
""blur"",""0"",""0""
","""event"",""trial"",""time""
""focus"",""1"",""22583""
","""event"",""trial"",""time""
""fullscreenenter"",""1"",""23229""
","
",,,,,,,,,,,,"[{""stimulus"":""run_exp/static/images/task_images/dig.jpg"",""time"":0.09999990463256836},{""stimulus"":""run_exp/static/images/task_images/land.jpg"",""time"":671.7999999523163},{""stimulus"":""run_exp/static/images/task_images/dig.jpg"",""time"":1340}]",[],,,,,,,,,,,,,,,
harvest_prac,36,287607,0.0-13.0-1.0,"""event"",""trial"",""time""
""blur"",""0"",""0""
""focus"",""1"",""22583""
""fullscreenenter"",""1"",""23229""
","""event"",""trial"",""time""
""blur"",""0"",""0""
","""event"",""trial"",""time""
""focus"",""1"",""22583""
","""event"",""trial"",""time""
""fullscreenenter"",""1"",""23229""
","
",,null,run_exp/static/images/task_images/barrel_text.jpg,null,,,,,,,,,,,,,,,,,,,,,,,,
decision_prac,37,287985,0.0-13.0-2.0,"""event"",""trial"",""time""
""blur"",""0"",""0""
""focus"",""1"",""22583""
""fullscreenenter"",""1"",""23229""
","""event"",""trial"",""time""
""blur"",""0"",""0""
","""event"",""trial"",""time""
""focus"",""1"",""22583""
","""event"",""trial"",""time""
""fullscreenenter"",""1"",""23229""
","
",,376.6,run_exp/static/images/task_images/land.jpg,65,,,,,,,,,,,2,,,,,,,,,,,,,
dig_prac,38,290000,0.0-14.0-0.0,"""event"",""trial"",""time""
""blur"",""0"",""0""
""focus"",""1"",""22583""
""fullscreenenter"",""1"",""23229""
","""event"",""trial"",""time""
""blur"",""0"",""0""
","""event"",""trial"",""time""
""focus"",""1"",""22583""
","""event"",""trial"",""time""
""fullscreenenter"",""1"",""23229""
","
",,,,,,,,,,,,"[{""stimulus"":""run_exp/static/images/task_images/dig.jpg"",""time"":0.10000002384185791},{""stimulus"":""run_exp/static/images/task_images/land.jpg"",""time"":677.1000000238419},{""stimulus"":""run_exp/static/images/task_images/dig.jpg"",""time"":1339.8000000715256}]",[],,,,,,,,,,,,,,,
harvest_prac,39,291008,0.0-14.0-1.0,"""event"",""trial"",""time""
""blur"",""0"",""0""
""focus"",""1"",""22583""
""fullscreenenter"",""1"",""23229""
","""event"",""trial"",""time""
""blur"",""0"",""0""
","""event"",""trial"",""time""
""focus"",""1"",""22583""
","""event"",""trial"",""time""
""fullscreenenter"",""1"",""23229""
","
",,null,run_exp/static/images/task_images/barrel_text.jpg,null,,,,,,,,,,,,,,,,,,,,,,,,
decision_prac,40,291494,0.0-14.0-2.0,"""event"",""trial"",""time""
""blur"",""0"",""0""
""focus"",""1"",""22583""
""fullscreenenter"",""1"",""23229""
","""event"",""trial"",""time""
""blur"",""0"",""0""
","""event"",""trial"",""time""
""focus"",""1"",""22583""
","""event"",""trial"",""time""
""fullscreenenter"",""1"",""23229""
","
",,485.4,run_exp/static/images/task_images/land.jpg,65,,,,,,,,,,,3,,,,,,,,,,,,,
dig_prac,41,293503,0.0-15.0-0.0,"""event"",""trial"",""time""
""blur"",""0"",""0""
""focus"",""1"",""22583""
""fullscreenenter"",""1"",""23229""
","""event"",""trial"",""time""
""blur"",""0"",""0""
","""event"",""trial"",""time""
""focus"",""1"",""22583""
","""event"",""trial"",""time""
""fullscreenenter"",""1"",""23229""
","
",,,,,,,,,,,,"[{""stimulus"":""run_exp/static/images/task_images/dig.jpg"",""time"":0.09999990463256836},{""stimulus"":""run_exp/static/images/task_images/land.jpg"",""time"":669.1999999284744},{""stimulus"":""run_exp/static/images/task_images/dig.jpg"",""time"":1336.3999999761581}]",[],,,,,,,,,,,,,,,
harvest_prac,42,294513,0.0-15.0-1.0,"""event"",""trial"",""time""
""blur"",""0"",""0""
""focus"",""1"",""22583""
""fullscreenenter"",""1"",""23229""
","""event"",""trial"",""time""
""blur"",""0"",""0""
","""event"",""trial"",""time""
""focus"",""1"",""22583""
","""event"",""trial"",""time""
""fullscreenenter"",""1"",""23229""
","
",,null,run_exp/static/images/task_images/barrel_text.jpg,null,,,,,,,,,,,,,,,,,,,,,,,,
decision_prac,43,295082,0.0-15.0-2.0,"""event"",""trial"",""time""
""blur"",""0"",""0""
""focus"",""1"",""22583""
""fullscreenenter"",""1"",""23229""
","""event"",""trial"",""time""
""blur"",""0"",""0""
","""event"",""trial"",""time""
""focus"",""1"",""22583""
","""event"",""trial"",""time""
""fullscreenenter"",""1"",""23229""
","
",,567.3000001,run_exp/static/images/task_images/land.jpg,65,,,,,,,,,,,4,,,,,,,,,,,,,
dig_prac,44,297095,0.0-16.0-0.0,"""event"",""trial"",""time""
""blur"",""0"",""0""
""focus"",""1"",""22583""
""fullscreenenter"",""1"",""23229""
","""event"",""trial"",""time""
""blur"",""0"",""0""
","""event"",""trial"",""time""
""focus"",""1"",""22583""
","""event"",""trial"",""time""
""fullscreenenter"",""1"",""23229""
","
",,,,,,,,,,,,"[{""stimulus"":""run_exp/static/images/task_images/dig.jpg"",""time"":0.10000002384185791},{""stimulus"":""run_exp/static/images/task_images/land.jpg"",""time"":675.5},{""stimulus"":""run_exp/static/images/task_images/dig.jpg"",""time"":1338.7999999523163}]",[],,,,,,,,,,,,,,,
harvest_prac,45,298104,0.0-16.0-1.0,"""event"",""trial"",""time""
""blur"",""0"",""0""
""focus"",""1"",""22583""
""fullscreenenter"",""1"",""23229""
","""event"",""trial"",""time""
""blur"",""0"",""0""
","""event"",""trial"",""time""
""focus"",""1"",""22583""
","""event"",""trial"",""time""
""fullscreenenter"",""1"",""23229""
","
",,null,run_exp/static/images/task_images/barrel_text.jpg,null,,,,,,,,,,,,,,,,,,,,,,,,
decision_prac,46,298565,0.0-16.0-2.0,"""event"",""trial"",""time""
""blur"",""0"",""0""
""focus"",""1"",""22583""
""fullscreenenter"",""1"",""23229""
","""event"",""trial"",""time""
""blur"",""0"",""0""
","""event"",""trial"",""time""
""focus"",""1"",""22583""
","""event"",""trial"",""time""
""fullscreenenter"",""1"",""23229""
","
",,460.1,run_exp/static/images/task_images/land.jpg,65,,,,,,,,,,,,1,,,,,,,,,,,,
quiz_instruc,47,300805,0.0-17.0-0.0,"""event"",""trial"",""time""
""blur"",""0"",""0""
""focus"",""1"",""22583""
""fullscreenenter"",""1"",""23229""
","""event"",""trial"",""time""
""blur"",""0"",""0""
","""event"",""trial"",""time""
""focus"",""1"",""22583""
","""event"",""trial"",""time""
""fullscreenenter"",""1"",""23229""
","
",,2237.5,run_exp/static/audio/clip_10_quiz.m4a,,,,,,,0,,,,,,,,,,,,,,,,,,
instruc_repeat,48,343729,0.0-17.0-1.0,"""event"",""trial"",""time""
""blur"",""0"",""0""
""focus"",""1"",""22583""
""fullscreenenter"",""1"",""23229""
","""event"",""trial"",""time""
""blur"",""0"",""0""
","""event"",""trial"",""time""
""focus"",""1"",""22583""
","""event"",""trial"",""time""
""fullscreenenter"",""1"",""23229""
","
",,null,"<p> Are you ready to play a practice game? </p> <p>In this practice game, you'll be digging up barrels of gems. But, in the real game, you'll be digging up the gems themselves. </p>",null,"<p>In this game, your goal is to collect as many gems as you can. That’s how you will win bonus money. </p> <p>The entire game will last 20 minutes no matter how many gems you collect or how many planets you visit. </p><p>To stay on a planet and dig again, press the letter A on your keyboard. To leave for a new planet, press the letter L.</p><p>The more you dig on a planet, the fewer gems you’ll get with each dig which is why you might consider leaving for a new planet. </p><p>When you arrive at a new planet, you’ll be greeted by an alien. What the alien looks like does not tell you anything about how much treasure is on the planet. </p>",,,,,,,,,,,,,,,,,,,,,,,
instruc_repeat_continue,49,345271,0.0-17.0-2.0,"""event"",""trial"",""time""
""blur"",""0"",""0""
""focus"",""1"",""22583""
""fullscreenenter"",""1"",""23229""
","""event"",""trial"",""time""
""blur"",""0"",""0""
","""event"",""trial"",""time""
""focus"",""1"",""22583""
","""event"",""trial"",""time""
""fullscreenenter"",""1"",""23229""
","
",,1541.2,"<p> Are you ready to play a practice game? </p> <p>In this practice game, you'll be digging up barrels of gems. But, in the real game, you'll be digging up the gems themselves. </p>",,,,,,,0,,,,,,,,,,,,,,,,,,
quiz_q_1_ask,50,347992,0.0-17.0-3.0,"""event"",""trial"",""time""
""blur"",""0"",""0""
""focus"",""1"",""22583""
""fullscreenenter"",""1"",""23229""
","""event"",""trial"",""time""
""blur"",""0"",""0""
","""event"",""trial"",""time""
""focus"",""1"",""22583""
","""event"",""trial"",""time""
""fullscreenenter"",""1"",""23229""
","
",,2719.8,run_exp/static/audio/clip_11_q1_ask.m4a,,,,,,,2,,,,,,,,,,,,,,,,,,
quiz_q_1_fb_correct,51,351999,0.0-18.0-0.0,"""event"",""trial"",""time""
""blur"",""0"",""0""
""focus"",""1"",""22583""
""fullscreenenter"",""1"",""23229""
","""event"",""trial"",""time""
""blur"",""0"",""0""
","""event"",""trial"",""time""
""focus"",""1"",""22583""
","""event"",""trial"",""time""
""fullscreenenter"",""1"",""23229""
","
",,null,run_exp/static/audio/clip_12_q1_correct.m4a,null,<p>That’s correct. You win extra money by collecting more gems.</p>,,,,,,,,,,,,,,,,,,,,,,,
quiz_q_2_ask,52,353969,0.0-18.0-1.0,"""event"",""trial"",""time""
""blur"",""0"",""0""
""focus"",""1"",""22583""
""fullscreenenter"",""1"",""23229""
","""event"",""trial"",""time""
""blur"",""0"",""0""
","""event"",""trial"",""time""
""focus"",""1"",""22583""
","""event"",""trial"",""time""
""fullscreenenter"",""1"",""23229""
","
",,1968.8,run_exp/static/audio/clip_14_q2_ask.m4a,,,,,,,1,,,,,,,,,,,,,,,,,,
quiz_q_2_fb_correct,53,358129,0.0-19.0-0.0,"""event"",""trial"",""time""
""blur"",""0"",""0""
""focus"",""1"",""22583""
""fullscreenenter"",""1"",""23229""
","""event"",""trial"",""time""
""blur"",""0"",""0""
","""event"",""trial"",""time""
""focus"",""1"",""22583""
","""event"",""trial"",""time""
""fullscreenenter"",""1"",""23229""
","
",,null,run_exp/static/audio/clip_15_q2_correct.m4a,null,<p>That’s correct. The experiment is 20 minutes no matter what.</p>,,,,,,,,,,,,,,,,,,,,,,,
quiz_q_3_ask,54,361220,0.0-19.0-1.0,"""event"",""trial"",""time""
""blur"",""0"",""0""
""focus"",""1"",""22583""
""fullscreenenter"",""1"",""23229""
","""event"",""trial"",""time""
""blur"",""0"",""0""
","""event"",""trial"",""time""
""focus"",""1"",""22583""
","""event"",""trial"",""time""
""fullscreenenter"",""1"",""23229""
","
",,3089.7,run_exp/static/audio/clip_17_q3_ask.m4a,,,,,,,1,,,,,,,,,,,,,,,,,,
quiz_q_3_fb_correct,55,365359,0.0-20.0-0.0,"""event"",""trial"",""time""
""blur"",""0"",""0""
""focus"",""1"",""22583""
""fullscreenenter"",""1"",""23229""
","""event"",""trial"",""time""
""blur"",""0"",""0""
","""event"",""trial"",""time""
""focus"",""1"",""22583""
","""event"",""trial"",""time""
""fullscreenenter"",""1"",""23229""
","
",,null,run_exp/static/audio/clip_18_q3_correct.m4a,null,<p> That’s correct. You press the letter L to travel to a new planet.</p>,,,,,,,,,,,,,,,,,,,,,,,
quiz_q_4_ask,56,367403,0.0-20.0-1.0,"""event"",""trial"",""time""
""blur"",""0"",""0""
""focus"",""1"",""22583""
""fullscreenenter"",""1"",""23229""
","""event"",""trial"",""time""
""blur"",""0"",""0""
","""event"",""trial"",""time""
""focus"",""1"",""22583""
","""event"",""trial"",""time""
""fullscreenenter"",""1"",""23229""
","
",,2042.9,run_exp/static/audio/clip_20_q4_ask.m4a,,,,,,,0,,,,,,,,,,,,,,,,,,
quiz_q_4_fb_correct,57,372888,0.0-21.0-0.0,"""event"",""trial"",""time""
""blur"",""0"",""0""
""focus"",""1"",""22583""
""fullscreenenter"",""1"",""23229""
","""event"",""trial"",""time""
""blur"",""0"",""0""
","""event"",""trial"",""time""
""focus"",""1"",""22583""
","""event"",""trial"",""time""
""fullscreenenter"",""1"",""23229""
","
",,null,run_exp/static/audio/clip_21_q4_correct.m4a,null,<p> That’s correct. The more you dig on a planet the fewer gems you’ll get with each dig. </p>,,,,,,,,,,,,,,,,,,,,,,,
quiz_q_5_ask,58,374667,0.0-21.0-1.0,"""event"",""trial"",""time""
""blur"",""0"",""0""
""focus"",""1"",""22583""
""fullscreenenter"",""1"",""23229""
","""event"",""trial"",""time""
""blur"",""0"",""0""
","""event"",""trial"",""time""
""focus"",""1"",""22583""
","""event"",""trial"",""time""
""fullscreenenter"",""1"",""23229""
","
",,1777.6,run_exp/static/audio/clip_23_q5_ask.m4a,,,,,,,1,,,,,,,,,,,,,,,,,,
quiz_q_5_fb_correct,59,379819,0.0-22.0-0.0,"""event"",""trial"",""time""
""blur"",""0"",""0""
""focus"",""1"",""22583""
""fullscreenenter"",""1"",""23229""
","""event"",""trial"",""time""
""blur"",""0"",""0""
","""event"",""trial"",""time""
""focus"",""1"",""22583""
","""event"",""trial"",""time""
""fullscreenenter"",""1"",""23229""
","
",,null,run_exp/static/audio/clip_24_q5_correct.m4a,null,<p> That’s correct. The alien tells you nothing about how much treasure is on the planet.</p>,,,,,,,,,,,,,,,,,,,,,,,
quiz_correct,60,383449,0.0-23.0-0.0,"""event"",""trial"",""time""
""blur"",""0"",""0""
""focus"",""1"",""22583""
""fullscreenenter"",""1"",""23229""
","""event"",""trial"",""time""
""blur"",""0"",""0""
","""event"",""trial"",""time""
""focus"",""1"",""22583""
","""event"",""trial"",""time""
""fullscreenenter"",""1"",""23229""
","
",,null,run_exp/static/audio/clip_26_correct_quiz.m4a,null,,,,,,,,,,,,,,,,,,,,,,,,
quiz_correct_continue,61,384248,0.0-23.0-1.0,"""event"",""trial"",""time""
""blur"",""0"",""0""
""focus"",""1"",""22583""
""fullscreenenter"",""1"",""23229""
","""event"",""trial"",""time""
""blur"",""0"",""0""
","""event"",""trial"",""time""
""focus"",""1"",""22583""
","""event"",""trial"",""time""
""fullscreenenter"",""1"",""23229""
","
",,797.4,<p>Good job! You're now ready to move on to the real game!</p>,,,,,,,0,,,,,,,,,,,,,,,,,,
audio-keyboard-response,62,394519,0.0-23.0-2.0,"""event"",""trial"",""time""
""blur"",""0"",""0""
""focus"",""1"",""22583""
""fullscreenenter"",""1"",""23229""
","""event"",""trial"",""time""
""blur"",""0"",""0""
","""event"",""trial"",""time""
""focus"",""1"",""22583""
","""event"",""trial"",""time""
""fullscreenenter"",""1"",""23229""
","
",,null,run_exp/static/audio/clip_28_real_game.m4a,null,,,,,,,,,,,,,,,,,,,,,,,,
instruc_begin_exp_contine,63,395297,0.0-23.0-3.0,"""event"",""trial"",""time""
""blur"",""0"",""0""
""focus"",""1"",""22583""
""fullscreenenter"",""1"",""23229""
","""event"",""trial"",""time""
""blur"",""0"",""0""
","""event"",""trial"",""time""
""focus"",""1"",""22583""
","""event"",""trial"",""time""
""fullscreenenter"",""1"",""23229""
","
",,776.1,"<p>Now that you know how  to dig for space treasure and travel to new planets,you can start exploring! </p><p>Do you want to go over the instructions again or get started with the real game?</p>",,,,,,,1,,,,,,1,,,,,,,,,,,,
alien_welcome,64,400303,0.0-24.0-0.0,"""event"",""trial"",""time""
""blur"",""0"",""0""
""focus"",""1"",""22583""
""fullscreenenter"",""1"",""23229""
","""event"",""trial"",""time""
""blur"",""0"",""0""
","""event"",""trial"",""time""
""focus"",""1"",""22583""
","""event"",""trial"",""time""
""fullscreenenter"",""1"",""23229""
","
",,null,run_exp/static/images/task_images/aliens/old_aliens/planet/alien_planet-7.jpg,null,,,,,,,,,,,,,7,"7,20,5,22,15,61,76,54,68,77,4,80,73,66,6,17,32,30,72,2,49,29,58,1,24,26,50,62,19,64",,,,,,,,,,
land,65,400807,0.0-24.0-1.0,"""event"",""trial"",""time""
""blur"",""0"",""0""
""focus"",""1"",""22583""
""fullscreenenter"",""1"",""23229""
","""event"",""trial"",""time""
""blur"",""0"",""0""
","""event"",""trial"",""time""
""focus"",""1"",""22583""
","""event"",""trial"",""time""
""fullscreenenter"",""1"",""23229""
","
",,null,run_exp/static/images/task_images/land.jpg,null,,,,,,,98,,,1,,,,,,,,,,,,,,
dig,66,402819,0.0-24.0-2.0,"""event"",""trial"",""time""
""blur"",""0"",""0""
""focus"",""1"",""22583""
""fullscreenenter"",""1"",""23229""
","""event"",""trial"",""time""
""blur"",""0"",""0""
","""event"",""trial"",""time""
""focus"",""1"",""22583""
","""event"",""trial"",""time""
""fullscreenenter"",""1"",""23229""
","
",,,,,,,,,,,,"[{""stimulus"":""run_exp/static/images/task_images/dig.jpg"",""time"":0.30000007152557373},{""stimulus"":""run_exp/static/images/task_images/land.jpg"",""time"":670.8000000715256},{""stimulus"":""run_exp/static/images/task_images/dig.jpg"",""time"":1342.7000000476837}]",[],1,,,,,,,,,,,,,,
harvest,67,403824,0.0-24.0-3.0,"""event"",""trial"",""time""
""blur"",""0"",""0""
""focus"",""1"",""22583""
""fullscreenenter"",""1"",""23229""
","""event"",""trial"",""time""
""blur"",""0"",""0""
","""event"",""trial"",""time""
""focus"",""1"",""22583""
","""event"",""trial"",""time""
""fullscreenenter"",""1"",""23229""
","
",,null,run_exp/static/images/task_images/gems/98.jpg,null,,,,,,,19,,,1,,,,,98,0.191314802,0.193877551,,,,,,,
decision,68,404389,0.0-24.0-4.0,"""event"",""trial"",""time""
""blur"",""0"",""0""
""focus"",""1"",""22583""
""fullscreenenter"",""1"",""23229""
","""event"",""trial"",""time""
""blur"",""0"",""0""
","""event"",""trial"",""time""
""focus"",""1"",""22583""
","""event"",""trial"",""time""
""fullscreenenter"",""1"",""23229""
","
",,563.7,run_exp/static/images/task_images/land.jpg,65,,,,,,,19,,,1,,,,,,,,9091,1,0,FALSE,,,
dig,69,406835,0.0-25.0-0.0,"""event"",""trial"",""time""
""blur"",""0"",""0""
""focus"",""1"",""22583""
""fullscreenenter"",""1"",""23229""
","""event"",""trial"",""time""
""blur"",""0"",""0""
","""event"",""trial"",""time""
""focus"",""1"",""22583""
","""event"",""trial"",""time""
""fullscreenenter"",""1"",""23229""
","
",,,,,,,,,,,,"[{""stimulus"":""run_exp/static/images/task_images/dig.jpg"",""time"":0.19999992847442627},{""stimulus"":""run_exp/static/images/task_images/land.jpg"",""time"":814.8999999761581},{""stimulus"":""run_exp/static/images/task_images/dig.jpg"",""time"":1632.6999999284744}]",[],1,,,,,,,,,,,,,,
harvest,70,407838,0.0-25.0-1.0,"""event"",""trial"",""time""
""blur"",""0"",""0""
""focus"",""1"",""22583""
""fullscreenenter"",""1"",""23229""
","""event"",""trial"",""time""
""blur"",""0"",""0""
","""event"",""trial"",""time""
""focus"",""1"",""22583""
","""event"",""trial"",""time""
""fullscreenenter"",""1"",""23229""
","
",,null,run_exp/static/images/task_images/gems/19.jpg,null,,,,,,,4,,,1,,,,,19,0.184211913,0.210526316,,,,,,,
decision,71,408210,0.0-25.0-2.0,"""event"",""trial"",""time""
""blur"",""0"",""0""
""focus"",""1"",""22583""
""fullscreenenter"",""1"",""23229""
","""event"",""trial"",""time""
""blur"",""0"",""0""
","""event"",""trial"",""time""
""focus"",""1"",""22583""
","""event"",""trial"",""time""
""fullscreenenter"",""1"",""23229""
","
",,371.5,run_exp/static/images/task_images/land.jpg,65,,,,,,,4,,,1,,,,,,,,12912,1,1,FALSE,,,
dig,72,410846,0.0-26.0-0.0,"""event"",""trial"",""time""
""blur"",""0"",""0""
""focus"",""1"",""22583""
""fullscreenenter"",""1"",""23229""
","""event"",""trial"",""time""
""blur"",""0"",""0""
","""event"",""trial"",""time""
""focus"",""1"",""22583""
","""event"",""trial"",""time""
""fullscreenenter"",""1"",""23229""
","
",,,,,,,,,,,,"[{""stimulus"":""run_exp/static/images/task_images/dig.jpg"",""time"":0.10000002384185791},{""stimulus"":""run_exp/static/images/task_images/land.jpg"",""time"":884},{""stimulus"":""run_exp/static/images/task_images/dig.jpg"",""time"":1759}]",[],1,,,,,,,,,,,,,,
harvest,73,411854,0.0-26.0-1.0,"""event"",""trial"",""time""
""blur"",""0"",""0""
""focus"",""1"",""22583""
""fullscreenenter"",""1"",""23229""
","""event"",""trial"",""time""
""blur"",""0"",""0""
","""event"",""trial"",""time""
""focus"",""1"",""22583""
","""event"",""trial"",""time""
""fullscreenenter"",""1"",""23229""
","
",,null,run_exp/static/images/task_images/gems/4.jpg,null,,,,,,,1,,,1,,,,,4,0.194605327,0.25,,,,,,,
decision,74,412260,0.0-26.0-2.0,"""event"",""trial"",""time""
""blur"",""0"",""0""
""focus"",""1"",""22583""
""fullscreenenter"",""1"",""23229""
","""event"",""trial"",""time""
""blur"",""0"",""0""
","""event"",""trial"",""time""
""focus"",""1"",""22583""
","""event"",""trial"",""time""
""fullscreenenter"",""1"",""23229""
","
",,404.8,run_exp/static/images/task_images/land.jpg,65,,,,,,,1,,,1,,,,,,,,16962,1,2,FALSE,,,
dig,75,414863,0.0-27.0-0.0,"""event"",""trial"",""time""
""blur"",""0"",""0""
""focus"",""1"",""22583""
""fullscreenenter"",""1"",""23229""
","""event"",""trial"",""time""
""blur"",""0"",""0""
","""event"",""trial"",""time""
""focus"",""1"",""22583""
","""event"",""trial"",""time""
""fullscreenenter"",""1"",""23229""
","
",,,,,,,,,,,,"[{""stimulus"":""run_exp/static/images/task_images/dig.jpg"",""time"":0.20000004768371582},{""stimulus"":""run_exp/static/images/task_images/land.jpg"",""time"":872.7000000476837},{""stimulus"":""run_exp/static/images/task_images/dig.jpg"",""time"":1737}]",[],1,,,,,,,,,,,,,,
harvest,76,415870,0.0-27.0-1.0,"""event"",""trial"",""time""
""blur"",""0"",""0""
""focus"",""1"",""22583""
""fullscreenenter"",""1"",""23229""
","""event"",""trial"",""time""
""blur"",""0"",""0""
","""event"",""trial"",""time""
""focus"",""1"",""22583""
","""event"",""trial"",""time""
""fullscreenenter"",""1"",""23229""
","
",,null,run_exp/static/images/task_images/gems/1.jpg,null,,,,,,,0,,,1,,,,,1,0.2336006,0,,,,,,,
decision,77,416282,0.0-27.0-2.0,"""event"",""trial"",""time""
""blur"",""0"",""0""
""focus"",""1"",""22583""
""fullscreenenter"",""1"",""23229""
","""event"",""trial"",""time""
""blur"",""0"",""0""
","""event"",""trial"",""time""
""focus"",""1"",""22583""
","""event"",""trial"",""time""
""fullscreenenter"",""1"",""23229""
","
",,411.4,run_exp/static/images/task_images/land.jpg,65,,,,,,,0,,,1,,,,,,,,20985,1,3,FALSE,,,
dig,78,418883,0.0-28.0-0.0,"""event"",""trial"",""time""
""blur"",""0"",""0""
""focus"",""1"",""22583""
""fullscreenenter"",""1"",""23229""
","""event"",""trial"",""time""
""blur"",""0"",""0""
","""event"",""trial"",""time""
""focus"",""1"",""22583""
","""event"",""trial"",""time""
""fullscreenenter"",""1"",""23229""
","
",,,,,,,,,,,,"[{""stimulus"":""run_exp/static/images/task_images/dig.jpg"",""time"":0.10000002384185791},{""stimulus"":""run_exp/static/images/task_images/land.jpg"",""time"":869.5},{""stimulus"":""run_exp/static/images/task_images/dig.jpg"",""time"":1732.6000000238419}]",[],1,,,,,,,,,,,,,,
harvest,79,419887,0.0-28.0-1.0,"""event"",""trial"",""time""
""blur"",""0"",""0""
""focus"",""1"",""22583""
""fullscreenenter"",""1"",""23229""
","""event"",""trial"",""time""
""blur"",""0"",""0""
","""event"",""trial"",""time""
""focus"",""1"",""22583""
","""event"",""trial"",""time""
""fullscreenenter"",""1"",""23229""
","
",,null,run_exp/static/images/task_images/gems/0.jpg,null,,,,,,,0,,,1,,,,,0,0.123528406,NaN,,,,,,,
decision,80,420084,0.0-28.0-2.0,"""event"",""trial"",""time""
""blur"",""0"",""0""
""focus"",""1"",""22583""
""fullscreenenter"",""1"",""23229""
","""event"",""trial"",""time""
""blur"",""0"",""0""
","""event"",""trial"",""time""
""focus"",""1"",""22583""
","""event"",""trial"",""time""
""fullscreenenter"",""1"",""23229""
","
",,196.5,run_exp/static/images/task_images/land.jpg,65,,,,,,,0,,,1,,,,,,,,24786,1,4,FALSE,,,
dig,81,422899,0.0-29.0-0.0,"""event"",""trial"",""time""
""blur"",""0"",""0""
""focus"",""1"",""22583""
""fullscreenenter"",""1"",""23229""
","""event"",""trial"",""time""
""blur"",""0"",""0""
","""event"",""trial"",""time""
""focus"",""1"",""22583""
","""event"",""trial"",""time""
""fullscreenenter"",""1"",""23229""
","
",,,,,,,,,,,,"[{""stimulus"":""run_exp/static/images/task_images/dig.jpg"",""time"":0.10000002384185791},{""stimulus"":""run_exp/static/images/task_images/land.jpg"",""time"":939.4000000953674},{""stimulus"":""run_exp/static/images/task_images/dig.jpg"",""time"":1873.6000000238419}]",[],1,,,,,,,,,,,,,,
harvest,82,423902,0.0-29.0-1.0,"""event"",""trial"",""time""
""blur"",""0"",""0""
""focus"",""1"",""22583""
""fullscreenenter"",""1"",""23229""
","""event"",""trial"",""time""
""blur"",""0"",""0""
","""event"",""trial"",""time""
""focus"",""1"",""22583""
","""event"",""trial"",""time""
""fullscreenenter"",""1"",""23229""
","
",,null,run_exp/static/images/task_images/gems/0.jpg,null,,,,,,,0,,,1,,,,,0,0.211785531,NaN,,,,,,,
decision,83,424079,0.0-29.0-2.0,"""event"",""trial"",""time""
""blur"",""0"",""0""
""focus"",""1"",""22583""
""fullscreenenter"",""1"",""23229""
","""event"",""trial"",""time""
""blur"",""0"",""0""
","""event"",""trial"",""time""
""focus"",""1"",""22583""
","""event"",""trial"",""time""
""fullscreenenter"",""1"",""23229""
","
",,175.1999999,run_exp/static/images/task_images/land.jpg,76,,,,,,,0,,,1,,,,,,,,28781,1,5,TRUE,,,
travel,84,433903,0.0-30.0-0.0,"""event"",""trial"",""time""
""blur"",""0"",""0""
""focus"",""1"",""22583""
""fullscreenenter"",""1"",""23229""
","""event"",""trial"",""time""
""blur"",""0"",""0""
","""event"",""trial"",""time""
""focus"",""1"",""22583""
","""event"",""trial"",""time""
""fullscreenenter"",""1"",""23229""
","
",,,,,,,,,,,,"[{""stimulus"":""run_exp/static/images/task_images/rocket-01.jpg"",""time"":0.10000002384185791},{""stimulus"":""run_exp/static/images/task_images/rocket-02.jpg"",""time"":1096.8999999761581},{""stimulus"":""run_exp/static/images/task_images/rocket-03.jpg"",""time"":2186.7000000476837},{""stimulus"":""run_exp/static/images/task_images/rocket-04.jpg"",""time"":3278.2999999523163},{""stimulus"":""run_exp/static/images/task_images/rocket-05.jpg"",""time"":4368.399999976158},{""stimulus"":""run_exp/static/images/task_images/rocket-06.jpg"",""time"":5462.700000047684},{""stimulus"":""run_exp/static/images/task_images/rocket-07.jpg"",""time"":6549.799999952316},{""stimulus"":""run_exp/static/images/task_images/rocket-08.jpg"",""time"":7646.600000023842},{""stimulus"":""run_exp/static/images/task_images/rocket-09.jpg"",""time"":8738.600000023842}]",[],1,,,,,,,,,,,,,,
alien_welcome,85,438911,0.0-30.0-1.0,"""event"",""trial"",""time""
""blur"",""0"",""0""
""focus"",""1"",""22583""
""fullscreenenter"",""1"",""23229""
","""event"",""trial"",""time""
""blur"",""0"",""0""
","""event"",""trial"",""time""
""focus"",""1"",""22583""
","""event"",""trial"",""time""
""fullscreenenter"",""1"",""23229""
","
",,null,run_exp/static/images/task_images/aliens/old_aliens/planet/alien_planet-20.jpg,null,,,,,,,,,,,,,20,"7,20,5,22,15,61,76,54,68,77,4,80,73,66,6,17,32,30,72,2,49,29,58,1,24,26,50,62,19,64",,,,,,,,,,
land,86,439415,0.0-30.0-2.0,"""event"",""trial"",""time""
""blur"",""0"",""0""
""focus"",""1"",""22583""
""fullscreenenter"",""1"",""23229""
","""event"",""trial"",""time""
""blur"",""0"",""0""
","""event"",""trial"",""time""
""focus"",""1"",""22583""
","""event"",""trial"",""time""
""fullscreenenter"",""1"",""23229""
","
",,null,run_exp/static/images/task_images/land.jpg,null,,,,,,,106,,,2,,,,,,,,,,,,,,
dig,87,441425,0.0-30.0-3.0,"""event"",""trial"",""time""
""blur"",""0"",""0""
""focus"",""1"",""22583""
""fullscreenenter"",""1"",""23229""
","""event"",""trial"",""time""
""blur"",""0"",""0""
","""event"",""trial"",""time""
""focus"",""1"",""22583""
","""event"",""trial"",""time""
""fullscreenenter"",""1"",""23229""
","
",,,,,,,,,,,,"[{""stimulus"":""run_exp/static/images/task_images/dig.jpg"",""time"":0.19999992847442627},{""stimulus"":""run_exp/static/images/task_images/land.jpg"",""time"":673.0999999046326},{""stimulus"":""run_exp/static/images/task_images/dig.jpg"",""time"":1334.8999999761581}]",[],2,,,,,,,,,,,,,,
harvest,88,442431,0.0-30.0-4.0,"""event"",""trial"",""time""
""blur"",""0"",""0""
""focus"",""1"",""22583""
""fullscreenenter"",""1"",""23229""
","""event"",""trial"",""time""
""blur"",""0"",""0""
","""event"",""trial"",""time""
""focus"",""1"",""22583""
","""event"",""trial"",""time""
""fullscreenenter"",""1"",""23229""
","
",,null,run_exp/static/images/task_images/gems/106.jpg,null,,,,,,,18,,,2,,,,,106,0.167127734,0.169811321,,,,,,,
decision,89,442868,0.0-30.0-5.0,"""event"",""trial"",""time""
""blur"",""0"",""0""
""focus"",""1"",""22583""
""fullscreenenter"",""1"",""23229""
","""event"",""trial"",""time""
""blur"",""0"",""0""
","""event"",""trial"",""time""
""focus"",""1"",""22583""
","""event"",""trial"",""time""
""fullscreenenter"",""1"",""23229""
","
",,436.1,run_exp/static/images/task_images/land.jpg,65,,,,,,,18,,,2,,,,,,,,47570,1,0,FALSE,,,
dig,90,445439,0.0-31.0-0.0,"""event"",""trial"",""time""
""blur"",""0"",""0""
""focus"",""1"",""22583""
""fullscreenenter"",""1"",""23229""
","""event"",""trial"",""time""
""blur"",""0"",""0""
","""event"",""trial"",""time""
""focus"",""1"",""22583""
","""event"",""trial"",""time""
""fullscreenenter"",""1"",""23229""
","
",,,,,,,,,,,,"[{""stimulus"":""run_exp/static/images/task_images/dig.jpg"",""time"":0.19999992847442627},{""stimulus"":""run_exp/static/images/task_images/land.jpg"",""time"":859.2999999523163},{""stimulus"":""run_exp/static/images/task_images/dig.jpg"",""time"":1715.7999999523163}]",[],2,,,,,,,,,,,,,,
harvest,91,446448,0.0-31.0-1.0,"""event"",""trial"",""time""
""blur"",""0"",""0""
""focus"",""1"",""22583""
""fullscreenenter"",""1"",""23229""
","""event"",""trial"",""time""
""blur"",""0"",""0""
","""event"",""trial"",""time""
""focus"",""1"",""22583""
","""event"",""trial"",""time""
""fullscreenenter"",""1"",""23229""
","
",,null,run_exp/static/images/task_images/gems/18.jpg,null,,,,,,,2,,,2,,,,,18,0.129365751,0.111111111,,,,,,,
decision,92,446760,0.0-31.0-2.0,"""event"",""trial"",""time""
""blur"",""0"",""0""
""focus"",""1"",""22583""
""fullscreenenter"",""1"",""23229""
","""event"",""trial"",""time""
""blur"",""0"",""0""
","""event"",""trial"",""time""
""focus"",""1"",""22583""
","""event"",""trial"",""time""
""fullscreenenter"",""1"",""23229""
","
",,310.9,run_exp/static/images/task_images/land.jpg,65,,,,,,,2,,,2,,,,,,,,51462,1,1,FALSE,,,
dig,93,449455,0.0-32.0-0.0,"""event"",""trial"",""time""
""blur"",""0"",""0""
""focus"",""1"",""22583""
""fullscreenenter"",""1"",""23229""
","""event"",""trial"",""time""
""blur"",""0"",""0""
","""event"",""trial"",""time""
""focus"",""1"",""22583""
","""event"",""trial"",""time""
""fullscreenenter"",""1"",""23229""
","
",,,,,,,,,,,,"[{""stimulus"":""run_exp/static/images/task_images/dig.jpg"",""time"":0.20000004768371582},{""stimulus"":""run_exp/static/images/task_images/land.jpg"",""time"":901.9000000953674},{""stimulus"":""run_exp/static/images/task_images/dig.jpg"",""time"":1797.5}]",[],2,,,,,,,,,,,,,,
harvest,94,450465,0.0-32.0-1.0,"""event"",""trial"",""time""
""blur"",""0"",""0""
""focus"",""1"",""22583""
""fullscreenenter"",""1"",""23229""
","""event"",""trial"",""time""
""blur"",""0"",""0""
","""event"",""trial"",""time""
""focus"",""1"",""22583""
","""event"",""trial"",""time""
""fullscreenenter"",""1"",""23229""
","
",,null,run_exp/static/images/task_images/gems/2.jpg,null,,,,,,,0,,,2,,,,,2,0.156574052,0,,,,,,,
decision,95,450958,0.0-32.0-2.0,"""event"",""trial"",""time""
""blur"",""0"",""0""
""focus"",""1"",""22583""
""fullscreenenter"",""1"",""23229""
","""event"",""trial"",""time""
""blur"",""0"",""0""
","""event"",""trial"",""time""
""focus"",""1"",""22583""
","""event"",""trial"",""time""
""fullscreenenter"",""1"",""23229""
","
",,491.4,run_exp/static/images/task_images/land.jpg,65,,,,,,,0,,,2,,,,,,,,55660,1,2,FALSE,,,
dig,96,453475,0.0-33.0-0.0,"""event"",""trial"",""time""
""blur"",""0"",""0""
""focus"",""1"",""22583""
""fullscreenenter"",""1"",""23229""
","""event"",""trial"",""time""
""blur"",""0"",""0""
","""event"",""trial"",""time""
""focus"",""1"",""22583""
","""event"",""trial"",""time""
""fullscreenenter"",""1"",""23229""
","
",,,,,,,,,,,,"[{""stimulus"":""run_exp/static/images/task_images/dig.jpg"",""time"":0},{""stimulus"":""run_exp/static/images/task_images/land.jpg"",""time"":839.3999999761581},{""stimulus"":""run_exp/static/images/task_images/dig.jpg"",""time"":1679.3999999761581}]",[],2,,,,,,,,,,,,,,
harvest,97,454482,0.0-33.0-1.0,"""event"",""trial"",""time""
""blur"",""0"",""0""
""focus"",""1"",""22583""
""fullscreenenter"",""1"",""23229""
","""event"",""trial"",""time""
""blur"",""0"",""0""
","""event"",""trial"",""time""
""focus"",""1"",""22583""
","""event"",""trial"",""time""
""fullscreenenter"",""1"",""23229""
","
",,null,run_exp/static/images/task_images/gems/0.jpg,null,,,,,,,0,,,2,,,,,0,0.307339556,NaN,,,,,,,
decision,98,454932,0.0-33.0-2.0,"""event"",""trial"",""time""
""blur"",""0"",""0""
""focus"",""1"",""22583""
""fullscreenenter"",""1"",""23229""
","""event"",""trial"",""time""
""blur"",""0"",""0""
","""event"",""trial"",""time""
""focus"",""1"",""22583""
","""event"",""trial"",""time""
""fullscreenenter"",""1"",""23229""
","
",,449,run_exp/static/images/task_images/land.jpg,76,,,,,,,0,,,2,,,,,,,,59634,1,3,TRUE,,,
travel,99,464490,0.0-34.0-0.0,"""event"",""trial"",""time""
""blur"",""0"",""0""
""focus"",""1"",""22583""
""fullscreenenter"",""1"",""23229""
","""event"",""trial"",""time""
""blur"",""0"",""0""
","""event"",""trial"",""time""
""focus"",""1"",""22583""
","""event"",""trial"",""time""
""fullscreenenter"",""1"",""23229""
","
",,,,,,,,,,,,"[{""stimulus"":""run_exp/static/images/task_images/rocket-01.jpg"",""time"":0.20000004768371582},{""stimulus"":""run_exp/static/images/task_images/rocket-02.jpg"",""time"":1065.5},{""stimulus"":""run_exp/static/images/task_images/rocket-03.jpg"",""time"":2131.4000000953674},{""stimulus"":""run_exp/static/images/task_images/rocket-04.jpg"",""time"":3189.5},{""stimulus"":""run_exp/static/images/task_images/rocket-05.jpg"",""time"":4251.600000023842},{""stimulus"":""run_exp/static/images/task_images/rocket-06.jpg"",""time"":5316.100000023842},{""stimulus"":""run_exp/static/images/task_images/rocket-07.jpg"",""time"":6369.900000095367},{""stimulus"":""run_exp/static/images/task_images/rocket-08.jpg"",""time"":7437},{""stimulus"":""run_exp/static/images/task_images/rocket-09.jpg"",""time"":8499}]",[],2,,,,,,,,,,,,,,
alien_welcome,100,469497,0.0-34.0-1.0,"""event"",""trial"",""time""
""blur"",""0"",""0""
""focus"",""1"",""22583""
""fullscreenenter"",""1"",""23229""
","""event"",""trial"",""time""
""blur"",""0"",""0""
","""event"",""trial"",""time""
""focus"",""1"",""22583""
","""event"",""trial"",""time""
""fullscreenenter"",""1"",""23229""
","
",,null,run_exp/static/images/task_images/aliens/old_aliens/planet/alien_planet-5.jpg,null,,,,,,,,,,,,,5,"7,20,5,22,15,61,76,54,68,77,4,80,73,66,6,17,32,30,72,2,49,29,58,1,24,26,50,62,19,64",,,,,,,,,,
land,101,470010,0.0-34.0-2.0,"""event"",""trial"",""time""
""blur"",""0"",""0""
""focus"",""1"",""22583""
""fullscreenenter"",""1"",""23229""
","""event"",""trial"",""time""
""blur"",""0"",""0""
","""event"",""trial"",""time""
""focus"",""1"",""22583""
","""event"",""trial"",""time""
""fullscreenenter"",""1"",""23229""
","
",,null,run_exp/static/images/task_images/land.jpg,null,,,,,,,95,,,3,,,,,,,,,,,,,,
dig,102,472015,0.0-34.0-3.0,"""event"",""trial"",""time""
""blur"",""0"",""0""
""focus"",""1"",""22583""
""fullscreenenter"",""1"",""23229""
","""event"",""trial"",""time""
""blur"",""0"",""0""
","""event"",""trial"",""time""
""focus"",""1"",""22583""
","""event"",""trial"",""time""
""fullscreenenter"",""1"",""23229""
","
",,,,,,,,,,,,"[{""stimulus"":""run_exp/static/images/task_images/dig.jpg"",""time"":0.30000007152557373},{""stimulus"":""run_exp/static/images/task_images/land.jpg"",""time"":680.4000000953674},{""stimulus"":""run_exp/static/images/task_images/dig.jpg"",""time"":1341.7000000476837}]",[],3,,,,,,,,,,,,,,
harvest,103,473026,0.0-34.0-4.0,"""event"",""trial"",""time""
""blur"",""0"",""0""
""focus"",""1"",""22583""
""fullscreenenter"",""1"",""23229""
","""event"",""trial"",""time""
""blur"",""0"",""0""
","""event"",""trial"",""time""
""focus"",""1"",""22583""
","""event"",""trial"",""time""
""fullscreenenter"",""1"",""23229""
","
",,null,run_exp/static/images/task_images/gems/95.jpg,null,,,,,,,45,,,3,,,,,95,0.476606872,0.473684211,,,,,,,
decision,104,473528,0.0-34.0-5.0,"""event"",""trial"",""time""
""blur"",""0"",""0""
""focus"",""1"",""22583""
""fullscreenenter"",""1"",""23229""
","""event"",""trial"",""time""
""blur"",""0"",""0""
","""event"",""trial"",""time""
""focus"",""1"",""22583""
","""event"",""trial"",""time""
""fullscreenenter"",""1"",""23229""
","
",,501.4,run_exp/static/images/task_images/land.jpg,65,,,,,,,45,,,3,,,,,,,,78230,1,0,FALSE,,,
dig,105,476034,0.0-35.0-0.0,"""event"",""trial"",""time""
""blur"",""0"",""0""
""focus"",""1"",""22583""
""fullscreenenter"",""1"",""23229""
","""event"",""trial"",""time""
""blur"",""0"",""0""
","""event"",""trial"",""time""
""focus"",""1"",""22583""
","""event"",""trial"",""time""
""fullscreenenter"",""1"",""23229""
","
",,,,,,,,,,,,"[{""stimulus"":""run_exp/static/images/task_images/dig.jpg"",""time"":0.10000002384185791},{""stimulus"":""run_exp/static/images/task_images/land.jpg"",""time"":839.3999999761581},{""stimulus"":""run_exp/static/images/task_images/dig.jpg"",""time"":1665.6000000238419}]",[],3,,,,,,,,,,,,,,
harvest,106,477039,0.0-35.0-1.0,"""event"",""trial"",""time""
""blur"",""0"",""0""
""focus"",""1"",""22583""
""fullscreenenter"",""1"",""23229""
","""event"",""trial"",""time""
""blur"",""0"",""0""
","""event"",""trial"",""time""
""focus"",""1"",""22583""
","""event"",""trial"",""time""
""fullscreenenter"",""1"",""23229""
","
",,null,run_exp/static/images/task_images/gems/45.jpg,null,,,,,,,21,,,3,,,,,45,0.470122602,0.466666667,,,,,,,
decision,107,477399,0.0-35.0-2.0,"""event"",""trial"",""time""
""blur"",""0"",""0""
""focus"",""1"",""22583""
""fullscreenenter"",""1"",""23229""
","""event"",""trial"",""time""
""blur"",""0"",""0""
","""event"",""trial"",""time""
""focus"",""1"",""22583""
","""event"",""trial"",""time""
""fullscreenenter"",""1"",""23229""
","
",,358.5,run_exp/static/images/task_images/land.jpg,65,,,,,,,21,,,3,,,,,,,,82101,1,1,FALSE,,,
dig,108,480050,0.0-36.0-0.0,"""event"",""trial"",""time""
""blur"",""0"",""0""
""focus"",""1"",""22583""
""fullscreenenter"",""1"",""23229""
","""event"",""trial"",""time""
""blur"",""0"",""0""
","""event"",""trial"",""time""
""focus"",""1"",""22583""
","""event"",""trial"",""time""
""fullscreenenter"",""1"",""23229""
","
",,,,,,,,,,,,"[{""stimulus"":""run_exp/static/images/task_images/dig.jpg"",""time"":0},{""stimulus"":""run_exp/static/images/task_images/land.jpg"",""time"":886},{""stimulus"":""run_exp/static/images/task_images/dig.jpg"",""time"":1769.3999999761581}]",[],3,,,,,,,,,,,,,,
harvest,109,481056,0.0-36.0-1.0,"""event"",""trial"",""time""
""blur"",""0"",""0""
""focus"",""1"",""22583""
""fullscreenenter"",""1"",""23229""
","""event"",""trial"",""time""
""blur"",""0"",""0""
","""event"",""trial"",""time""
""focus"",""1"",""22583""
","""event"",""trial"",""time""
""fullscreenenter"",""1"",""23229""
","
",,null,run_exp/static/images/task_images/gems/21.jpg,null,,,,,,,10,,,3,,,,,21,0.483469477,0.476190476,,,,,,,
decision,110,481577,0.0-36.0-2.0,"""event"",""trial"",""time""
""blur"",""0"",""0""
""focus"",""1"",""22583""
""fullscreenenter"",""1"",""23229""
","""event"",""trial"",""time""
""blur"",""0"",""0""
","""event"",""trial"",""time""
""focus"",""1"",""22583""
","""event"",""trial"",""time""
""fullscreenenter"",""1"",""23229""
","
",,520.4,run_exp/static/images/task_images/land.jpg,65,,,,,,,10,,,3,,,,,,,,86279,1,2,FALSE,,,
dig,111,484067,0.0-37.0-0.0,"""event"",""trial"",""time""
""blur"",""0"",""0""
""focus"",""1"",""22583""
""fullscreenenter"",""1"",""23229""
","""event"",""trial"",""time""
""blur"",""0"",""0""
","""event"",""trial"",""time""
""focus"",""1"",""22583""
","""event"",""trial"",""time""
""fullscreenenter"",""1"",""23229""
","
",,,,,,,,,,,,"[{""stimulus"":""run_exp/static/images/task_images/dig.jpg"",""time"":0.10000002384185791},{""stimulus"":""run_exp/static/images/task_images/land.jpg"",""time"":830.8999999761581},{""stimulus"":""run_exp/static/images/task_images/dig.jpg"",""time"":1660}]",[],3,,,,,,,,,,,,,,
harvest,112,485071,0.0-37.0-1.0,"""event"",""trial"",""time""
""blur"",""0"",""0""
""focus"",""1"",""22583""
""fullscreenenter"",""1"",""23229""
","""event"",""trial"",""time""
""blur"",""0"",""0""
","""event"",""trial"",""time""
""focus"",""1"",""22583""
","""event"",""trial"",""time""
""fullscreenenter"",""1"",""23229""
","
",,null,run_exp/static/images/task_images/gems/10.jpg,null,,,,,,,4,,,3,,,,,10,0.398308769,0.4,,,,,,,
decision,113,485437,0.0-37.0-2.0,"""event"",""trial"",""time""
""blur"",""0"",""0""
""focus"",""1"",""22583""
""fullscreenenter"",""1"",""23229""
","""event"",""trial"",""time""
""blur"",""0"",""0""
","""event"",""trial"",""time""
""focus"",""1"",""22583""
","""event"",""trial"",""time""
""fullscreenenter"",""1"",""23229""
","
",,365.1,run_exp/static/images/task_images/land.jpg,65,,,,,,,4,,,3,,,,,,,,90139,1,3,FALSE,,,
dig,114,488080,0.0-38.0-0.0,"""event"",""trial"",""time""
""blur"",""0"",""0""
""focus"",""1"",""22583""
""fullscreenenter"",""1"",""23229""
","""event"",""trial"",""time""
""blur"",""0"",""0""
","""event"",""trial"",""time""
""focus"",""1"",""22583""
","""event"",""trial"",""time""
""fullscreenenter"",""1"",""23229""
","
",,,,,,,,,,,,"[{""stimulus"":""run_exp/static/images/task_images/dig.jpg"",""time"":0.09999990463256836},{""stimulus"":""run_exp/static/images/task_images/land.jpg"",""time"":880.5999999046326},{""stimulus"":""run_exp/static/images/task_images/dig.jpg"",""time"":1760}]",[],3,,,,,,,,,,,,,,
harvest,115,489090,0.0-38.0-1.0,"""event"",""trial"",""time""
""blur"",""0"",""0""
""focus"",""1"",""22583""
""fullscreenenter"",""1"",""23229""
","""event"",""trial"",""time""
""blur"",""0"",""0""
","""event"",""trial"",""time""
""focus"",""1"",""22583""
","""event"",""trial"",""time""
""fullscreenenter"",""1"",""23229""
","
",,null,run_exp/static/images/task_images/gems/4.jpg,null,,,,,,,2,,,3,,,,,4,0.583415883,0.5,,,,,,,
decision,116,489406,0.0-38.0-2.0,"""event"",""trial"",""time""
""blur"",""0"",""0""
""focus"",""1"",""22583""
""fullscreenenter"",""1"",""23229""
","""event"",""trial"",""time""
""blur"",""0"",""0""
","""event"",""trial"",""time""
""focus"",""1"",""22583""
","""event"",""trial"",""time""
""fullscreenenter"",""1"",""23229""
","
",,314.8,run_exp/static/images/task_images/land.jpg,65,,,,,,,2,,,3,,,,,,,,94108,1,4,FALSE,,,
dig,117,492097,0.0-39.0-0.0,"""event"",""trial"",""time""
""blur"",""0"",""0""
""focus"",""1"",""22583""
""fullscreenenter"",""1"",""23229""
","""event"",""trial"",""time""
""blur"",""0"",""0""
","""event"",""trial"",""time""
""focus"",""1"",""22583""
","""event"",""trial"",""time""
""fullscreenenter"",""1"",""23229""
","
",,,,,,,,,,,,"[{""stimulus"":""run_exp/static/images/task_images/dig.jpg"",""time"":0.10000002384185791},{""stimulus"":""run_exp/static/images/task_images/land.jpg"",""time"":903.2999999523163},{""stimulus"":""run_exp/static/images/task_images/dig.jpg"",""time"":1791.6999999284744}]",[],3,,,,,,,,,,,,,,
harvest,118,493108,0.0-39.0-1.0,"""event"",""trial"",""time""
""blur"",""0"",""0""
""focus"",""1"",""22583""
""fullscreenenter"",""1"",""23229""
","""event"",""trial"",""time""
""blur"",""0"",""0""
","""event"",""trial"",""time""
""focus"",""1"",""22583""
","""event"",""trial"",""time""
""fullscreenenter"",""1"",""23229""
","
",,null,run_exp/static/images/task_images/gems/2.jpg,null,,,,,,,1,,,3,,,,,2,0.48171886,0.5,,,,,,,
decision,119,493449,0.0-39.0-2.0,"""event"",""trial"",""time""
""blur"",""0"",""0""
""focus"",""1"",""22583""
""fullscreenenter"",""1"",""23229""
","""event"",""trial"",""time""
""blur"",""0"",""0""
","""event"",""trial"",""time""
""focus"",""1"",""22583""
","""event"",""trial"",""time""
""fullscreenenter"",""1"",""23229""
","
",,339.9,run_exp/static/images/task_images/land.jpg,65,,,,,,,1,,,3,,,,,,,,98151,1,5,FALSE,,,
dig,120,496113,0.0-40.0-0.0,"""event"",""trial"",""time""
""blur"",""0"",""0""
""focus"",""1"",""22583""
""fullscreenenter"",""1"",""23229""
","""event"",""trial"",""time""
""blur"",""0"",""0""
","""event"",""trial"",""time""
""focus"",""1"",""22583""
","""event"",""trial"",""time""
""fullscreenenter"",""1"",""23229""
","
",,,,,,,,,,,,"[{""stimulus"":""run_exp/static/images/task_images/dig.jpg"",""time"":0.10000002384185791},{""stimulus"":""run_exp/static/images/task_images/land.jpg"",""time"":897},{""stimulus"":""run_exp/static/images/task_images/dig.jpg"",""time"":1785.1000000238419}]",[],3,,,,,,,,,,,,,,
harvest,121,497120,0.0-40.0-1.0,"""event"",""trial"",""time""
""blur"",""0"",""0""
""focus"",""1"",""22583""
""fullscreenenter"",""1"",""23229""
","""event"",""trial"",""time""
""blur"",""0"",""0""
","""event"",""trial"",""time""
""focus"",""1"",""22583""
","""event"",""trial"",""time""
""fullscreenenter"",""1"",""23229""
","
",,null,run_exp/static/images/task_images/gems/1.jpg,null,,,,,,,0,,,3,,,,,1,0.463817953,0,,,,,,,
decision,122,497430,0.0-40.0-2.0,"""event"",""trial"",""time""
""blur"",""0"",""0""
""focus"",""1"",""22583""
""fullscreenenter"",""1"",""23229""
","""event"",""trial"",""time""
""blur"",""0"",""0""
","""event"",""trial"",""time""
""focus"",""1"",""22583""
","""event"",""trial"",""time""
""fullscreenenter"",""1"",""23229""
","
",,308.4,run_exp/static/images/task_images/land.jpg,65,,,,,,,0,,,3,,,,,,,,102132,1,6,FALSE,,,
dig,123,500130,0.0-41.0-0.0,"""event"",""trial"",""time""
""blur"",""0"",""0""
""focus"",""1"",""22583""
""fullscreenenter"",""1"",""23229""
","""event"",""trial"",""time""
""blur"",""0"",""0""
","""event"",""trial"",""time""
""focus"",""1"",""22583""
","""event"",""trial"",""time""
""fullscreenenter"",""1"",""23229""
","
",,,,,,,,,,,,"[{""stimulus"":""run_exp/static/images/task_images/dig.jpg"",""time"":0},{""stimulus"":""run_exp/static/images/task_images/land.jpg"",""time"":907.2000000476837},{""stimulus"":""run_exp/static/images/task_images/dig.jpg"",""time"":1802.6000000238419}]",[],3,,,,,,,,,,,,,,
harvest,124,501138,0.0-41.0-1.0,"""event"",""trial"",""time""
""blur"",""0"",""0""
""focus"",""1"",""22583""
""fullscreenenter"",""1"",""23229""
","""event"",""trial"",""time""
""blur"",""0"",""0""
","""event"",""trial"",""time""
""focus"",""1"",""22583""
","""event"",""trial"",""time""
""fullscreenenter"",""1"",""23229""
","
",,null,run_exp/static/images/task_images/gems/0.jpg,null,,,,,,,0,,,3,,,,,0,0.466557262,NaN,,,,,,,
decision,125,501244,0.0-41.0-2.0,"""event"",""trial"",""time""
""blur"",""0"",""0""
""focus"",""1"",""22583""
""fullscreenenter"",""1"",""23229""
","""event"",""trial"",""time""
""blur"",""0"",""0""
","""event"",""trial"",""time""
""focus"",""1"",""22583""
","""event"",""trial"",""time""
""fullscreenenter"",""1"",""23229""
","
",,104.9,run_exp/static/images/task_images/land.jpg,76,,,,,,,0,,,3,,,,,,,,105946,1,7,TRUE,,,
travel,126,511143,0.0-42.0-0.0,"""event"",""trial"",""time""
""blur"",""0"",""0""
""focus"",""1"",""22583""
""fullscreenenter"",""1"",""23229""
","""event"",""trial"",""time""
""blur"",""0"",""0""
","""event"",""trial"",""time""
""focus"",""1"",""22583""
","""event"",""trial"",""time""
""fullscreenenter"",""1"",""23229""
","
",,,,,,,,,,,,"[{""stimulus"":""run_exp/static/images/task_images/rocket-01.jpg"",""time"":0.20000004768371582},{""stimulus"":""run_exp/static/images/task_images/rocket-02.jpg"",""time"":1108.9000000953674},{""stimulus"":""run_exp/static/images/task_images/rocket-03.jpg"",""time"":2201.5},{""stimulus"":""run_exp/static/images/task_images/rocket-04.jpg"",""time"":3307.7000000476837},{""stimulus"":""run_exp/static/images/task_images/rocket-05.jpg"",""time"":4402.400000095367},{""stimulus"":""run_exp/static/images/task_images/rocket-06.jpg"",""time"":5497.100000023842},{""stimulus"":""run_exp/static/images/task_images/rocket-07.jpg"",""time"":6602.900000095367},{""stimulus"":""run_exp/static/images/task_images/rocket-08.jpg"",""time"":7697.300000071526},{""stimulus"":""run_exp/static/images/task_images/rocket-09.jpg"",""time"":8794.300000071526}]",[],3,,,,,,,,,,,,,,
alien_welcome,127,516156,0.0-42.0-1.0,"""event"",""trial"",""time""
""blur"",""0"",""0""
""focus"",""1"",""22583""
""fullscreenenter"",""1"",""23229""
","""event"",""trial"",""time""
""blur"",""0"",""0""
","""event"",""trial"",""time""
""focus"",""1"",""22583""
","""event"",""trial"",""time""
""fullscreenenter"",""1"",""23229""
","
",,null,run_exp/static/images/task_images/aliens/old_aliens/planet/alien_planet-22.jpg,null,,,,,,,,,,,,,22,"7,20,5,22,15,61,76,54,68,77,4,80,73,66,6,17,32,30,72,2,49,29,58,1,24,26,50,62,19,64",,,,,,,,,,
land,128,516663,0.0-42.0-2.0,"""event"",""trial"",""time""
""blur"",""0"",""0""
""focus"",""1"",""22583""
""fullscreenenter"",""1"",""23229""
","""event"",""trial"",""time""
""blur"",""0"",""0""
","""event"",""trial"",""time""
""focus"",""1"",""22583""
","""event"",""trial"",""time""
""fullscreenenter"",""1"",""23229""
","
",,null,run_exp/static/images/task_images/land.jpg,null,,,,,,,106,,,4,,,,,,,,,,,,,,
dig,129,518672,0.0-42.0-3.0,"""event"",""trial"",""time""
""blur"",""0"",""0""
""focus"",""1"",""22583""
""fullscreenenter"",""1"",""23229""
","""event"",""trial"",""time""
""blur"",""0"",""0""
","""event"",""trial"",""time""
""focus"",""1"",""22583""
","""event"",""trial"",""time""
""fullscreenenter"",""1"",""23229""
","
",,,,,,,,,,,,"[{""stimulus"":""run_exp/static/images/task_images/dig.jpg"",""time"":0.2999999523162842},{""stimulus"":""run_exp/static/images/task_images/land.jpg"",""time"":671.6000000238419},{""stimulus"":""run_exp/static/images/task_images/dig.jpg"",""time"":1339.3999999761581}]",[],4,,,,,,,,,,,,,,
harvest,130,519684,0.0-42.0-4.0,"""event"",""trial"",""time""
""blur"",""0"",""0""
""focus"",""1"",""22583""
""fullscreenenter"",""1"",""23229""
","""event"",""trial"",""time""
""blur"",""0"",""0""
","""event"",""trial"",""time""
""focus"",""1"",""22583""
","""event"",""trial"",""time""
""fullscreenenter"",""1"",""23229""
","
",,null,run_exp/static/images/task_images/gems/106.jpg,null,,,,,,,55,,,4,,,,,106,0.51629863,0.518867925,,,,,,,
decision,131,520234,0.0-42.0-5.0,"""event"",""trial"",""time""
""blur"",""0"",""0""
""focus"",""1"",""22583""
""fullscreenenter"",""1"",""23229""
","""event"",""trial"",""time""
""blur"",""0"",""0""
","""event"",""trial"",""time""
""focus"",""1"",""22583""
","""event"",""trial"",""time""
""fullscreenenter"",""1"",""23229""
","
",,548.1,run_exp/static/images/task_images/land.jpg,65,,,,,,,55,,,4,,,,,,,,124936,1,0,FALSE,,,
dig,132,522700,0.0-43.0-0.0,"""event"",""trial"",""time""
""blur"",""0"",""0""
""focus"",""1"",""22583""
""fullscreenenter"",""1"",""23229""
","""event"",""trial"",""time""
""blur"",""0"",""0""
","""event"",""trial"",""time""
""focus"",""1"",""22583""
","""event"",""trial"",""time""
""fullscreenenter"",""1"",""23229""
","
",,,,,,,,,,,,"[{""stimulus"":""run_exp/static/images/task_images/dig.jpg"",""time"":0.10000002384185791},{""stimulus"":""run_exp/static/images/task_images/land.jpg"",""time"":820.1000000238419},{""stimulus"":""run_exp/static/images/task_images/dig.jpg"",""time"":1639.3000000715256}]",[],4,,,,,,,,,,,,,,
harvest,133,523704,0.0-43.0-1.0,"""event"",""trial"",""time""
""blur"",""0"",""0""
""focus"",""1"",""22583""
""fullscreenenter"",""1"",""23229""
","""event"",""trial"",""time""
""blur"",""0"",""0""
","""event"",""trial"",""time""
""focus"",""1"",""22583""
","""event"",""trial"",""time""
""fullscreenenter"",""1"",""23229""
","
",,null,run_exp/static/images/task_images/gems/55.jpg,null,,,,,,,26,,,4,,,,,55,0.475327023,0.472727273,,,,,,,
decision,134,524322,0.0-43.0-2.0,"""event"",""trial"",""time""
""blur"",""0"",""0""
""focus"",""1"",""22583""
""fullscreenenter"",""1"",""23229""
","""event"",""trial"",""time""
""blur"",""0"",""0""
","""event"",""trial"",""time""
""focus"",""1"",""22583""
","""event"",""trial"",""time""
""fullscreenenter"",""1"",""23229""
","
",,616.1,run_exp/static/images/task_images/land.jpg,65,,,,,,,26,,,4,,,,,,,,129024,1,1,FALSE,,,
dig,135,526716,0.0-44.0-0.0,"""event"",""trial"",""time""
""blur"",""0"",""0""
""focus"",""1"",""22583""
""fullscreenenter"",""1"",""23229""
","""event"",""trial"",""time""
""blur"",""0"",""0""
","""event"",""trial"",""time""
""focus"",""1"",""22583""
","""event"",""trial"",""time""
""fullscreenenter"",""1"",""23229""
","
",,,,,,,,,,,,"[{""stimulus"":""run_exp/static/images/task_images/dig.jpg"",""time"":0.19999992847442627},{""stimulus"":""run_exp/static/images/task_images/land.jpg"",""time"":800.7999999523163},{""stimulus"":""run_exp/static/images/task_images/dig.jpg"",""time"":1597.0999999046326}]",[],4,,,,,,,,,,,,,,
harvest,136,527721,0.0-44.0-1.0,"""event"",""trial"",""time""
""blur"",""0"",""0""
""focus"",""1"",""22583""
""fullscreenenter"",""1"",""23229""
","""event"",""trial"",""time""
""blur"",""0"",""0""
","""event"",""trial"",""time""
""focus"",""1"",""22583""
","""event"",""trial"",""time""
""fullscreenenter"",""1"",""23229""
","
",,null,run_exp/static/images/task_images/gems/26.jpg,null,,,,,,,10,,,4,,,,,26,0.387463003,0.384615385,,,,,,,
decision,137,528195,0.0-44.0-2.0,"""event"",""trial"",""time""
""blur"",""0"",""0""
""focus"",""1"",""22583""
""fullscreenenter"",""1"",""23229""
","""event"",""trial"",""time""
""blur"",""0"",""0""
","""event"",""trial"",""time""
""focus"",""1"",""22583""
","""event"",""trial"",""time""
""fullscreenenter"",""1"",""23229""
","
",,473.4,run_exp/static/images/task_images/land.jpg,65,,,,,,,10,,,4,,,,,,,,132897,1,2,FALSE,,,
dig,138,530730,0.0-45.0-0.0,"""event"",""trial"",""time""
""blur"",""0"",""0""
""focus"",""1"",""22583""
""fullscreenenter"",""1"",""23229""
","""event"",""trial"",""time""
""blur"",""0"",""0""
","""event"",""trial"",""time""
""focus"",""1"",""22583""
","""event"",""trial"",""time""
""fullscreenenter"",""1"",""23229""
","
",,,,,,,,,,,,"[{""stimulus"":""run_exp/static/images/task_images/dig.jpg"",""time"":0.10000002384185791},{""stimulus"":""run_exp/static/images/task_images/land.jpg"",""time"":850.5},{""stimulus"":""run_exp/static/images/task_images/dig.jpg"",""time"":1691.7000000476837}]",[],4,,,,,,,,,,,,,,
harvest,139,531736,0.0-45.0-1.0,"""event"",""trial"",""time""
""blur"",""0"",""0""
""focus"",""1"",""22583""
""fullscreenenter"",""1"",""23229""
","""event"",""trial"",""time""
""blur"",""0"",""0""
","""event"",""trial"",""time""
""focus"",""1"",""22583""
","""event"",""trial"",""time""
""fullscreenenter"",""1"",""23229""
","
",,null,run_exp/static/images/task_images/gems/10.jpg,null,,,,,,,5,,,4,,,,,10,0.485450732,0.5,,,,,,,
decision,140,531998,0.0-45.0-2.0,"""event"",""trial"",""time""
""blur"",""0"",""0""
""focus"",""1"",""22583""
""fullscreenenter"",""1"",""23229""
","""event"",""trial"",""time""
""blur"",""0"",""0""
","""event"",""trial"",""time""
""focus"",""1"",""22583""
","""event"",""trial"",""time""
""fullscreenenter"",""1"",""23229""
","
",,261.2,run_exp/static/images/task_images/land.jpg,65,,,,,,,5,,,4,,,,,,,,136700,1,3,FALSE,,,
dig,141,534744,0.0-46.0-0.0,"""event"",""trial"",""time""
""blur"",""0"",""0""
""focus"",""1"",""22583""
""fullscreenenter"",""1"",""23229""
","""event"",""trial"",""time""
""blur"",""0"",""0""
","""event"",""trial"",""time""
""focus"",""1"",""22583""
","""event"",""trial"",""time""
""fullscreenenter"",""1"",""23229""
","
",,,,,,,,,,,,"[{""stimulus"":""run_exp/static/images/task_images/dig.jpg"",""time"":0.10000002384185791},{""stimulus"":""run_exp/static/images/task_images/land.jpg"",""time"":920.2000000476837},{""stimulus"":""run_exp/static/images/task_images/dig.jpg"",""time"":1832.7999999523163}]",[],4,,,,,,,,,,,,,,
harvest,142,535756,0.0-46.0-1.0,"""event"",""trial"",""time""
""blur"",""0"",""0""
""focus"",""1"",""22583""
""fullscreenenter"",""1"",""23229""
","""event"",""trial"",""time""
""blur"",""0"",""0""
","""event"",""trial"",""time""
""focus"",""1"",""22583""
","""event"",""trial"",""time""
""fullscreenenter"",""1"",""23229""
","
",,null,run_exp/static/images/task_images/gems/5.jpg,null,,,,,,,2,,,4,,,,,5,0.498147874,0.4,,,,,,,
decision,143,536015,0.0-46.0-2.0,"""event"",""trial"",""time""
""blur"",""0"",""0""
""focus"",""1"",""22583""
""fullscreenenter"",""1"",""23229""
","""event"",""trial"",""time""
""blur"",""0"",""0""
","""event"",""trial"",""time""
""focus"",""1"",""22583""
","""event"",""trial"",""time""
""fullscreenenter"",""1"",""23229""
","
",,257.6999999,run_exp/static/images/task_images/land.jpg,65,,,,,,,2,,,4,,,,,,,,140717,1,4,FALSE,,,
dig,144,538772,0.0-47.0-0.0,"""event"",""trial"",""time""
""blur"",""0"",""0""
""focus"",""1"",""22583""
""fullscreenenter"",""1"",""23229""
","""event"",""trial"",""time""
""blur"",""0"",""0""
","""event"",""trial"",""time""
""focus"",""1"",""22583""
","""event"",""trial"",""time""
""fullscreenenter"",""1"",""23229""
","
",,,,,,,,,,,,"[{""stimulus"":""run_exp/static/images/task_images/dig.jpg"",""time"":0.10000002384185791},{""stimulus"":""run_exp/static/images/task_images/land.jpg"",""time"":918.6000000238419},{""stimulus"":""run_exp/static/images/task_images/dig.jpg"",""time"":1834.3999999761581}]",[],4,,,,,,,,,,,,,,
harvest,145,539776,0.0-47.0-1.0,"""event"",""trial"",""time""
""blur"",""0"",""0""
""focus"",""1"",""22583""
""fullscreenenter"",""1"",""23229""
","""event"",""trial"",""time""
""blur"",""0"",""0""
","""event"",""trial"",""time""
""focus"",""1"",""22583""
","""event"",""trial"",""time""
""fullscreenenter"",""1"",""23229""
","
",,null,run_exp/static/images/task_images/gems/2.jpg,null,,,,,,,1,,,4,,,,,2,0.514143807,0.5,,,,,,,
decision,146,540242,0.0-47.0-2.0,"""event"",""trial"",""time""
""blur"",""0"",""0""
""focus"",""1"",""22583""
""fullscreenenter"",""1"",""23229""
","""event"",""trial"",""time""
""blur"",""0"",""0""
","""event"",""trial"",""time""
""focus"",""1"",""22583""
","""event"",""trial"",""time""
""fullscreenenter"",""1"",""23229""
","
",,464.5,run_exp/static/images/task_images/land.jpg,76,,,,,,,1,,,4,,,,,,,,144944,1,5,TRUE,,,
travel,147,549789,0.0-48.0-0.0,"""event"",""trial"",""time""
""blur"",""0"",""0""
""focus"",""1"",""22583""
""fullscreenenter"",""1"",""23229""
","""event"",""trial"",""time""
""blur"",""0"",""0""
","""event"",""trial"",""time""
""focus"",""1"",""22583""
","""event"",""trial"",""time""
""fullscreenenter"",""1"",""23229""
","
",,,,,,,,,,,,"[{""stimulus"":""run_exp/static/images/task_images/rocket-01.jpg"",""time"":0.09999990463256836},{""stimulus"":""run_exp/static/images/task_images/rocket-02.jpg"",""time"":1070.8999999761581},{""stimulus"":""run_exp/static/images/task_images/rocket-03.jpg"",""time"":2128.399999976158},{""stimulus"":""run_exp/static/images/task_images/rocket-04.jpg"",""time"":3182.399999976158},{""stimulus"":""run_exp/static/images/task_images/rocket-05.jpg"",""time"":4244.299999952316},{""stimulus"":""run_exp/static/images/task_images/rocket-06.jpg"",""time"":5300.5},{""stimulus"":""run_exp/static/images/task_images/rocket-07.jpg"",""time"":6359.699999928474},{""stimulus"":""run_exp/static/images/task_images/rocket-08.jpg"",""time"":7424.299999952316},{""stimulus"":""run_exp/static/images/task_images/rocket-09.jpg"",""time"":8476.599999904633}]",[],4,,,,,,,,,,,,,,
alien_welcome,148,554794,0.0-48.0-1.0,"""event"",""trial"",""time""
""blur"",""0"",""0""
""focus"",""1"",""22583""
""fullscreenenter"",""1"",""23229""
","""event"",""trial"",""time""
""blur"",""0"",""0""
","""event"",""trial"",""time""
""focus"",""1"",""22583""
","""event"",""trial"",""time""
""fullscreenenter"",""1"",""23229""
","
",,null,run_exp/static/images/task_images/aliens/old_aliens/planet/alien_planet-15.jpg,null,,,,,,,,,,,,,15,"7,20,5,22,15,61,76,54,68,77,4,80,73,66,6,17,32,30,72,2,49,29,58,1,24,26,50,62,19,64",,,,,,,,,,
land,149,555298,0.0-48.0-2.0,"""event"",""trial"",""time""
""blur"",""0"",""0""
""focus"",""1"",""22583""
""fullscreenenter"",""1"",""23229""
","""event"",""trial"",""time""
""blur"",""0"",""0""
","""event"",""trial"",""time""
""focus"",""1"",""22583""
","""event"",""trial"",""time""
""fullscreenenter"",""1"",""23229""
","
",,null,run_exp/static/images/task_images/land.jpg,null,,,,,,,109,,,5,,,,,,,,,,,,,,
dig,150,557309,0.0-48.0-3.0,"""event"",""trial"",""time""
""blur"",""0"",""0""
""focus"",""1"",""22583""
""fullscreenenter"",""1"",""23229""
","""event"",""trial"",""time""
""blur"",""0"",""0""
","""event"",""trial"",""time""
""focus"",""1"",""22583""
","""event"",""trial"",""time""
""fullscreenenter"",""1"",""23229""
","
",,,,,,,,,,,,"[{""stimulus"":""run_exp/static/images/task_images/dig.jpg"",""time"":0.20000004768371582},{""stimulus"":""run_exp/static/images/task_images/land.jpg"",""time"":669.1000000238419},{""stimulus"":""run_exp/static/images/task_images/dig.jpg"",""time"":1340.3999999761581}]",[],5,,,,,,,,,,,,,,
harvest,151,558313,0.0-48.0-4.0,"""event"",""trial"",""time""
""blur"",""0"",""0""
""focus"",""1"",""22583""
""fullscreenenter"",""1"",""23229""
","""event"",""trial"",""time""
""blur"",""0"",""0""
","""event"",""trial"",""time""
""focus"",""1"",""22583""
","""event"",""trial"",""time""
""fullscreenenter"",""1"",""23229""
","
",,null,run_exp/static/images/task_images/gems/109.jpg,null,,,,,,,57,,,5,,,,,109,0.518838077,0.52293578,,,,,,,
decision,152,559045,0.0-48.0-5.0,"""event"",""trial"",""time""
""blur"",""0"",""0""
""focus"",""1"",""22583""
""fullscreenenter"",""1"",""23229""
","""event"",""trial"",""time""
""blur"",""0"",""0""
","""event"",""trial"",""time""
""focus"",""1"",""22583""
","""event"",""trial"",""time""
""fullscreenenter"",""1"",""23229""
","
",,730.9,run_exp/static/images/task_images/land.jpg,65,,,,,,,57,,,5,,,,,,,,163747,1,0,FALSE,,,
dig,153,561321,0.0-49.0-0.0,"""event"",""trial"",""time""
""blur"",""0"",""0""
""focus"",""1"",""22583""
""fullscreenenter"",""1"",""23229""
","""event"",""trial"",""time""
""blur"",""0"",""0""
","""event"",""trial"",""time""
""focus"",""1"",""22583""
","""event"",""trial"",""time""
""fullscreenenter"",""1"",""23229""
","
",,,,,,,,,,,,"[{""stimulus"":""run_exp/static/images/task_images/dig.jpg"",""time"":0.09999990463256836},{""stimulus"":""run_exp/static/images/task_images/land.jpg"",""time"":765},{""stimulus"":""run_exp/static/images/task_images/dig.jpg"",""time"":1515.8999999761581}]",[],5,,,,,,,,,,,,,,
harvest,154,562329,0.0-49.0-1.0,"""event"",""trial"",""time""
""blur"",""0"",""0""
""focus"",""1"",""22583""
""fullscreenenter"",""1"",""23229""
","""event"",""trial"",""time""
""blur"",""0"",""0""
","""event"",""trial"",""time""
""focus"",""1"",""22583""
","""event"",""trial"",""time""
""fullscreenenter"",""1"",""23229""
","
",,null,run_exp/static/images/task_images/gems/57.jpg,null,,,,,,,29,,,5,,,,,57,0.50639192,0.50877193,,,,,,,
decision,155,562628,0.0-49.0-2.0,"""event"",""trial"",""time""
""blur"",""0"",""0""
""focus"",""1"",""22583""
""fullscreenenter"",""1"",""23229""
","""event"",""trial"",""time""
""blur"",""0"",""0""
","""event"",""trial"",""time""
""focus"",""1"",""22583""
","""event"",""trial"",""time""
""fullscreenenter"",""1"",""23229""
","
",,298.1,run_exp/static/images/task_images/land.jpg,65,,,,,,,29,,,5,,,,,,,,167330,1,1,FALSE,,,
dig,156,565337,0.0-50.0-0.0,"""event"",""trial"",""time""
""blur"",""0"",""0""
""focus"",""1"",""22583""
""fullscreenenter"",""1"",""23229""
","""event"",""trial"",""time""
""blur"",""0"",""0""
","""event"",""trial"",""time""
""focus"",""1"",""22583""
","""event"",""trial"",""time""
""fullscreenenter"",""1"",""23229""
","
",,,,,,,,,,,,"[{""stimulus"":""run_exp/static/images/task_images/dig.jpg"",""time"":0.19999992847442627},{""stimulus"":""run_exp/static/images/task_images/land.jpg"",""time"":909.6999999284744},{""stimulus"":""run_exp/static/images/task_images/dig.jpg"",""time"":1801.8999999761581}]",[],5,,,,,,,,,,,,,,
harvest,157,566348,0.0-50.0-1.0,"""event"",""trial"",""time""
""blur"",""0"",""0""
""focus"",""1"",""22583""
""fullscreenenter"",""1"",""23229""
","""event"",""trial"",""time""
""blur"",""0"",""0""
","""event"",""trial"",""time""
""focus"",""1"",""22583""
","""event"",""trial"",""time""
""fullscreenenter"",""1"",""23229""
","
",,null,run_exp/static/images/task_images/gems/29.jpg,null,,,,,,,16,,,5,,,,,29,0.55406771,0.551724138,,,,,,,
decision,158,566702,0.0-50.0-2.0,"""event"",""trial"",""time""
""blur"",""0"",""0""
""focus"",""1"",""22583""
""fullscreenenter"",""1"",""23229""
","""event"",""trial"",""time""
""blur"",""0"",""0""
","""event"",""trial"",""time""
""focus"",""1"",""22583""
","""event"",""trial"",""time""
""fullscreenenter"",""1"",""23229""
","
",,352.4,run_exp/static/images/task_images/land.jpg,65,,,,,,,16,,,5,,,,,,,,171404,1,2,FALSE,,,
dig,159,569353,0.0-51.0-0.0,"""event"",""trial"",""time""
""blur"",""0"",""0""
""focus"",""1"",""22583""
""fullscreenenter"",""1"",""23229""
","""event"",""trial"",""time""
""blur"",""0"",""0""
","""event"",""trial"",""time""
""focus"",""1"",""22583""
","""event"",""trial"",""time""
""fullscreenenter"",""1"",""23229""
","
",,,,,,,,,,,,"[{""stimulus"":""run_exp/static/images/task_images/dig.jpg"",""time"":0.10000002384185791},{""stimulus"":""run_exp/static/images/task_images/land.jpg"",""time"":892.7000000476837},{""stimulus"":""run_exp/static/images/task_images/dig.jpg"",""time"":1767.8000000715256}]",[],5,,,,,,,,,,,,,,
harvest,160,570360,0.0-51.0-1.0,"""event"",""trial"",""time""
""blur"",""0"",""0""
""focus"",""1"",""22583""
""fullscreenenter"",""1"",""23229""
","""event"",""trial"",""time""
""blur"",""0"",""0""
","""event"",""trial"",""time""
""focus"",""1"",""22583""
","""event"",""trial"",""time""
""fullscreenenter"",""1"",""23229""
","
",,null,run_exp/static/images/task_images/gems/16.jpg,null,,,,,,,9,,,5,,,,,16,0.538049295,0.5625,,,,,,,
decision,161,570689,0.0-51.0-2.0,"""event"",""trial"",""time""
""blur"",""0"",""0""
""focus"",""1"",""22583""
""fullscreenenter"",""1"",""23229""
","""event"",""trial"",""time""
""blur"",""0"",""0""
","""event"",""trial"",""time""
""focus"",""1"",""22583""
","""event"",""trial"",""time""
""fullscreenenter"",""1"",""23229""
","
",,326.9,run_exp/static/images/task_images/land.jpg,65,,,,,,,9,,,5,,,,,,,,175391,1,3,FALSE,,,
dig,162,573372,0.0-52.0-0.0,"""event"",""trial"",""time""
""blur"",""0"",""0""
""focus"",""1"",""22583""
""fullscreenenter"",""1"",""23229""
","""event"",""trial"",""time""
""blur"",""0"",""0""
","""event"",""trial"",""time""
""focus"",""1"",""22583""
","""event"",""trial"",""time""
""fullscreenenter"",""1"",""23229""
","
",,,,,,,,,,,,"[{""stimulus"":""run_exp/static/images/task_images/dig.jpg"",""time"":0.19999992847442627},{""stimulus"":""run_exp/static/images/task_images/land.jpg"",""time"":894.5},{""stimulus"":""run_exp/static/images/task_images/dig.jpg"",""time"":1790.5999999046326}]",[],5,,,,,,,,,,,,,,
harvest,163,574380,0.0-52.0-1.0,"""event"",""trial"",""time""
""blur"",""0"",""0""
""focus"",""1"",""22583""
""fullscreenenter"",""1"",""23229""
","""event"",""trial"",""time""
""blur"",""0"",""0""
","""event"",""trial"",""time""
""focus"",""1"",""22583""
","""event"",""trial"",""time""
""fullscreenenter"",""1"",""23229""
","
",,null,run_exp/static/images/task_images/gems/9.jpg,null,,,,,,,5,,,5,,,,,9,0.502137523,0.555555556,,,,,,,
decision,164,574653,0.0-52.0-2.0,"""event"",""trial"",""time""
""blur"",""0"",""0""
""focus"",""1"",""22583""
""fullscreenenter"",""1"",""23229""
","""event"",""trial"",""time""
""blur"",""0"",""0""
","""event"",""trial"",""time""
""focus"",""1"",""22583""
","""event"",""trial"",""time""
""fullscreenenter"",""1"",""23229""
","
",,271.6,run_exp/static/images/task_images/land.jpg,76,,,,,,,5,,,5,,,,,,,,179355,1,4,TRUE,,,
travel,165,584380,0.0-53.0-0.0,"""event"",""trial"",""time""
""blur"",""0"",""0""
""focus"",""1"",""22583""
""fullscreenenter"",""1"",""23229""
","""event"",""trial"",""time""
""blur"",""0"",""0""
","""event"",""trial"",""time""
""focus"",""1"",""22583""
","""event"",""trial"",""time""
""fullscreenenter"",""1"",""23229""
","
",,,,,,,,,,,,"[{""stimulus"":""run_exp/static/images/task_images/rocket-01.jpg"",""time"":0.10000002384185791},{""stimulus"":""run_exp/static/images/task_images/rocket-02.jpg"",""time"":1084.2999999523163},{""stimulus"":""run_exp/static/images/task_images/rocket-03.jpg"",""time"":2163.7999999523163},{""stimulus"":""run_exp/static/images/task_images/rocket-04.jpg"",""time"":3246.2999999523163},{""stimulus"":""run_exp/static/images/task_images/rocket-05.jpg"",""time"":4323.899999976158},{""stimulus"":""run_exp/static/images/task_images/rocket-06.jpg"",""time"":5405.399999976158},{""stimulus"":""run_exp/static/images/task_images/rocket-07.jpg"",""time"":6483},{""stimulus"":""run_exp/static/images/task_images/rocket-08.jpg"",""time"":7565.700000047684},{""stimulus"":""run_exp/static/images/task_images/rocket-09.jpg"",""time"":8641.799999952316}]",[],5,,,,,,,,,,,,,,
alien_welcome,166,589387,0.0-53.0-1.0,"""event"",""trial"",""time""
""blur"",""0"",""0""
""focus"",""1"",""22583""
""fullscreenenter"",""1"",""23229""
","""event"",""trial"",""time""
""blur"",""0"",""0""
","""event"",""trial"",""time""
""focus"",""1"",""22583""
","""event"",""trial"",""time""
""fullscreenenter"",""1"",""23229""
","
",,null,run_exp/static/images/task_images/aliens/old_aliens/planet/alien_planet-61.jpg,null,,,,,,,,,,,,,61,"7,20,5,22,15,61,76,54,68,77,4,80,73,66,6,17,32,30,72,2,49,29,58,1,24,26,50,62,19,64",,,,,,,,,,
land,167,589901,0.0-53.0-2.0,"""event"",""trial"",""time""
""blur"",""0"",""0""
""focus"",""1"",""22583""
""fullscreenenter"",""1"",""23229""
","""event"",""trial"",""time""
""blur"",""0"",""0""
","""event"",""trial"",""time""
""focus"",""1"",""22583""
","""event"",""trial"",""time""
""fullscreenenter"",""1"",""23229""
","
",,null,run_exp/static/images/task_images/land.jpg,null,,,,,,,104,,,6,,,,,,,,,,,,,,
dig,168,591917,0.0-53.0-3.0,"""event"",""trial"",""time""
""blur"",""0"",""0""
""focus"",""1"",""22583""
""fullscreenenter"",""1"",""23229""
","""event"",""trial"",""time""
""blur"",""0"",""0""
","""event"",""trial"",""time""
""focus"",""1"",""22583""
","""event"",""trial"",""time""
""fullscreenenter"",""1"",""23229""
","
",,,,,,,,,,,,"[{""stimulus"":""run_exp/static/images/task_images/dig.jpg"",""time"":0.30000007152557373},{""stimulus"":""run_exp/static/images/task_images/land.jpg"",""time"":676.3999999761581},{""stimulus"":""run_exp/static/images/task_images/dig.jpg"",""time"":1338.8000000715256}]",[],6,,,,,,,,,,,,,,
harvest,169,592921,0.0-53.0-4.0,"""event"",""trial"",""time""
""blur"",""0"",""0""
""focus"",""1"",""22583""
""fullscreenenter"",""1"",""23229""
","""event"",""trial"",""time""
""blur"",""0"",""0""
","""event"",""trial"",""time""
""focus"",""1"",""22583""
","""event"",""trial"",""time""
""fullscreenenter"",""1"",""23229""
","
",,null,run_exp/static/images/task_images/gems/104.jpg,null,,,,,,,85,,,6,,,,,104,0.81302126,0.817307692,,,,,,,
decision,170,593532,0.0-53.0-5.0,"""event"",""trial"",""time""
""blur"",""0"",""0""
""focus"",""1"",""22583""
""fullscreenenter"",""1"",""23229""
","""event"",""trial"",""time""
""blur"",""0"",""0""
","""event"",""trial"",""time""
""focus"",""1"",""22583""
","""event"",""trial"",""time""
""fullscreenenter"",""1"",""23229""
","
",,610,run_exp/static/images/task_images/land.jpg,65,,,,,,,85,,,6,,,,,,,,198234,1,0,FALSE,,,
dig,171,595932,0.0-54.0-0.0,"""event"",""trial"",""time""
""blur"",""0"",""0""
""focus"",""1"",""22583""
""fullscreenenter"",""1"",""23229""
","""event"",""trial"",""time""
""blur"",""0"",""0""
","""event"",""trial"",""time""
""focus"",""1"",""22583""
","""event"",""trial"",""time""
""fullscreenenter"",""1"",""23229""
","
",,,,,,,,,,,,"[{""stimulus"":""run_exp/static/images/task_images/dig.jpg"",""time"":0.10000002384185791},{""stimulus"":""run_exp/static/images/task_images/land.jpg"",""time"":803.6000000238419},{""stimulus"":""run_exp/static/images/task_images/dig.jpg"",""time"":1597.8999999761581}]",[],6,,,,,,,,,,,,,,
harvest,172,596940,0.0-54.0-1.0,"""event"",""trial"",""time""
""blur"",""0"",""0""
""focus"",""1"",""22583""
""fullscreenenter"",""1"",""23229""
","""event"",""trial"",""time""
""blur"",""0"",""0""
","""event"",""trial"",""time""
""focus"",""1"",""22583""
","""event"",""trial"",""time""
""fullscreenenter"",""1"",""23229""
","
",,null,run_exp/static/images/task_images/gems/85.jpg,null,,,,,,,67,,,6,,,,,85,0.791206931,0.788235294,,,,,,,
decision,173,597394,0.0-54.0-2.0,"""event"",""trial"",""time""
""blur"",""0"",""0""
""focus"",""1"",""22583""
""fullscreenenter"",""1"",""23229""
","""event"",""trial"",""time""
""blur"",""0"",""0""
","""event"",""trial"",""time""
""focus"",""1"",""22583""
","""event"",""trial"",""time""
""fullscreenenter"",""1"",""23229""
","
",,453,run_exp/static/images/task_images/land.jpg,65,,,,,,,67,,,6,,,,,,,,202096,1,1,FALSE,,,
dig,174,599945,0.0-55.0-0.0,"""event"",""trial"",""time""
""blur"",""0"",""0""
""focus"",""1"",""22583""
""fullscreenenter"",""1"",""23229""
","""event"",""trial"",""time""
""blur"",""0"",""0""
","""event"",""trial"",""time""
""focus"",""1"",""22583""
","""event"",""trial"",""time""
""fullscreenenter"",""1"",""23229""
","
",,,,,,,,,,,,"[{""stimulus"":""run_exp/static/images/task_images/dig.jpg"",""time"":0.10000002384185791},{""stimulus"":""run_exp/static/images/task_images/land.jpg"",""time"":855.3999999761581},{""stimulus"":""run_exp/static/images/task_images/dig.jpg"",""time"":1701.7000000476837}]",[],6,,,,,,,,,,,,,,
harvest,175,600953,0.0-55.0-1.0,"""event"",""trial"",""time""
""blur"",""0"",""0""
""focus"",""1"",""22583""
""fullscreenenter"",""1"",""23229""
","""event"",""trial"",""time""
""blur"",""0"",""0""
","""event"",""trial"",""time""
""focus"",""1"",""22583""
","""event"",""trial"",""time""
""fullscreenenter"",""1"",""23229""
","
",,null,run_exp/static/images/task_images/gems/67.jpg,null,,,,,,,47,,,6,,,,,67,0.694320773,0.701492537,,,,,,,
decision,176,601938,0.0-55.0-2.0,"""event"",""trial"",""time""
""blur"",""0"",""0""
""focus"",""1"",""22583""
""fullscreenenter"",""1"",""23229""
","""event"",""trial"",""time""
""blur"",""0"",""0""
","""event"",""trial"",""time""
""focus"",""1"",""22583""
","""event"",""trial"",""time""
""fullscreenenter"",""1"",""23229""
","
",,983.8,run_exp/static/images/task_images/land.jpg,65,,,,,,,47,,,6,,,,,,,,206640,1,2,FALSE,,,
dig,177,603957,0.0-56.0-0.0,"""event"",""trial"",""time""
""blur"",""0"",""0""
""focus"",""1"",""22583""
