trial_type,trial_index,time_elapsed,internal_node_id,success,rt,stimulus,key_press,prompt,subject_id,age,gender,button_pressed,next_reward,animation_sequence,responses,planet,curr_prac_trial,n_prac_rounds,alien,aliens,reward_received,decay_rate_actual,decay_rate_exp,time_in_block,block_num,prt,last_trial_on_planet,button_html,bonus,num_failures
pavlovia,0,9,0.0-0.0,,,,,,,,,,,,,,,,,,,,,,,,,,,
fullscreen,1,5301,0.0-1.0,TRUE,,,,,,,,,,,,,,,,,,,,,,,,,,
instruc_welcome,2,15052,0.0-2.0,,null,run_exp/static/audio/clip_1_welcome.m4a,null,"<p>Howdy! In this experiment, you’ll be an explorer traveling through space to collect space treasure.</p><p>Your mission is to collect as much treasure as possible.</p><br><br><p><img src='run_exp/static/images/task_images/opening_img-01.jpg' height='300' width='auto'></p>",hxIr70vm5UXDF2A_a5Ke5UddwllDBGZ_MLRP_1NRCQgzkXTCuVsa,11.28,female,,,,,,,,,,,,,,,,,,,
audio-keyboard-response,3,31628,0.0-3.0,,null,run_exp/static/audio/clip_2_move.m4a,null,,,,,,,,,,,,,,,,,,,,,,,
welcome_dec,4,36919,0.0-4.0,,5289,"<p>Howdy! In this experiment, you’ll be an explorer traveling through space to collect space treasure.</p><p>Your mission is to collect as much treasure as possible.</p><br><br><p><img src='run_exp/static/images/task_images/opening_img-01.jpg' height='300' width='auto'></p>",,,,,,1,,,,,,,,,,,,,,,,,,
html-keyboard-response,5,39453,0.0-5.0,,2531,"<p>Howdy! In this experiment, you’ll be an explorer traveling through space to collect space treasure.</p><p>Your mission is to collect as much treasure as possible.</p><br><br><p><img src='run_exp/static/images/task_images/opening_img-01.jpg' height='300' width='auto'></p><button class=""jspsych-html-btn-unchosen""><img src=""run_exp/static/images/task_images/planet-01.jpg"" height=""50""></button><button class=""jspsych-html-btn-chosen""><img src=""run_exp/static/images/task_images/planet-02.jpg"" height=""50""></button><p><b>[press the space bar to lock in your answer]<b><br></p>",32,,,,,,,,,,,,,,,,,,,,,,,
instruc_goal,6,49498,0.0-6.0-0.0,,null,run_exp/static/audio/clip_3_goal.m4a,null,"<p> As a space explorer, you’ll visit different planets to dig for space treasure, these pink gems.</p> <p> The more treasure you dig up, the more bonus money you’ll win! </p><br><br><p><img src='run_exp/static/images/task_images/pink_gem.jpg' height='300' width='auto'></p>",,,,,,,,,,,,,,,,,,,,,,
instruc_goal,7,52267,0.0-6.0-1.0,,2766,"<p> As a space explorer, you’ll visit different planets to dig for space treasure, these pink gems.</p> <p> The more treasure you dig up, the more bonus money you’ll win! </p><br><br><p><img src='run_exp/static/images/task_images/pink_gem.jpg' height='300' width='auto'></p>",,,,,,1,,,,,,,,,,,,,,,,,,
html-keyboard-response,8,53552,0.0-6.0-2.0,,1284,"<p> As a space explorer, you’ll visit different planets to dig for space treasure, these pink gems.</p> <p> The more treasure you dig up, the more bonus money you’ll win! </p><br><br><p><img src='run_exp/static/images/task_images/pink_gem.jpg' height='300' width='auto'></p><button class=""jspsych-html-btn-unchosen""><img src=""run_exp/static/images/task_images/planet-01.jpg"" height=""50""></button><button class=""jspsych-html-btn-chosen""><img src=""run_exp/static/images/task_images/planet-02.jpg"" height=""50""></button><p><b>[press the space bar to lock in your answer]<b><br></p>",32,,,,,,,,,,,,,,,,,,,,,,,
instruc_dig,9,69549,0.0-7.0-0.0,,null,run_exp/static/audio/clip_4_dig.m4a,null,,,,,,100,,,,,,,,,,,,,,,,,
instruc_dig_try,10,71321,0.0-7.0-1.0,,1768,"<p> When you’ve arrived at a new planet, you will dig once. </p> <p>Then, you get to decide if you want to stay on the planet and dig again or travel to a new planet and dig there.</p> <p> To stay and dig, press the letter <strong>‘A’</strong> on your keyboard. Try pressing it now! </p><p><img src='run_exp/static/images/task_images/land.jpg'  height='700' width='auto'></p>",65,"<p> When you’ve arrived at a new planet, you will dig once. </p> <p>Then, you get to decide if you want to stay on the planet and dig again or travel to a new planet and dig there.</p> <p> To stay and dig, press the letter <strong>‘A’</strong> on your keyboard. Try pressing it now! </p><p><img src='run_exp/static/images/task_images/land.jpg'  height='700' width='auto'></p>",,,,,100,,,,,,,,,,,,,,,,,
dig_prac,11,73367,0.0-7.0-2.0,,,,,,,,,,,"[{""stimulus"":""run_exp/static/images/task_images/dig.jpg"",""time"":1},{""stimulus"":""run_exp/static/images/task_images/land.jpg"",""time"":670},{""stimulus"":""run_exp/static/images/task_images/dig.jpg"",""time"":1338}]",[],,,,,,,,,,,,,,,
instruc_travel,12,109604,0.0-7.0-3.0,,null,run_exp/static/audio/clip_5_travel.m4a,null,"<p>Every time you dig up gems, there are less gems on the planet, so the more you dig on a planet the fewer gems you’ll get with each dig.</p><p>When gems are running low, you may want to travel to a new planet. </p> <p>  Planets are very far apart in this galaxy, so it will take some time to travel between them. </p> <br><p>There are lots and lots of planets for you to visit, so you won’t be able to return to any planets you’ve seen before. </p><br><p>To leave this planet and travel to a new one, press the letter <strong>‘L’</strong> on your keyboard. Try pressing it now! </p><p><img src='run_exp/static/images/task_images/rocket-01.jpg'  height='600' width='auto'></p>",,,,,,,,,,,,,,,,,,,,,,
instruc_travel_try,13,111455,0.0-7.0-4.0,,1848,"<p>Every time you dig up gems, there are less gems on the planet, so the more you dig on a planet the fewer gems you’ll get with each dig.</p><p>When gems are running low, you may want to travel to a new planet. </p> <p>  Planets are very far apart in this galaxy, so it will take some time to travel between them. </p> <br><p>There are lots and lots of planets for you to visit, so you won’t be able to return to any planets you’ve seen before. </p><br><p>To leave this planet and travel to a new one, press the letter <strong>‘L’</strong> on your keyboard. Try pressing it now! </p><p><img src='run_exp/static/images/task_images/rocket-01.jpg'  height='600' width='auto'></p>",76,"<p>Every time you dig up gems, there are less gems on the planet, so the more you dig on a planet the fewer gems you’ll get with each dig.</p><p>When gems are running low, you may want to travel to a new planet. </p> <p>  Planets are very far apart in this galaxy, so it will take some time to travel between them. </p> <br><p>There are lots and lots of planets for you to visit, so you won’t be able to return to any planets you’ve seen before. </p><br><p>To leave this planet and travel to a new one, press the letter <strong>‘L’</strong> on your keyboard. Try pressing it now! </p><p><img src='run_exp/static/images/task_images/rocket-01.jpg'  height='600' width='auto'></p>",,,,,,,,,,,,,,,,,,,,,,
travel_prac,14,121484,0.0-7.0-5.0,,,,,,,,,,,"[{""stimulus"":""run_exp/static/images/task_images/rocket-01.jpg"",""time"":0},{""stimulus"":""run_exp/static/images/task_images/rocket-02.jpg"",""time"":1113},{""stimulus"":""run_exp/static/images/task_images/rocket-03.jpg"",""time"":2227},{""stimulus"":""run_exp/static/images/task_images/rocket-04.jpg"",""time"":3341},{""stimulus"":""run_exp/static/images/task_images/rocket-05.jpg"",""time"":4453},{""stimulus"":""run_exp/static/images/task_images/rocket-06.jpg"",""time"":5567},{""stimulus"":""run_exp/static/images/task_images/rocket-07.jpg"",""time"":6678},{""stimulus"":""run_exp/static/images/task_images/rocket-08.jpg"",""time"":7794},{""stimulus"":""run_exp/static/images/task_images/rocket-09.jpg"",""time"":8906}]",[],0,,,,,,,,,,,,,,
instruc_alien_greet,15,148694,0.0-7.0-6.0,,null,run_exp/static/audio/clip_6_alien.m4a,null,"<p>When you arrive at a new planet, the alien who owns the treasure mine on that planet will greet you!</p><p>The better an alien takes care of their mine the easier it is to dig for gems. Some aliens take better care of their mine than others. So, you won’t get exactly the same amount of gems on each planet.</p><p>What the alien looks like does not tell you anything about how many gems there are on the planet.</p><br><p><img src=""run_exp/static/images/task_images/aliens/instructions_aliens/planet/alien_planet-1.jpg""  height=""600"" width=""auto""></p>",,,,,,,,,,,,,,,,,,,,,,
instruc_alien_greet,16,153114,0.0-7.0-7.0,,4418,"<p>When you arrive at a new planet, the alien who owns the treasure mine on that planet will greet you!</p><p>The better an alien takes care of their mine the easier it is to dig for gems. Some aliens take better care of their mine than others. So, you won’t get exactly the same amount of gems on each planet.</p><p>What the alien looks like does not tell you anything about how many gems there are on the planet.</p><br><p><img src=""run_exp/static/images/task_images/aliens/instructions_aliens/planet/alien_planet-1.jpg""  height=""600"" width=""auto""></p>",,,,,,1,,,,,,,,,,,,,,,,,,
html-keyboard-response,17,153536,0.0-7.0-8.0,,419,"<p>When you arrive at a new planet, the alien who owns the treasure mine on that planet will greet you!</p><p>The better an alien takes care of their mine the easier it is to dig for gems. Some aliens take better care of their mine than others. So, you won’t get exactly the same amount of gems on each planet.</p><p>What the alien looks like does not tell you anything about how many gems there are on the planet.</p><br><p><img src=""run_exp/static/images/task_images/aliens/instructions_aliens/planet/alien_planet-1.jpg""  height=""600"" width=""auto""></p><button class=""jspsych-html-btn-unchosen""><img src=""run_exp/static/images/task_images/planet-01.jpg"" height=""50""></button><button class=""jspsych-html-btn-chosen""><img src=""run_exp/static/images/task_images/planet-02.jpg"" height=""50""></button><p><b>[press the space bar to lock in your answer]<b><br></p>",32,,,,,,,,,,,,,,,,,,,,,,,
time_out,18,164614,0.0-8.0-0.0,,null,run_exp/static/audio/clip_7_timeout.m4a,null,"<p>If you don't make your choice fast enough, you’ll have to wait a few seconds before you can make another one.</p><p>You can’t dig for more gems or travel to new planets. You just have to sit and wait.</p><br><p><img src='run_exp/static/images/task_images/time_out.jpg'  height='600' width='auto'></p>",,,,,,,,,,,,,,,,,,,,,,
time_out,19,169263,0.0-8.0-1.0,,4647,"<p>If you don't make your choice fast enough, you’ll have to wait a few seconds before you can make another one.</p><p>You can’t dig for more gems or travel to new planets. You just have to sit and wait.</p><br><p><img src='run_exp/static/images/task_images/time_out.jpg'  height='600' width='auto'></p>",,,,,,1,,,,,,,,,,,,,,,,,,
html-keyboard-response,20,170801,0.0-8.0-2.0,,1536,"<p>If you don't make your choice fast enough, you’ll have to wait a few seconds before you can make another one.</p><p>You can’t dig for more gems or travel to new planets. You just have to sit and wait.</p><br><p><img src='run_exp/static/images/task_images/time_out.jpg'  height='600' width='auto'></p><button class=""jspsych-html-btn-unchosen""><img src=""run_exp/static/images/task_images/planet-01.jpg"" height=""50""></button><button class=""jspsych-html-btn-chosen""><img src=""run_exp/static/images/task_images/planet-02.jpg"" height=""50""></button><p><b>[press the space bar to lock in your answer]<b><br></p>",32,,,,,,,,,,,,,,,,,,,,,,,
instruc_break,21,186489,0.0-9.0-0.0,,null,run_exp/static/audio/clip_8_break.m4a,null,"<p> After digging and traveling for a while, you’ll be able to take a break at home base. </p><p>The game will last 20 minutes no matter what.</p><p>You will visit home base every 5 minutes, so, you will visit home base three times during the game.</p><br><p><img src='run_exp/static/images/task_images/home_base.jpg' height='600' width='auto'></p>",,,,,,,,,,,,,,,,,,,,,,
instruc_break,22,189531,0.0-9.0-1.0,,3041,"<p> After digging and traveling for a while, you’ll be able to take a break at home base. </p><p>The game will last 20 minutes no matter what.</p><p>You will visit home base every 5 minutes, so, you will visit home base three times during the game.</p><br><p><img src='run_exp/static/images/task_images/home_base.jpg' height='600' width='auto'></p>",,,,,,1,,,,,,,,,,,,,,,,,,
html-keyboard-response,23,192523,0.0-9.0-2.0,,2990,"<p> After digging and traveling for a while, you’ll be able to take a break at home base. </p><p>The game will last 20 minutes no matter what.</p><p>You will visit home base every 5 minutes, so, you will visit home base three times during the game.</p><br><p><img src='run_exp/static/images/task_images/home_base.jpg' height='600' width='auto'></p><button class=""jspsych-html-btn-unchosen""><img src=""run_exp/static/images/task_images/planet-01.jpg"" height=""50""></button><button class=""jspsych-html-btn-chosen""><img src=""run_exp/static/images/task_images/planet-02.jpg"" height=""50""></button><p><b>[press the space bar to lock in your answer]<b><br></p>",32,,,,,,,,,,,,,,,,,,,,,,,
instruc_prac_game,24,202638,0.0-10.0-0.0,,null,run_exp/static/audio/clip_9_practice.m4a,null,"<p> Are you ready to play a practice game? </p> <p>In this practice game, you'll be digging up barrels of gems. But, in the real game, you'll be digging up the gems themselves. </p>",,,,,,,,,,,,,,,,,,,,,,
html-button-response,25,204308,0.0-10.0-1.0,,1669,"<p> Are you ready to play a practice game? </p> <p>In this practice game, you'll be digging up barrels of gems. But, in the real game, you'll be digging up the gems themselves. </p>",,,,,,0,,,,,,,,,,,,,,,,,,
alien_welcome_prac,26,209316,0.0-11.0-0.0,,null,run_exp/static/images/task_images/aliens/practice_aliens/planet/alien_planet-5.jpg,null,,,,,,,,,,,,,,,,,,,,,,,
land_prac,27,209823,0.0-11.0-1.0,,null,run_exp/static/images/task_images/land.jpg,null,,,,,,100,,,0,,,,,,,,,,,,,,
dig_prac,28,211844,0.0-11.0-2.0,,,,,,,,,,,"[{""stimulus"":""run_exp/static/images/task_images/dig.jpg"",""time"":0},{""stimulus"":""run_exp/static/images/task_images/land.jpg"",""time"":669},{""stimulus"":""run_exp/static/images/task_images/dig.jpg"",""time"":1339}]",[],,,,,,,,,,,,,,,
harvest_prac,29,212850,0.0-11.0-3.0,,null,run_exp/static/images/task_images/barrel_text.jpg,null,,,,,,,,,,,,,,,,,,,,,,,
decision_prac,30,215853,0.0-11.0-4.0,,null,run_exp/static/images/task_images/land.jpg,null,,,,,,,,,,1,,,,,,,,,,,,,
time_out,31,217859,0.0-12.0-0.0,,null,run_exp/static/images/task_images/time_out.jpg,null,,,,,,,,,,,,,,,,,,,,,,,
decision_prac,32,220341,0.0-12.0-1.0,,2480,run_exp/static/images/task_images/land.jpg,65,,,,,,,,,,2,,,,,,,,,,,,,
dig_prac,33,222365,0.0-13.0-0.0,,,,,,,,,,,"[{""stimulus"":""run_exp/static/images/task_images/dig.jpg"",""time"":0},{""stimulus"":""run_exp/static/images/task_images/land.jpg"",""time"":673},{""stimulus"":""run_exp/static/images/task_images/dig.jpg"",""time"":1341}]",[],,,,,,,,,,,,,,,
harvest_prac,34,223367,0.0-13.0-1.0,,null,run_exp/static/images/task_images/barrel_text.jpg,null,,,,,,,,,,,,,,,,,,,,,,,
decision_prac,35,224480,0.0-13.0-2.0,,1112,run_exp/static/images/task_images/land.jpg,65,,,,,,,,,,3,,,,,,,,,,,,,
dig_prac,36,226500,0.0-14.0-0.0,,,,,,,,,,,"[{""stimulus"":""run_exp/static/images/task_images/dig.jpg"",""time"":0},{""stimulus"":""run_exp/static/images/task_images/land.jpg"",""time"":673},{""stimulus"":""run_exp/static/images/task_images/dig.jpg"",""time"":1342}]",[],,,,,,,,,,,,,,,
harvest_prac,37,227502,0.0-14.0-1.0,,null,run_exp/static/images/task_images/barrel_text.jpg,null,,,,,,,,,,,,,,,,,,,,,,,
decision_prac,38,228016,0.0-14.0-2.0,,513,run_exp/static/images/task_images/land.jpg,76,,,,,,,,,,4,,,,,,,,,,,,,
travel,39,237541,0.0-15.0-0.0,,,,,,,,,,,"[{""stimulus"":""run_exp/static/images/task_images/rocket-01.jpg"",""time"":0},{""stimulus"":""run_exp/static/images/task_images/rocket-02.jpg"",""time"":1057},{""stimulus"":""run_exp/static/images/task_images/rocket-03.jpg"",""time"":2112},{""stimulus"":""run_exp/static/images/task_images/rocket-04.jpg"",""time"":3170},{""stimulus"":""run_exp/static/images/task_images/rocket-05.jpg"",""time"":4225},{""stimulus"":""run_exp/static/images/task_images/rocket-06.jpg"",""time"":5284},{""stimulus"":""run_exp/static/images/task_images/rocket-07.jpg"",""time"":6340},{""stimulus"":""run_exp/static/images/task_images/rocket-08.jpg"",""time"":7399},{""stimulus"":""run_exp/static/images/task_images/rocket-09.jpg"",""time"":8453}]",[],0,,,,,,,,,,,,,,
alien_welcome_prac,40,242545,0.0-15.0-1.0,,null,run_exp/static/images/task_images/aliens/practice_aliens/planet/alien_planet-4.jpg,null,,,,,,,,,,,,,,,,,,,,,,,
land_prac,41,243051,0.0-15.0-2.0,,null,run_exp/static/images/task_images/land.jpg,null,,,,,,110,,,0,,,,,,,,,,,,,,
dig_prac,42,245072,0.0-15.0-3.0,,,,,,,,,,,"[{""stimulus"":""run_exp/static/images/task_images/dig.jpg"",""time"":0},{""stimulus"":""run_exp/static/images/task_images/land.jpg"",""time"":667},{""stimulus"":""run_exp/static/images/task_images/dig.jpg"",""time"":1340}]",[],,,,,,,,,,,,,,,
harvest_prac,43,246074,0.0-15.0-4.0,,null,run_exp/static/images/task_images/barrel_text.jpg,null,,,,,,,,,,,,,,,,,,,,,,,
decision_prac,44,246566,0.0-15.0-5.0,,491,run_exp/static/images/task_images/land.jpg,65,,,,,,,,,,,1,,,,,,,,,,,,
quiz_instruc,45,259204,0.0-16.0-0.0,,12633,run_exp/static/audio/clip_10_quiz.m4a,,,,,,0,,,,,,,,,,,,,,,,,,
instruc_repeat,46,301952,0.0-16.0-1.0,,null,"<p> Are you ready to play a practice game? </p> <p>In this practice game, you'll be digging up barrels of gems. But, in the real game, you'll be digging up the gems themselves. </p>",null,"<p>In this game, your goal is to collect as many gems as you can. That’s how you will win bonus money. </p> <p>The entire game will last 20 minutes no matter how many gems you collect or how many planets you visit. </p><p>To stay on a planet and dig again, press the letter A on your keyboard. To leave for a new planet, press the letter L.</p><p>The more you dig on a planet, the fewer gems you’ll get with each dig which is why you might consider leaving for a new planet. </p><p>When you arrive at a new planet, you’ll be greeted by an alien. What the alien looks like does not tell you anything about how much treasure is on the planet. </p>",,,,,,,,,,,,,,,,,,,,,,
instruc_repeat_continue,47,304036,0.0-16.0-2.0,,2083,"<p> Are you ready to play a practice game? </p> <p>In this practice game, you'll be digging up barrels of gems. But, in the real game, you'll be digging up the gems themselves. </p>",,,,,,0,,,,,,,,,,,,,,,,,,
quiz_q_1_ask,48,314246,0.0-16.0-3.0,,10210,run_exp/static/audio/clip_11_q1_ask.m4a,,,,,,2,,,,,,,,,,,,,,,,,,
quiz_q_1_fb_correct,49,318091,0.0-17.0-0.0,,null,run_exp/static/audio/clip_12_q1_corrrect.m4a,null,<p>That’s correct. You win extra money by collecting more gems.</p>,,,,,,,,,,,,,,,,,,,,,,
quiz_q_2_ask,50,330046,0.0-17.0-1.0,,11953,run_exp/static/audio/clip_14_q2_ask.m4a,,,,,,1,,,,,,,,,,,,,,,,,,
quiz_q_2_fb_correct,51,334055,0.0-18.0-0.0,,null,run_exp/static/audio/clip_15_q2_correct.m4a,null,<p>That’s correct. The experiment is 20 minutes no matter what.</p>,,,,,,,,,,,,,,,,,,,,,,
quiz_q_3_ask,52,338322,0.0-18.0-1.0,,4266,run_exp/static/audio/clip_17_q3_ask.m4a,,,,,,1,,,,,,,,,,,,,,,,,,
quiz_q_3_fb_correct,53,342299,0.0-19.0-0.0,,null,run_exp/static/audio/clip_18_q3_correct.m4a,null,<p> That’s correct. You press the letter L to travel to a new planet.</p>,,,,,,,,,,,,,,,,,,,,,,
quiz_q_4_ask,54,352819,0.0-19.0-1.0,,10519,run_exp/static/audio/clip_20_q4_ask.m4a,,,,,,0,,,,,,,,,,,,,,,,,,
quiz_q_4_fb_correct,55,358146,0.0-20.0-0.0,,null,run_exp/static/audio/clip_21_q4_correct.m4a,null,<p> That’s correct. The more you dig on a planet the fewer gems you’ll get with each dig. </p>,,,,,,,,,,,,,,,,,,,,,,
quiz_q_5_ask,56,363101,0.0-20.0-1.0,,4953,run_exp/static/audio/clip_23_q5_ask.m4a,,,,,,1,,,,,,,,,,,,,,,,,,
quiz_q_5_fb_correct,57,368091,0.0-21.0-0.0,,null,run_exp/static/audio/clip_24_q5_correct.m4a,null,<p> That’s correct. The alien tells you nothing about how much treasure is on the planet.</p>,,,,,,,,,,,,,,,,,,,,,,
quiz_correct,58,371552,0.0-22.0-0.0,,null,run_exp/static/audio/clip_26_correct_quiz.m4a,null,,,,,,,,,,,,,,,,,,,,,,,
quiz_correct_continue,59,373802,0.0-22.0-1.0,,2249,<p>Good job! You're now ready to move on to the real game!</p>,,,,,,0,,,,,,,,,,,,,,,,,,
audio-keyboard-response,60,383918,0.0-22.0-2.0,,null,run_exp/static/audio/clip_28_real_game.m4a,null,,,,,,,,,,,,,,,,,,,,,,,
instruc_begin_exp_contine,61,386170,0.0-22.0-3.0,,2252,"<p>Now that you know how  to dig for space treasure and travel to new planets,you can start exploring! </p><p>Do you want to go over the instructions again or get started with the real game?</p>",,,,,,1,,,,,,1,,,,,,,,,,,,
alien_welcome,62,391179,0.0-23.0-0.0,,null,run_exp/static/images/task_images/aliens/old_aliens/planet/alien_planet-71.jpg,null,,,,,,,,,,,,71,"71,39,35,43,38,32,73,75,69,52,22,9,28,77,42,21,74,8,72,30,78,49,47,7,23,48,65,15,26,44,16,31,14,1,57,66",,,,,,,,,,
land,63,391682,0.0-23.0-1.0,,null,run_exp/static/images/task_images/land.jpg,null,,,,,,99,,,1,,,,,,,,,,,,,,
dig,64,393704,0.0-23.0-2.0,,,,,,,,,,,"[{""stimulus"":""run_exp/static/images/task_images/dig.jpg"",""time"":0},{""stimulus"":""run_exp/static/images/task_images/land.jpg"",""time"":673},{""stimulus"":""run_exp/static/images/task_images/dig.jpg"",""time"":1340}]",[],1,,,,,,,,,,,,,,
harvest,65,394709,0.0-23.0-3.0,,null,run_exp/static/images/task_images/gems/99.jpg,null,,,,,,20,,,1,,,,,99,0.205374247,0.202020202,,,,,,,
decision,66,396127,0.0-23.0-4.0,,1415,run_exp/static/images/task_images/land.jpg,65,,,,,,20,,,1,,,,,,,,9955,1,0,FALSE,,,
dig,67,397733,0.0-24.0-0.0,,,,,,,,,,,"[{""stimulus"":""run_exp/static/images/task_images/dig.jpg"",""time"":0},{""stimulus"":""run_exp/static/images/task_images/land.jpg"",""time"":534},{""stimulus"":""run_exp/static/images/task_images/dig.jpg"",""time"":1062}]",[],1,,,,,,,,,,,,,,
harvest,68,398737,0.0-24.0-1.0,,null,run_exp/static/images/task_images/gems/20.jpg,null,,,,,,4,,,1,,,,,20,0.218281224,0.2,,,,,,,
decision,69,399658,0.0-24.0-2.0,,919,run_exp/static/images/task_images/land.jpg,76,,,,,,4,,,1,,,,,,,,13485,1,1,TRUE,,,
travel,70,408758,0.0-25.0-0.0,,,,,,,,,,,"[{""stimulus"":""run_exp/static/images/task_images/rocket-01.jpg"",""time"":0},{""stimulus"":""run_exp/static/images/task_images/rocket-02.jpg"",""time"":1010},{""stimulus"":""run_exp/static/images/task_images/rocket-03.jpg"",""time"":2019},{""stimulus"":""run_exp/static/images/task_images/rocket-04.jpg"",""time"":3030},{""stimulus"":""run_exp/static/images/task_images/rocket-05.jpg"",""time"":4040},{""stimulus"":""run_exp/static/images/task_images/rocket-06.jpg"",""time"":5050},{""stimulus"":""run_exp/static/images/task_images/rocket-07.jpg"",""time"":6059},{""stimulus"":""run_exp/static/images/task_images/rocket-08.jpg"",""time"":7070},{""stimulus"":""run_exp/static/images/task_images/rocket-09.jpg"",""time"":8080}]",[],1,,,,,,,,,,,,,,
alien_welcome,71,413765,0.0-25.0-1.0,,null,run_exp/static/images/task_images/aliens/old_aliens/planet/alien_planet-39.jpg,null,,,,,,,,,,,,39,"71,39,35,43,38,32,73,75,69,52,22,9,28,77,42,21,74,8,72,30,78,49,47,7,23,48,65,15,26,44,16,31,14,1,57,66",,,,,,,,,,
land,72,414271,0.0-25.0-2.0,,null,run_exp/static/images/task_images/land.jpg,null,,,,,,111,,,2,,,,,,,,,,,,,,
dig,73,416306,0.0-25.0-3.0,,,,,,,,,,,"[{""stimulus"":""run_exp/static/images/task_images/dig.jpg"",""time"":0},{""stimulus"":""run_exp/static/images/task_images/land.jpg"",""time"":669},{""stimulus"":""run_exp/static/images/task_images/dig.jpg"",""time"":1337}]",[],2,,,,,,,,,,,,,,
harvest,74,417311,0.0-25.0-4.0,,null,run_exp/static/images/task_images/gems/111.jpg,null,,,,,,20,,,2,,,,,111,0.177683786,0.18018018,,,,,,,
decision,75,417434,0.0-25.0-5.0,,123,run_exp/static/images/task_images/land.jpg,65,,,,,,20,,,2,,,,,,,,31262,1,0,FALSE,,,
dig,76,420332,0.0-26.0-0.0,,,,,,,,,,,"[{""stimulus"":""run_exp/static/images/task_images/dig.jpg"",""time"":0},{""stimulus"":""run_exp/static/images/task_images/land.jpg"",""time"":962},{""stimulus"":""run_exp/static/images/task_images/dig.jpg"",""time"":1926}]",[],2,,,,,,,,,,,,,,
harvest,77,421337,0.0-26.0-1.0,,null,run_exp/static/images/task_images/gems/20.jpg,null,,,,,,5,,,2,,,,,20,0.228564903,0.25,,,,,,,
decision,78,421490,0.0-26.0-2.0,,153,run_exp/static/images/task_images/land.jpg,65,,,,,,5,,,2,,,,,,,,35318,1,1,FALSE,,,
dig,79,424354,0.0-27.0-0.0,,,,,,,,,,,"[{""stimulus"":""run_exp/static/images/task_images/dig.jpg"",""time"":0},{""stimulus"":""run_exp/static/images/task_images/land.jpg"",""time"":951},{""stimulus"":""run_exp/static/images/task_images/dig.jpg"",""time"":1903}]",[],2,,,,,,,,,,,,,,
harvest,80,425358,0.0-27.0-1.0,,null,run_exp/static/images/task_images/gems/5.jpg,null,,,,,,1,,,2,,,,,5,0.169389753,0.2,,,,,,,
decision,81,426946,0.0-27.0-2.0,,1588,run_exp/static/images/task_images/land.jpg,76,,,,,,1,,,2,,,,,,,,40773,1,2,TRUE,,,
travel,82,435388,0.0-28.0-0.0,,,,,,,,,,,"[{""stimulus"":""run_exp/static/images/task_images/rocket-01.jpg"",""time"":0},{""stimulus"":""run_exp/static/images/task_images/rocket-02.jpg"",""time"":934},{""stimulus"":""run_exp/static/images/task_images/rocket-03.jpg"",""time"":1874},{""stimulus"":""run_exp/static/images/task_images/rocket-04.jpg"",""time"":2809},{""stimulus"":""run_exp/static/images/task_images/rocket-05.jpg"",""time"":3743},{""stimulus"":""run_exp/static/images/task_images/rocket-06.jpg"",""time"":4681},{""stimulus"":""run_exp/static/images/task_images/rocket-07.jpg"",""time"":5617},{""stimulus"":""run_exp/static/images/task_images/rocket-08.jpg"",""time"":6553},{""stimulus"":""run_exp/static/images/task_images/rocket-09.jpg"",""time"":7494}]",[],2,,,,,,,,,,,,,,
alien_welcome,83,440390,0.0-28.0-1.0,,null,run_exp/static/images/task_images/aliens/old_aliens/planet/alien_planet-35.jpg,null,,,,,,,,,,,,35,"71,39,35,43,38,32,73,75,69,52,22,9,28,77,42,21,74,8,72,30,78,49,47,7,23,48,65,15,26,44,16,31,14,1,57,66",,,,,,,,,,
land,84,440894,0.0-28.0-2.0,,null,run_exp/static/images/task_images/land.jpg,null,,,,,,101,,,3,,,,,,,,,,,,,,
dig,85,442927,0.0-28.0-3.0,,,,,,,,,,,"[{""stimulus"":""run_exp/static/images/task_images/dig.jpg"",""time"":0},{""stimulus"":""run_exp/static/images/task_images/land.jpg"",""time"":676},{""stimulus"":""run_exp/static/images/task_images/dig.jpg"",""time"":1349}]",[],3,,,,,,,,,,,,,,
harvest,86,443931,0.0-28.0-4.0,,null,run_exp/static/images/task_images/gems/101.jpg,null,,,,,,46,,,3,,,,,101,0.45728784,0.455445545,,,,,,,
decision,87,445322,0.0-28.0-5.0,,1390,run_exp/static/images/task_images/land.jpg,65,,,,,,46,,,3,,,,,,,,59149,1,0,FALSE,,,
dig,88,446948,0.0-29.0-0.0,,,,,,,,,,,"[{""stimulus"":""run_exp/static/images/task_images/dig.jpg"",""time"":0},{""stimulus"":""run_exp/static/images/task_images/land.jpg"",""time"":543},{""stimulus"":""run_exp/static/images/task_images/dig.jpg"",""time"":1081}]",[],3,,,,,,,,,,,,,,
harvest,89,447953,0.0-29.0-1.0,,null,run_exp/static/images/task_images/gems/46.jpg,null,,,,,,20,,,3,,,,,46,0.427684502,0.434782609,,,,,,,
decision,90,449333,0.0-29.0-2.0,,1378,run_exp/static/images/task_images/land.jpg,65,,,,,,20,,,3,,,,,,,,63161,1,1,FALSE,,,
dig,91,450973,0.0-30.0-0.0,,,,,,,,,,,"[{""stimulus"":""run_exp/static/images/task_images/dig.jpg"",""time"":0},{""stimulus"":""run_exp/static/images/task_images/land.jpg"",""time"":546},{""stimulus"":""run_exp/static/images/task_images/dig.jpg"",""time"":1091}]",[],3,,,,,,,,,,,,,,
harvest,92,451975,0.0-30.0-1.0,,null,run_exp/static/images/task_images/gems/20.jpg,null,,,,,,11,,,3,,,,,20,0.528140515,0.55,,,,,,,
decision,93,453314,0.0-30.0-2.0,,1338,run_exp/static/images/task_images/land.jpg,76,,,,,,11,,,3,,,,,,,,67141,1,2,TRUE,,,
travel,94,461991,0.0-31.0-0.0,,,,,,,,,,,"[{""stimulus"":""run_exp/static/images/task_images/rocket-01.jpg"",""time"":0},{""stimulus"":""run_exp/static/images/task_images/rocket-02.jpg"",""time"":963},{""stimulus"":""run_exp/static/images/task_images/rocket-03.jpg"",""time"":1925},{""stimulus"":""run_exp/static/images/task_images/rocket-04.jpg"",""time"":2888},{""stimulus"":""run_exp/static/images/task_images/rocket-05.jpg"",""time"":3850},{""stimulus"":""run_exp/static/images/task_images/rocket-06.jpg"",""time"":4813},{""stimulus"":""run_exp/static/images/task_images/rocket-07.jpg"",""time"":5776},{""stimulus"":""run_exp/static/images/task_images/rocket-08.jpg"",""time"":6740},{""stimulus"":""run_exp/static/images/task_images/rocket-09.jpg"",""time"":7702}]",[],3,,,,,,,,,,,,,,
alien_welcome,95,466998,0.0-31.0-1.0,,null,run_exp/static/images/task_images/aliens/old_aliens/planet/alien_planet-43.jpg,null,,,,,,,,,,,,43,"71,39,35,43,38,32,73,75,69,52,22,9,28,77,42,21,74,8,72,30,78,49,47,7,23,48,65,15,26,44,16,31,14,1,57,66",,,,,,,,,,
land,96,467504,0.0-31.0-2.0,,null,run_exp/static/images/task_images/land.jpg,null,,,,,,113,,,4,,,,,,,,,,,,,,
dig,97,469525,0.0-31.0-3.0,,,,,,,,,,,"[{""stimulus"":""run_exp/static/images/task_images/dig.jpg"",""time"":0},{""stimulus"":""run_exp/static/images/task_images/land.jpg"",""time"":668},{""stimulus"":""run_exp/static/images/task_images/dig.jpg"",""time"":1340}]",[],4,,,,,,,,,,,,,,
harvest,98,470532,0.0-31.0-4.0,,null,run_exp/static/images/task_images/gems/113.jpg,null,,,,,,52,,,4,,,,,113,0.464189534,0.460176991,,,,,,,
decision,99,471396,0.0-31.0-5.0,,862,run_exp/static/images/task_images/land.jpg,65,,,,,,52,,,4,,,,,,,,85223,1,0,FALSE,,,
dig,100,473555,0.0-32.0-0.0,,,,,,,,,,,"[{""stimulus"":""run_exp/static/images/task_images/dig.jpg"",""time"":0},{""stimulus"":""run_exp/static/images/task_images/land.jpg"",""time"":717},{""stimulus"":""run_exp/static/images/task_images/dig.jpg"",""time"":1433}]",[],4,,,,,,,,,,,,,,
harvest,101,474557,0.0-32.0-1.0,,null,run_exp/static/images/task_images/gems/52.jpg,null,,,,,,26,,,4,,,,,52,0.498581937,0.5,,,,,,,
decision,102,475810,0.0-32.0-2.0,,1252,run_exp/static/images/task_images/land.jpg,65,,,,,,26,,,4,,,,,,,,89637,1,1,FALSE,,,
dig,103,477572,0.0-33.0-0.0,,,,,,,,,,,"[{""stimulus"":""run_exp/static/images/task_images/dig.jpg"",""time"":0},{""stimulus"":""run_exp/static/images/task_images/land.jpg"",""time"":584},{""stimulus"":""run_exp/static/images/task_images/dig.jpg"",""time"":1169}]",[],4,,,,,,,,,,,,,,
harvest,104,478579,0.0-33.0-1.0,,null,run_exp/static/images/task_images/gems/26.jpg,null,,,,,,16,,,4,,,,,26,0.621107854,0.615384615,,,,,,,
decision,105,478715,0.0-33.0-2.0,,135,run_exp/static/images/task_images/land.jpg,65,,,,,,16,,,4,,,,,,,,92543,1,2,FALSE,,,
dig,106,481599,0.0-34.0-0.0,,,,,,,,,,,"[{""stimulus"":""run_exp/static/images/task_images/dig.jpg"",""time"":0},{""stimulus"":""run_exp/static/images/task_images/land.jpg"",""time"":956},{""stimulus"":""run_exp/static/images/task_images/dig.jpg"",""time"":1914}]",[],4,,,,,,,,,,,,,,
harvest,107,482599,0.0-34.0-1.0,,null,run_exp/static/images/task_images/gems/16.jpg,null,,,,,,8,,,4,,,,,16,0.50642116,0.5,,,,,,,
decision,108,483425,0.0-34.0-2.0,,824,run_exp/static/images/task_images/land.jpg,65,,,,,,8,,,4,,,,,,,,97252,1,3,FALSE,,,
dig,109,485617,0.0-35.0-0.0,,,,,,,,,,,"[{""stimulus"":""run_exp/static/images/task_images/dig.jpg"",""time"":0},{""stimulus"":""run_exp/static/images/task_images/land.jpg"",""time"":727},{""stimulus"":""run_exp/static/images/task_images/dig.jpg"",""time"":1454}]",[],4,,,,,,,,,,,,,,
harvest,110,486619,0.0-35.0-1.0,,null,run_exp/static/images/task_images/gems/8.jpg,null,,,,,,4,,,4,,,,,8,0.529294539,0.5,,,,,,,
decision,111,487691,0.0-35.0-2.0,,1071,run_exp/static/images/task_images/land.jpg,76,,,,,,4,,,4,,,,,,,,101518,1,4,TRUE,,,
travel,112,496657,0.0-36.0-0.0,,,,,,,,,,,"[{""stimulus"":""run_exp/static/images/task_images/rocket-01.jpg"",""time"":1},{""stimulus"":""run_exp/static/images/task_images/rocket-02.jpg"",""time"":994},{""stimulus"":""run_exp/static/images/task_images/rocket-03.jpg"",""time"":1990},{""stimulus"":""run_exp/static/images/task_images/rocket-04.jpg"",""time"":2984},{""stimulus"":""run_exp/static/images/task_images/rocket-05.jpg"",""time"":3978},{""stimulus"":""run_exp/static/images/task_images/rocket-06.jpg"",""time"":4975},{""stimulus"":""run_exp/static/images/task_images/rocket-07.jpg"",""time"":5972},{""stimulus"":""run_exp/static/images/task_images/rocket-08.jpg"",""time"":6965},{""stimulus"":""run_exp/static/images/task_images/rocket-09.jpg"",""time"":7959}]",[],4,,,,,,,,,,,,,,
alien_welcome,113,501661,0.0-36.0-1.0,,null,run_exp/static/images/task_images/aliens/old_aliens/planet/alien_planet-38.jpg,null,,,,,,,,,,,,38,"71,39,35,43,38,32,73,75,69,52,22,9,28,77,42,21,74,8,72,30,78,49,47,7,23,48,65,15,26,44,16,31,14,1,57,66",,,,,,,,,,
land,114,502163,0.0-36.0-2.0,,null,run_exp/static/images/task_images/land.jpg,null,,,,,,105,,,5,,,,,,,,,,,,,,
dig,115,504184,0.0-36.0-3.0,,,,,,,,,,,"[{""stimulus"":""run_exp/static/images/task_images/dig.jpg"",""time"":0},{""stimulus"":""run_exp/static/images/task_images/land.jpg"",""time"":673},{""stimulus"":""run_exp/static/images/task_images/dig.jpg"",""time"":1342}]",[],5,,,,,,,,,,,,,,
harvest,116,505189,0.0-36.0-4.0,,null,run_exp/static/images/task_images/gems/105.jpg,null,,,,,,53,,,5,,,,,105,0.502181541,0.504761905,,,,,,,
decision,117,506063,0.0-36.0-5.0,,872,run_exp/static/images/task_images/land.jpg,65,,,,,,53,,,5,,,,,,,,119890,1,0,FALSE,,,
dig,118,508212,0.0-37.0-0.0,,,,,,,,,,,"[{""stimulus"":""run_exp/static/images/task_images/dig.jpg"",""time"":0},{""stimulus"":""run_exp/static/images/task_images/land.jpg"",""time"":711},{""stimulus"":""run_exp/static/images/task_images/dig.jpg"",""time"":1425}]",[],5,,,,,,,,,,,,,,
harvest,119,509215,0.0-37.0-1.0,,null,run_exp/static/images/task_images/gems/53.jpg,null,,,,,,24,,,5,,,,,53,0.444828822,0.452830189,,,,,,,
decision,120,509276,0.0-37.0-2.0,,60,run_exp/static/images/task_images/land.jpg,65,,,,,,24,,,5,,,,,,,,123103,1,1,FALSE,,,
dig,121,512230,0.0-38.0-0.0,,,,,,,,,,,"[{""stimulus"":""run_exp/static/images/task_images/dig.jpg"",""time"":0},{""stimulus"":""run_exp/static/images/task_images/land.jpg"",""time"":981},{""stimulus"":""run_exp/static/images/task_images/dig.jpg"",""time"":1962}]",[],5,,,,,,,,,,,,,,
harvest,122,513237,0.0-38.0-1.0,,null,run_exp/static/images/task_images/gems/24.jpg,null,,,,,,11,,,5,,,,,24,0.454150128,0.458333333,,,,,,,
decision,123,514239,0.0-38.0-2.0,,1001,run_exp/static/images/task_images/land.jpg,65,,,,,,11,,,5,,,,,,,,128066,1,2,FALSE,,,
dig,124,516254,0.0-39.0-0.0,,,,,,,,,,,"[{""stimulus"":""run_exp/static/images/task_images/dig.jpg"",""time"":0},{""stimulus"":""run_exp/static/images/task_images/land.jpg"",""time"":669},{""stimulus"":""run_exp/static/images/task_images/dig.jpg"",""time"":1334}]",[],5,,,,,,,,,,,,,,
harvest,125,517256,0.0-39.0-1.0,,null,run_exp/static/images/task_images/gems/11.jpg,null,,,,,,5,,,5,,,,,11,0.423329201,0.454545455,,,,,,,
decision,126,518077,0.0-39.0-2.0,,819,run_exp/static/images/task_images/land.jpg,76,,,,,,5,,,5,,,,,,,,131904,1,3,TRUE,,,
travel,127,527291,0.0-40.0-0.0,,,,,,,,,,,"[{""stimulus"":""run_exp/static/images/task_images/rocket-01.jpg"",""time"":0},{""stimulus"":""run_exp/static/images/task_images/rocket-02.jpg"",""time"":1022},{""stimulus"":""run_exp/static/images/task_images/rocket-03.jpg"",""time"":2047},{""stimulus"":""run_exp/static/images/task_images/rocket-04.jpg"",""time"":3071},{""stimulus"":""run_exp/static/images/task_images/rocket-05.jpg"",""time"":4092},{""stimulus"":""run_exp/static/images/task_images/rocket-06.jpg"",""time"":5112},{""stimulus"":""run_exp/static/images/task_images/rocket-07.jpg"",""time"":6138},{""stimulus"":""run_exp/static/images/task_images/rocket-08.jpg"",""time"":7158},{""stimulus"":""run_exp/static/images/task_images/rocket-09.jpg"",""time"":8177}]",[],5,,,,,,,,,,,,,,
alien_welcome,128,532297,0.0-40.0-1.0,,null,run_exp/static/images/task_images/aliens/old_aliens/planet/alien_planet-32.jpg,null,,,,,,,,,,,,32,"71,39,35,43,38,32,73,75,69,52,22,9,28,77,42,21,74,8,72,30,78,49,47,7,23,48,65,15,26,44,16,31,14,1,57,66",,,,,,,,,,
land,129,532803,0.0-40.0-2.0,,null,run_exp/static/images/task_images/land.jpg,null,,,,,,101,,,6,,,,,,,,,,,,,,
dig,130,534825,0.0-40.0-3.0,,,,,,,,,,,"[{""stimulus"":""run_exp/static/images/task_images/dig.jpg"",""time"":0},{""stimulus"":""run_exp/static/images/task_images/land.jpg"",""time"":672},{""stimulus"":""run_exp/static/images/task_images/dig.jpg"",""time"":1343}]",[],6,,,,,,,,,,,,,,
harvest,131,535830,0.0-40.0-4.0,,null,run_exp/static/images/task_images/gems/101.jpg,null,,,,,,86,,,6,,,,,101,0.854157184,0.851485149,,,,,,,
decision,132,536109,0.0-40.0-5.0,,276,run_exp/static/images/task_images/land.jpg,65,,,,,,86,,,6,,,,,,,,149936,1,0,FALSE,,,
dig,133,538852,0.0-41.0-0.0,,,,,,,,,,,"[{""stimulus"":""run_exp/static/images/task_images/dig.jpg"",""time"":1},{""stimulus"":""run_exp/static/images/task_images/land.jpg"",""time"":913},{""stimulus"":""run_exp/static/images/task_images/dig.jpg"",""time"":1823}]",[],6,,,,,,,,,,,,,,
harvest,134,539858,0.0-41.0-1.0,,null,run_exp/static/images/task_images/gems/86.jpg,null,,,,,,69,,,6,,,,,86,0.805004415,0.802325581,,,,,,,
decision,135,542260,0.0-41.0-2.0,,2399,run_exp/static/images/task_images/land.jpg,65,,,,,,69,,,6,,,,,,,,156087,1,1,FALSE,,,
dig,136,542875,0.0-42.0-0.0,,,,,,,,,,,"[{""stimulus"":""run_exp/static/images/task_images/dig.jpg"",""time"":0},{""stimulus"":""run_exp/static/images/task_images/land.jpg"",""time"":204},{""stimulus"":""run_exp/static/images/task_images/dig.jpg"",""time"":404}]",[],6,,,,,,,,,,,,,,
harvest,137,543878,0.0-42.0-1.0,,null,run_exp/static/images/task_images/gems/69.jpg,null,,,,,,56,,,6,,,,,69,0.813599958,0.811594203,,,,,,,
decision,138,544016,0.0-42.0-2.0,,138,run_exp/static/images/task_images/land.jpg,65,,,,,,56,,,6,,,,,,,,157843,1,2,FALSE,,,
dig,139,546898,0.0-43.0-0.0,,,,,,,,,,,"[{""stimulus"":""run_exp/static/images/task_images/dig.jpg"",""time"":0},{""stimulus"":""run_exp/static/images/task_images/land.jpg"",""time"":955},{""stimulus"":""run_exp/static/images/task_images/dig.jpg"",""time"":1914}]",[],6,,,,,,,,,,,,,,
harvest,140,547901,0.0-43.0-1.0,,null,run_exp/static/images/task_images/gems/56.jpg,null,,,,,,44,,,6,,,,,56,0.784318933,0.785714286,,,,,,,
decision,141,550099,0.0-43.0-2.0,,2198,run_exp/static/images/task_images/land.jpg,65,,,,,,44,,,6,,,,,,,,163926,1,3,FALSE,,,
dig,142,550915,0.0-44.0-0.0,,,,,,,,,,,"[{""stimulus"":""run_exp/static/images/task_images/dig.jpg"",""time"":1},{""stimulus"":""run_exp/static/images/task_images/land.jpg"",""time"":271},{""stimulus"":""run_exp/static/images/task_images/dig.jpg"",""time"":538}]",[],6,,,,,,,,,,,,,,
harvest,143,551918,0.0-44.0-1.0,,null,run_exp/static/images/task_images/gems/44.jpg,null,,,,,,36,,,6,,,,,44,0.81370009,0.818181818,,,,,,,
decision,144,551956,0.0-44.0-2.0,,38,run_exp/static/images/task_images/land.jpg,65,,,,,,36,,,6,,,,,,,,165783,1,4,FALSE,,,
dig,145,554936,0.0-45.0-0.0,,,,,,,,,,,"[{""stimulus"":""run_exp/static/images/task_images/dig.jpg"",""time"":1},{""stimulus"":""run_exp/static/images/task_images/land.jpg"",""time"":992},{""stimulus"":""run_exp/static/images/task_images/dig.jpg"",""time"":1980}]",[],6,,,,,,,,,,,,,,
harvest,146,555939,0.0-45.0-1.0,,null,run_exp/static/images/task_images/gems/36.jpg,null,,,,,,32,,,6,,,,,36,0.898168009,0.888888889,,,,,,,
decision,147,558214,0.0-45.0-2.0,,2273,run_exp/static/images/task_images/land.jpg,76,,,,,,32,,,6,,,,,,,,172041,1,5,TRUE,,,
travel,148,565964,0.0-46.0-0.0,,,,,,,,,,,"[{""stimulus"":""run_exp/static/images/task_images/rocket-01.jpg"",""time"":0},{""stimulus"":""run_exp/static/images/task_images/rocket-02.jpg"",""time"":860},{""stimulus"":""run_exp/static/images/task_images/rocket-03.jpg"",""time"":1719},{""stimulus"":""run_exp/static/images/task_images/rocket-04.jpg"",""time"":2582},{""stimulus"":""run_exp/static/images/task_images/rocket-05.jpg"",""time"":3441},{""stimulus"":""run_exp/static/images/task_images/rocket-06.jpg"",""time"":4301},{""stimulus"":""run_exp/static/images/task_images/rocket-07.jpg"",""time"":5161},{""stimulus"":""run_exp/static/images/task_images/rocket-08.jpg"",""time"":6024},{""stimulus"":""run_exp/static/images/task_images/rocket-09.jpg"",""time"":6882}]",[],6,,,,,,,,,,,,,,
alien_welcome,149,570965,0.0-46.0-1.0,,null,run_exp/static/images/task_images/aliens/old_aliens/planet/alien_planet-73.jpg,null,,,,,,,,,,,,73,"71,39,35,43,38,32,73,75,69,52,22,9,28,77,42,21,74,8,72,30,78,49,47,7,23,48,65,15,26,44,16,31,14,1,57,66",,,,,,,,,,
land,150,571472,0.0-46.0-2.0,,null,run_exp/static/images/task_images/land.jpg,null,,,,,,107,,,7,,,,,,,,,,,,,,
dig,151,573492,0.0-46.0-3.0,,,,,,,,,,,"[{""stimulus"":""run_exp/static/images/task_images/dig.jpg"",""time"":1},{""stimulus"":""run_exp/static/images/task_images/land.jpg"",""time"":669},{""stimulus"":""run_exp/static/images/task_images/dig.jpg"",""time"":1341}]",[],7,,,,,,,,,,,,,,
harvest,152,574497,0.0-46.0-4.0,,null,run_exp/static/images/task_images/gems/107.jpg,null,,,,,,77,,,7,,,,,107,0.718750305,0.719626168,,,,,,,
decision,153,575381,0.0-46.0-5.0,,883,run_exp/static/images/task_images/land.jpg,65,,,,,,77,,,7,,,,,,,,189208,1,0,FALSE,,,
dig,154,577514,0.0-47.0-0.0,,,,,,,,,,,"[{""stimulus"":""run_exp/static/images/task_images/dig.jpg"",""time"":0},{""stimulus"":""run_exp/static/images/task_images/land.jpg"",""time"":706},{""stimulus"":""run_exp/static/images/task_images/dig.jpg"",""time"":1415}]",[],7,,,,,,,,,,,,,,
harvest,155,578520,0.0-47.0-1.0,,null,run_exp/static/images/task_images/gems/77.jpg,null,,,,,,53,,,7,,,,,77,0.692491442,0.688311688,,,,,,,
decision,156,578868,0.0-47.0-2.0,,346,run_exp/static/images/task_images/land.jpg,65,,,,,,53,,,7,,,,,,,,192696,1,1,FALSE,,,
dig,157,581539,0.0-48.0-0.0,,,,,,,,,,,"[{""stimulus"":""run_exp/static/images/task_images/dig.jpg"",""time"":0},{""stimulus"":""run_exp/static/images/task_images/land.jpg"",""time"":885},{""stimulus"":""run_exp/static/images/task_images/dig.jpg"",""time"":1770}]",[],7,,,,,,,,,,,,,,
harvest,158,582542,0.0-48.0-1.0,,null,run_exp/static/images/task_images/gems/53.jpg,null,,,,,,41,,,7,,,,,53,0.765080472,0.773584906,,,,,,,
decision,159,584406,0.0-48.0-2.0,,1864,run_exp/static/images/task_images/land.jpg,65,,,,,,41,,,7,,,,,,,,198233,1,2,FALSE,,,
dig,160,585559,0.0-49.0-0.0,,,,,,,,,,,"[{""stimulus"":""run_exp/static/images/task_images/dig.jpg"",""time"":0},{""stimulus"":""run_exp/static/images/task_images/land.jpg"",""time"":382},{""stimulus"":""run_exp/static/images/task_images/dig.jpg"",""time"":764}]",[],7,,,,,,,,,,,,,,
harvest,161,586562,0.0-49.0-1.0,,null,run_exp/static/images/task_images/gems/41.jpg,null,,,,,,33,,,7,,,,,41,0.815475602,0.804878049,,,,,,,
decision,162,586820,0.0-49.0-2.0,,255,run_exp/static/images/task_images/land.jpg,65,,,,,,33,,,7,,,,,,,,200647,1,3,FALSE,,,
dig,163,589580,0.0-50.0-0.0,,,,,,,,,,,"[{""stimulus"":""run_exp/static/images/task_images/dig.jpg"",""time"":0},{""stimulus"":""run_exp/static/images/task_images/land.jpg"",""time"":920},{""stimulus"":""run_exp/static/images/task_images/dig.jpg"",""time"":1835}]",[],7,,,,,,,,,,,,,,
harvest,164,590583,0.0-50.0-1.0,,null,run_exp/static/images/task_images/gems/33.jpg,null,,,,,,28,,,7,,,,,33,0.861267344,0.848484848,,,,,,,
decision,165,590788,0.0-50.0-2.0,,203,run_exp/static/images/task_images/land.jpg,65,,,,,,28,,,7,,,,,,,,204615,1,4,FALSE,,,
dig,166,593599,0.0-51.0-0.0,,,,,,,,,,,"[{""stimulus"":""run_exp/static/images/task_images/dig.jpg"",""time"":0},{""stimulus"":""run_exp/static/images/task_images/land.jpg"",""time"":934},{""stimulus"":""run_exp/static/images/task_images/dig.jpg"",""time"":1866}]",[],7,,,,,,,,,,,,,,
harvest,167,594601,0.0-51.0-1.0,,null,run_exp/static/images/task_images/gems/28.jpg,null,,,,,,21,,,7,,,,,28,0.745694476,0.75,,,,,,,
decision,168,594780,0.0-51.0-2.0,,177,run_exp/static/images/task_images/land.jpg,65,,,,,,21,,,7,,,,,,,,208608,1,5,FALSE,,,
dig,169,597619,0.0-52.0-0.0,,,,,,,,,,,"[{""stimulus"":""run_exp/static/images/task_images/dig.jpg"",""time"":0},{""stimulus"":""run_exp/static/images/task_images/land.jpg"",""time"":942},{""stimulus"":""run_exp/static/images/task_images/dig.jpg"",""time"":1885}]",[],7,,,,,,,,,,,,,,
harvest,170,598622,0.0-52.0-1.0,,null,run_exp/static/images/task_images/gems/21.jpg,null,,,,,,16,,,7,,,,,21,0.761502895,0.761904762,,,,,,,
decision,171,598964,0.0-52.0-2.0,,340,run_exp/static/images/task_images/land.jpg,65,,,,,,16,,,7,,,,,,,,212791,1,6,FALSE,,,
dig,172,601643,0.0-53.0-0.0,,,,,,,,,,,"[{""stimulus"":""run_exp/static/images/task_images/dig.jpg"",""time"":0},{""stimulus"":""run_exp/static/images/task_images/land.jpg"",""time"":890},{""stimulus"":""run_exp/static/images/task_images/dig.jpg"",""time"":1781}]",[],7,,,,,,,,,,,,,,
harvest,173,602647,0.0-53.0-1.0,,null,run_exp/static/images/task_images/gems/16.jpg,null,,,,,,12,,,7,,,,,16,0.733671557,0.75,,,,,,,
decision,174,603580,0.0-53.0-2.0,,932,run_exp/static/images/task_images/land.jpg,76,,,,,,12,,,7,,,,,,,,217407,1,7,TRUE,,,
travel,175,612682,0.0-54.0-0.0,,,,,,,,,,,"[{""stimulus"":""run_exp/static/images/task_images/rocket-01.jpg"",""time"":0},{""stimulus"":""run_exp/static/images/task_images/rocket-02.jpg"",""time"":1008},{""stimulus"":""run_exp/static/images/task_images/rocket-03.jpg"",""time"":2017},{""stimulus"":""run_exp/static/images/task_images/rocket-04.jpg"",""time"":3030},{""stimulus"":""run_exp/static/images/task_images/rocket-05.jpg"",""time"":4038},{""stimulus"":""run_exp/static/images/task_images/rocket-06.jpg"",""time"":5050},{""stimulus"":""run_exp/static/images/task_images/rocket-07.jpg"",""time"":6061},{""stimulus"":""run_exp/static/images/task_images/rocket-08.jpg"",""time"":7069},{""stimulus"":""run_exp/static/images/task_images/rocket-09.jpg"",""time"":8081}]",[],7,,,,,,,,,,,,,,
alien_welcome,176,617686,0.0-54.0-1.0,,null,run_exp/static/images/task_images/aliens/old_aliens/planet/alien_planet-75.jpg,null,,,,,,,,,,,,75,"71,39,35,43,38,32,73,75,69,52,22,9,28,77,42,21,74,8,72,30,78,49,47,7,23,48,65,15,26,44,16,31,14,1,57,66",,,,,,,,,,
land,177,618191,0.0-54.0-2.0,,null,run_exp/static/images/task_images/land.jpg,null,,,,,,111,,,8,,,,,,,,,,,,,,
dig,178,620221,0.0-54.0-3.0,,,,,,,,,,,"[{""stimulus"":""run_exp/static/images/task_images/dig.jpg"",""time"":0},{""stimulus"":""run_exp/static/images/task_images/land.jpg"",""time"":674},{""stimulus"":""run_exp/static/images/task_images/dig.jpg"",""time"":1346}]",[],8,,,,,,,,,,,,,,
harvest,179,621242,0.0-54.0-4.0,,null,run_exp/static/images/task_images/gems/111.jpg,null,,,,,,95,,,8,,,,,111,0.859358397,0.855855856,,,,,,,
decision,180,623075,0.0-54.0-5.0,,1832,run_exp/static/images/task_images/land.jpg,65,,,,,,95,,,8,,,,,,,,236902,1,0,FALSE,,,
dig,181,624263,0.0-55.0-0.0,,,,,,,,,,,"[{""stimulus"":""run_exp/static/images/task_images/dig.jpg"",""time"":0},{""stimulus"":""run_exp/static/images/task_images/land.jpg"",""time"":394},{""stimulus"":""run_exp/static/images/task_images/dig.jpg"",""time"":785}]",[],8,,,,,,,,,,,,,,
harvest,182,625267,0.0-55.0-1.0,,null,run_exp/static/images/task_images/gems/95.jpg,null,,,,,,75,,,8,,,,,95,0.792460789,0.789473684,,,,,,,
decision,183,625602,0.0-55.0-2.0,,333,run_exp/static/images/task_images/land.jpg,65,,,,,,75,,,8,,,,,,,,239429,1,1,FALSE,,,
dig,184,628286,0.0-56.0-0.0,,,,,,,,,,,"[{""stimulus"":""run_exp/static/images/task_images/dig.jpg"",""time"":0},{""stimulus"":""run_exp/static/images/task_images/land.jpg"",""time"":892},{""stimulus"":""run_exp/static/images/task_images/dig.jpg"",""time"":1784}]",[],8,,,,,,,,,,,,,,
harvest,185,629293,0.0-56.0-1.0,,null,run_exp/static/images/task_images/gems/75.jpg,null,,,,,,55,,,8,,,,,75,0.734412213,0.733333333,,,,,,,
decision,186,631021,0.0-56.0-2.0,,1728,run_exp/static/images/task_images/land.jpg,65,,,,,,55,,,8,,,,,,,,244848,1,2,FALSE,,,
dig,187,632309,0.0-57.0-0.0,,,,,,,,,,,"[{""stimulus"":""run_exp/static/images/task_images/dig.jpg"",""time"":0},{""stimulus"":""run_exp/static/images/task_images/land.jpg"",""time"":425},{""stimulus"":""run_exp/static/images/task_images/dig.jpg"",""time"":850}]",[],8,,,,,,,,,,,,,,
harvest,188,633310,0.0-57.0-1.0,,null,run_exp/static/images/task_images/gems/55.jpg,null,,,,,,46,,,8,,,,,55,0.835243043,0.836363636,,,,,,,
decision,189,636091,0.0-57.0-2.0,,2777,run_exp/static/images/task_images/land.jpg,65,,,,,,46,,,8,,,,,,,,249918,1,3,FALSE,,,
dig,190,636332,0.0-58.0-0.0,,,,,,,,,,,"[{""stimulus"":""run_exp/static/images/task_images/dig.jpg"",""time"":0},{""stimulus"":""run_exp/static/images/task_images/land.jpg"",""time"":77},{""stimulus"":""run_exp/static/images/task_images/dig.jpg"",""time"":157}]",[],8,,,,,,,,,,,,,,
harvest,191,637333,0.0-58.0-1.0,,null,run_exp/static/images/task_images/gems/46.jpg,null,,,,,,38,,,8,,,,,46,0.823728148,0.826086957,,,,,,,
decision,192,637609,0.0-58.0-2.0,,275,run_exp/static/images/task_images/land.jpg,65,,,,,,38,,,8,,,,,,,,251437,1,4,FALSE,,,
dig,193,640369,0.0-59.0-0.0,,,,,,,,,,,"[{""stimulus"":""run_exp/static/images/task_images/dig.jpg"",""time"":0},{""stimulus"":""run_exp/static/images/task_images/land.jpg"",""time"":910},{""stimulus"":""run_exp/static/images/task_images/dig.jpg"",""time"":1837}]",[],8,,,,,,,,,,,,,,
harvest,194,641371,0.0-59.0-1.0,,null,run_exp/static/images/task_images/gems/38.jpg,null,,,,,,31,,,8,,,,,38,0.810588381,0.815789474,,,,,,,
decision,195,643365,0.0-59.0-2.0,,1993,run_exp/static/images/task_images/land.jpg,65,,,,,,31,,,8,,,,,,,,257192,1,5,FALSE,,,
dig,196,644384,0.0-60.0-0.0,,,,,,,,,,,"[{""stimulus"":""run_exp/static/images/task_images/dig.jpg"",""time"":0},{""stimulus"":""run_exp/static/images/task_images/land.jpg"",""time"":336},{""stimulus"":""run_exp/static/images/task_images/dig.jpg"",""time"":672}]",[],8,,,,,,,,,,,,,,
harvest,197,645388,0.0-60.0-1.0,,null,run_exp/static/images/task_images/gems/31.jpg,null,,,,,,26,,,8,,,,,31,0.837900327,0.838709677,,,,,,,
decision,198,648389,0.0-60.0-2.0,,null,run_exp/static/images/task_images/land.jpg,null,,,,,,26,,,8,,,,,,,,262217,1,6,FALSE,,,
time_out,199,650396,0.0-61.0-0.0,,null,run_exp/static/images/task_images/time_out.jpg,null,,,,,,26,,,,,,,,,,,,,,,,,
decision,200,652433,0.0-61.0-1.0,,2036,run_exp/static/images/task_images/land.jpg,65,,,,,,26,,,8,,,,,,,,266260,1,6,FALSE,,,
dig,201,653419,0.0-62.0-0.0,,,,,,,,,,,"[{""stimulus"":""run_exp/static/images/task_images/dig.jpg"",""time"":0},{""stimulus"":""run_exp/static/images/task_images/land.jpg"",""time"":327},{""stimulus"":""run_exp/static/images/task_images/dig.jpg"",""time"":653}]",[],8,,,,,,,,,,,,,,
harvest,202,654421,0.0-62.0-1.0,,null,run_exp/static/images/task_images/gems/26.jpg,null,,,,,,20,,,8,,,,,26,0.786014356,0.769230769,,,,,,,
decision,203,654842,0.0-62.0-2.0,,419,run_exp/static/images/task_images/land.jpg,65,,,,,,20,,,8,,,,,,,,268669,1,7,FALSE,,,
dig,204,657441,0.0-63.0-0.0,,,,,,,,,,,"[{""stimulus"":""run_exp/static/images/task_images/dig.jpg"",""time"":0},{""stimulus"":""run_exp/static/images/task_images/land.jpg"",""time"":861},{""stimulus"":""run_exp/static/images/task_images/dig.jpg"",""time"":1727}]",[],8,,,,,,,,,,,,,,
harvest,205,658444,0.0-63.0-1.0,,null,run_exp/static/images/task_images/gems/20.jpg,null,,,,,,16,,,8,,,,,20,0.795855011,0.8,,,,,,,
decision,206,659571,0.0-63.0-2.0,,1126,run_exp/static/images/task_images/land.jpg,76,,,,,,16,,,8,,,,,,,,273398,1,8,TRUE,,,
travel,207,668470,0.0-64.0-0.0,,,,,,,,,,,"[{""stimulus"":""run_exp/static/images/task_images/rocket-01.jpg"",""time"":0},{""stimulus"":""run_exp/static/images/task_images/rocket-02.jpg"",""time"":989},{""stimulus"":""run_exp/static/images/task_images/rocket-03.jpg"",""time"":1978},{""stimulus"":""run_exp/static/images/task_images/rocket-04.jpg"",""time"":2965},{""stimulus"":""run_exp/static/images/task_images/rocket-05.jpg"",""time"":3952},{""stimulus"":""run_exp/static/images/task_images/rocket-06.jpg"",""time"":4939},{""stimulus"":""run_exp/static/images/task_images/rocket-07.jpg"",""time"":5925},{""stimulus"":""run_exp/static/images/task_images/rocket-08.jpg"",""time"":6912},{""stimulus"":""run_exp/static/images/task_images/rocket-09.jpg"",""time"":7899}]",[],8,,,,,,,,,,,,,,
alien_welcome,208,673473,0.0-64.0-1.0,,null,run_exp/static/images/task_images/aliens/old_aliens/planet/alien_planet-69.jpg,null,,,,,,,,,,,,69,"71,39,35,43,38,32,73,75,69,52,22,9,28,77,42,21,74,8,72,30,78,49,47,7,23,48,65,15,26,44,16,31,14,1,57,66",,,,,,,,,,
land,209,673979,0.0-64.0-2.0,,null,run_exp/static/images/task_images/land.jpg,null,,,,,,93,,,9,,,,,,,,,,,,,,
dig,210,676004,0.0-64.0-3.0,,,,,,,,,,,"[{""stimulus"":""run_exp/static/images/task_images/dig.jpg"",""time"":0},{""stimulus"":""run_exp/static/images/task_images/land.jpg"",""time"":673},{""stimulus"":""run_exp/static/images/task_images/dig.jpg"",""time"":1345}]",[],9,,,,,,,,,,,,,,
harvest,211,677011,0.0-64.0-4.0,,null,run_exp/static/images/task_images/gems/93.jpg,null,,,,,,20,,,9,,,,,93,0.211098118,0.215053763,,,,,,,
decision,212,677364,0.0-64.0-5.0,,353,run_exp/static/images/task_images/land.jpg,65,,,,,,20,,,9,,,,,,,,291192,1,0,FALSE,,,
dig,213,680029,0.0-65.0-0.0,,,,,,,,,,,"[{""stimulus"":""run_exp/static/images/task_images/dig.jpg"",""time"":0},{""stimulus"":""run_exp/static/images/task_images/land.jpg"",""time"":886},{""stimulus"":""run_exp/static/images/task_images/dig.jpg"",""time"":1769}]",[],9,,,,,,,,,,,,,,
harvest,214,681032,0.0-65.0-1.0,,null,run_exp/static/images/task_images/gems/20.jpg,null,,,,,,4,,,9,,,,,20,0.192097396,0.2,,,,,,,
decision,215,681162,0.0-65.0-2.0,,130,run_exp/static/images/task_images/land.jpg,65,,,,,,4,,,9,,,,,,,,294989,1,1,FALSE,,,
dig,216,684052,0.0-66.0-0.0,,,,,,,,,,,"[{""stimulus"":""run_exp/static/images/task_images/dig.jpg"",""time"":0},{""stimulus"":""run_exp/static/images/task_images/land.jpg"",""time"":962},{""stimulus"":""run_exp/static/images/task_images/dig.jpg"",""time"":1922}]",[],9,,,,,,,,,,,,,,
harvest,217,685054,0.0-66.0-1.0,,null,run_exp/static/images/task_images/gems/4.jpg,null,,,,,,1,,,9,,,,,4,0.188133662,0.25,,,,,,,
decision,218,686272,0.0-66.0-2.0,,1216,run_exp/static/images/task_images/land.jpg,76,,,,,,1,,,9,,,,,,,,300099,1,2,TRUE,,,
end_of_block_continue,219,695167,0.0-67.0-0.0,,null,run_exp/static/audio/clip_32_block_end.m4a,,,,,,null,,,,,,,,,,,,,,,,,,
alien_welcome,220,700177,0.0-68.0-0.0,,null,run_exp/static/images/task_images/aliens/old_aliens/planet/alien_planet-52.jpg,null,,,,,,,,,,,,52,"71,39,35,43,38,32,73,75,69,52,22,9,28,77,42,21,74,8,72,30,78,49,47,7,23,48,65,15,26,44,16,31,14,1,57,66",,,,,,,,,,
land,221,700684,0.0-68.0-1.0,,null,run_exp/static/images/task_images/land.jpg,null,,,,,,96,,,10,,,,,,,,,,,,,,
dig,222,702703,0.0-68.0-2.0,,,,,,,,,,,"[{""stimulus"":""run_exp/static/images/task_images/dig.jpg"",""time"":0},{""stimulus"":""run_exp/static/images/task_images/land.jpg"",""time"":669},{""stimulus"":""run_exp/static/images/task_images/dig.jpg"",""time"":1336}]",[],10,,,,,,,,,,,,,,
harvest,223,703707,0.0-68.0-3.0,,null,run_exp/static/images/task_images/gems/96.jpg,null,,,,,,24,,,10,,,,,96,0.248853556,0.25,,,,,,,
decision,224,704030,0.0-68.0-4.0,,321,run_exp/static/images/task_images/land.jpg,65,,,,,,24,,,10,,,,,,,,8857,2,0,FALSE,,,
dig,225,706726,0.0-69.0-0.0,,,,,,,,,,,"[{""stimulus"":""run_exp/static/images/task_images/dig.jpg"",""time"":0},{""stimulus"":""run_exp/static/images/task_images/land.jpg"",""time"":896},{""stimulus"":""run_exp/static/images/task_images/dig.jpg"",""time"":1790}]",[],10,,,,,,,,,,,,,,
harvest,226,707730,0.0-69.0-1.0,,null,run_exp/static/images/task_images/gems/24.jpg,null,,,,,,6,,,10,,,,,24,0.236734994,0.25,,,,,,,
decision,227,709199,0.0-69.0-2.0,,1467,run_exp/static/images/task_images/land.jpg,65,,,,,,6,,,10,,,,,,,,14026,2,1,FALSE,,,
dig,228,710753,0.0-70.0-0.0,,,,,,,,,,,"[{""stimulus"":""run_exp/static/images/task_images/dig.jpg"",""time"":1},{""stimulus"":""run_exp/static/images/task_images/land.jpg"",""time"":513},{""stimulus"":""run_exp/static/images/task_images/dig.jpg"",""time"":1029}]",[],10,,,,,,,,,,,,,,
harvest,229,711756,0.0-70.0-1.0,,null,run_exp/static/images/task_images/gems/6.jpg,null,,,,,,1,,,10,,,,,6,0.217032975,0.166666667,,,,,,,
decision,230,712698,0.0-70.0-2.0,,941,run_exp/static/images/task_images/land.jpg,76,,,,,,1,,,10,,,,,,,,17525,2,2,TRUE,,,
travel,231,721784,0.0-71.0-0.0,,,,,,,,,,,"[{""stimulus"":""run_exp/static/images/task_images/rocket-01.jpg"",""time"":0},{""stimulus"":""run_exp/static/images/task_images/rocket-02.jpg"",""time"":1006},{""stimulus"":""run_exp/static/images/task_images/rocket-03.jpg"",""time"":2013},{""stimulus"":""run_exp/static/images/task_images/rocket-04.jpg"",""time"":3020},{""stimulus"":""run_exp/static/images/task_images/rocket-05.jpg"",""time"":4029},{""stimulus"":""run_exp/static/images/task_images/rocket-06.jpg"",""time"":5037},{""stimulus"":""run_exp/static/images/task_images/rocket-07.jpg"",""time"":6044},{""stimulus"":""run_exp/static/images/task_images/rocket-08.jpg"",""time"":7055},{""stimulus"":""run_exp/static/images/task_images/rocket-09.jpg"",""time"":8065}]",[],10,,,,,,,,,,,,,,
alien_welcome,232,726788,0.0-71.0-1.0,,null,run_exp/static/images/task_images/aliens/old_aliens/planet/alien_planet-22.jpg,null,,,,,,,,,,,,22,"71,39,35,43,38,32,73,75,69,52,22,9,28,77,42,21,74,8,72,30,78,49,47,7,23,48,65,15,26,44,16,31,14,1,57,66",,,,,,,,,,
land,233,727295,0.0-71.0-2.0,,null,run_exp/static/images/task_images/land.jpg,null,,,,,,90,,,11,,,,,,,,,,,,,,
dig,234,729313,0.0-71.0-3.0,,,,,,,,,,,"[{""stimulus"":""run_exp/static/images/task_images/dig.jpg"",""time"":0},{""stimulus"":""run_exp/static/images/task_images/land.jpg"",""time"":668},{""stimulus"":""run_exp/static/images/task_images/dig.jpg"",""time"":1340}]",[],11,,,,,,,,,,,,,,
harvest,235,730318,0.0-71.0-4.0,,null,run_exp/static/images/task_images/gems/90.jpg,null,,,,,,24,,,11,,,,,90,0.26518714,0.266666667,,,,,,,
decision,236,730372,0.0-71.0-5.0,,53,run_exp/static/images/task_images/land.jpg,65,,,,,,24,,,11,,,,,,,,35199,2,0,FALSE,,,
dig,237,733345,0.0-72.0-0.0,,,,,,,,,,,"[{""stimulus"":""run_exp/static/images/task_images/dig.jpg"",""time"":0},{""stimulus"":""run_exp/static/images/task_images/land.jpg"",""time"":986},{""stimulus"":""run_exp/static/images/task_images/dig.jpg"",""time"":1973}]",[],11,,,,,,,,,,,,,,
harvest,238,734350,0.0-72.0-1.0,,null,run_exp/static/images/task_images/gems/24.jpg,null,,,,,,4,,,11,,,,,24,0.166033671,0.166666667,,,,,,,
decision,239,735301,0.0-72.0-2.0,,950,run_exp/static/images/task_images/land.jpg,65,,,,,,4,,,11,,,,,,,,40129,2,1,FALSE,,,
dig,240,737373,0.0-73.0-0.0,,,,,,,,,,,"[{""stimulus"":""run_exp/static/images/task_images/dig.jpg"",""time"":0},{""stimulus"":""run_exp/static/images/task_images/land.jpg"",""time"":686},{""stimulus"":""run_exp/static/images/task_images/dig.jpg"",""time"":1372}]",[],11,,,,,,,,,,,,,,
harvest,241,738376,0.0-73.0-1.0,,null,run_exp/static/images/task_images/gems/4.jpg,null,,,,,,1,,,11,,,,,4,0.21674554,0.25,,,,,,,
decision,242,739887,0.0-73.0-2.0,,1511,run_exp/static/images/task_images/land.jpg,76,,,,,,1,,,11,,,,,,,,44714,2,2,TRUE,,,
travel,243,748407,0.0-74.0-0.0,,,,,,,,,,,"[{""stimulus"":""run_exp/static/images/task_images/rocket-01.jpg"",""time"":0},{""stimulus"":""run_exp/static/images/task_images/rocket-02.jpg"",""time"":946},{""stimulus"":""run_exp/static/images/task_images/rocket-03.jpg"",""time"":1891},{""stimulus"":""run_exp/static/images/task_images/rocket-04.jpg"",""time"":2836},{""stimulus"":""run_exp/static/images/task_images/rocket-05.jpg"",""time"":3783},{""stimulus"":""run_exp/static/images/task_images/rocket-06.jpg"",""time"":4730},{""stimulus"":""run_exp/static/images/task_images/rocket-07.jpg"",""time"":5675},{""stimulus"":""run_exp/static/images/task_images/rocket-08.jpg"",""time"":6619},{""stimulus"":""run_exp/static/images/task_images/rocket-09.jpg"",""time"":7564}]",[],11,,,,,,,,,,,,,,
alien_welcome,244,753411,0.0-74.0-1.0,,null,run_exp/static/images/task_images/aliens/old_aliens/planet/alien_planet-9.jpg,null,,,,,,,,,,,,9,"71,39,35,43,38,32,73,75,69,52,22,9,28,77,42,21,74,8,72,30,78,49,47,7,23,48,65,15,26,44,16,31,14,1,57,66",,,,,,,,,,
land,245,753913,0.0-74.0-2.0,,null,run_exp/static/images/task_images/land.jpg,null,,,,,,102,,,12,,,,,,,,,,,,,,
dig,246,755931,0.0-74.0-3.0,,,,,,,,,,,"[{""stimulus"":""run_exp/static/images/task_images/dig.jpg"",""time"":0},{""stimulus"":""run_exp/static/images/task_images/land.jpg"",""time"":671},{""stimulus"":""run_exp/static/images/task_images/dig.jpg"",""time"":1342}]",[],12,,,,,,,,,,,,,,
harvest,247,756932,0.0-74.0-4.0,,null,run_exp/static/images/task_images/gems/102.jpg,null,,,,,,17,,,12,,,,,102,0.164581402,0.166666667,,,,,,,
decision,248,757870,0.0-74.0-5.0,,937,run_exp/static/images/task_images/land.jpg,65,,,,,,17,,,12,,,,,,,,62697,2,0,FALSE,,,
dig,249,759952,0.0-75.0-0.0,,,,,,,,,,,"[{""stimulus"":""run_exp/static/images/task_images/dig.jpg"",""time"":1},{""stimulus"":""run_exp/static/images/task_images/land.jpg"",""time"":690},{""stimulus"":""run_exp/static/images/task_images/dig.jpg"",""time"":1381}]",[],12,,,,,,,,,,,,,,
harvest,250,760957,0.0-75.0-1.0,,null,run_exp/static/images/task_images/gems/17.jpg,null,,,,,,3,,,12,,,,,17,0.200034041,0.176470588,,,,,,,
decision,251,762035,0.0-75.0-2.0,,1077,run_exp/static/images/task_images/land.jpg,76,,,,,,3,,,12,,,,,,,,66862,2,1,TRUE,,,
travel,252,771006,0.0-76.0-0.0,,,,,,,,,,,"[{""stimulus"":""run_exp/static/images/task_images/rocket-01.jpg"",""time"":1},{""stimulus"":""run_exp/static/images/task_images/rocket-02.jpg"",""time"":993},{""stimulus"":""run_exp/static/images/task_images/rocket-03.jpg"",""time"":1985},{""stimulus"":""run_exp/static/images/task_images/rocket-04.jpg"",""time"":2996},{""stimulus"":""run_exp/static/images/task_images/rocket-05.jpg"",""time"":3992},{""stimulus"":""run_exp/static/images/task_images/rocket-06.jpg"",""time"":4982},{""stimulus"":""run_exp/static/images/task_images/rocket-07.jpg"",""time"":5975},{""stimulus"":""run_exp/static/images/task_images/rocket-08.jpg"",""time"":6966},{""stimulus"":""run_exp/static/images/task_images/rocket-09.jpg"",""time"":7963}]",[],12,,,,,,,,,,,,,,
alien_welcome,253,776012,0.0-76.0-1.0,,null,run_exp/static/images/task_images/aliens/old_aliens/planet/alien_planet-28.jpg,null,,,,,,,,,,,,28,"71,39,35,43,38,32,73,75,69,52,22,9,28,77,42,21,74,8,72,30,78,49,47,7,23,48,65,15,26,44,16,31,14,1,57,66",,,,,,,,,,
land,254,776515,0.0-76.0-2.0,,null,run_exp/static/images/task_images/land.jpg,null,,,,,,100,,,13,,,,,,,,,,,,,,
dig,255,778535,0.0-76.0-3.0,,,,,,,,,,,"[{""stimulus"":""run_exp/static/images/task_images/dig.jpg"",""time"":0},{""stimulus"":""run_exp/static/images/task_images/land.jpg"",""time"":669},{""stimulus"":""run_exp/static/images/task_images/dig.jpg"",""time"":1341}]",[],13,,,,,,,,,,,,,,
harvest,256,779540,0.0-76.0-4.0,,null,run_exp/static/images/task_images/gems/100.jpg,null,,,,,,89,,,13,,,,,100,0.891788651,0.89,,,,,,,
decision,257,779543,0.0-76.0-5.0,,1,run_exp/static/images/task_images/land.jpg,65,,,,,,89,,,13,,,,,,,,84370,2,0,FALSE,,,
dig,258,782558,0.0-77.0-0.0,,,,,,,,,,,"[{""stimulus"":""run_exp/static/images/task_images/dig.jpg"",""time"":0},{""stimulus"":""run_exp/static/images/task_images/land.jpg"",""time"":1000},{""stimulus"":""run_exp/static/images/task_images/dig.jpg"",""time"":1999}]",[],13,,,,,,,,,,,,,,
harvest,259,783563,0.0-77.0-1.0,,null,run_exp/static/images/task_images/gems/89.jpg,null,,,,,,76,,,13,,,,,89,0.855523803,0.853932584,,,,,,,
decision,260,785185,0.0-77.0-2.0,,1621,run_exp/static/images/task_images/land.jpg,65,,,,,,76,,,13,,,,,,,,90012,2,1,FALSE,,,
dig,261,786577,0.0-78.0-0.0,,,,,,,,,,,"[{""stimulus"":""run_exp/static/images/task_images/dig.jpg"",""time"":0},{""stimulus"":""run_exp/static/images/task_images/land.jpg"",""time"":461},{""stimulus"":""run_exp/static/images/task_images/dig.jpg"",""time"":921}]",[],13,,,,,,,,,,,,,,
harvest,262,787578,0.0-78.0-1.0,,null,run_exp/static/images/task_images/gems/76.jpg,null,,,,,,60,,,13,,,,,76,0.787761424,0.789473684,,,,,,,
decision,263,787675,0.0-78.0-2.0,,96,run_exp/static/images/task_images/land.jpg,65,,,,,,60,,,13,,,,,,,,92502,2,2,FALSE,,,
dig,264,790601,0.0-79.0-0.0,,,,,,,,,,,"[{""stimulus"":""run_exp/static/images/task_images/dig.jpg"",""time"":0},{""stimulus"":""run_exp/static/images/task_images/land.jpg"",""time"":973},{""stimulus"":""run_exp/static/images/task_images/dig.jpg"",""time"":1946}]",[],13,,,,,,,,,,,,,,
harvest,265,791607,0.0-79.0-1.0,,null,run_exp/static/images/task_images/gems/60.jpg,null,,,,,,47,,,13,,,,,60,0.778700016,0.783333333,,,,,,,
decision,266,792475,0.0-79.0-2.0,,866,run_exp/static/images/task_images/land.jpg,65,,,,,,47,,,13,,,,,,,,97303,2,3,FALSE,,,
dig,267,794633,0.0-80.0-0.0,,,,,,,,,,,"[{""stimulus"":""run_exp/static/images/task_images/dig.jpg"",""time"":0},{""stimulus"":""run_exp/static/images/task_images/land.jpg"",""time"":718},{""stimulus"":""run_exp/static/images/task_images/dig.jpg"",""time"":1431}]",[],13,,,,,,,,,,,,,,
harvest,268,795637,0.0-80.0-1.0,,null,run_exp/static/images/task_images/gems/47.jpg,null,,,,,,40,,,13,,,,,47,0.847015735,0.85106383,,,,,,,
decision,269,796374,0.0-80.0-2.0,,735,run_exp/static/images/task_images/land.jpg,65,,,,,,40,,,13,,,,,,,,101202,2,4,FALSE,,,
dig,270,798666,0.0-81.0-0.0,,,,,,,,,,,"[{""stimulus"":""run_exp/static/images/task_images/dig.jpg"",""time"":0},{""stimulus"":""run_exp/static/images/task_images/land.jpg"",""time"":759},{""stimulus"":""run_exp/static/images/task_images/dig.jpg"",""time"":1518}]",[],13,,,,,,,,,,,,,,
harvest,271,799672,0.0-81.0-1.0,,null,run_exp/static/images/task_images/gems/40.jpg,null,,,,,,34,,,13,,,,,40,0.861248069,0.85,,,,,,,
decision,272,801275,0.0-81.0-2.0,,1601,run_exp/static/images/task_images/land.jpg,65,,,,,,34,,,13,,,,,,,,106102,2,5,FALSE,,,
dig,273,802689,0.0-82.0-0.0,,,,,,,,,,,"[{""stimulus"":""run_exp/static/images/task_images/dig.jpg"",""time"":0},{""stimulus"":""run_exp/static/images/task_images/land.jpg"",""time"":468},{""stimulus"":""run_exp/static/images/task_images/dig.jpg"",""time"":935}]",[],13,,,,,,,,,,,,,,
harvest,274,803691,0.0-82.0-1.0,,null,run_exp/static/images/task_images/gems/34.jpg,null,,,,,,24,,,13,,,,,34,0.710838986,0.705882353,,,,,,,
decision,275,804984,0.0-82.0-2.0,,1291,run_exp/static/images/task_images/land.jpg,65,,,,,,24,,,13,,,,,,,,109811,2,6,FALSE,,,
dig,276,806712,0.0-83.0-0.0,,,,,,,,,,,"[{""stimulus"":""run_exp/static/images/task_images/dig.jpg"",""time"":1},{""stimulus"":""run_exp/static/images/task_images/land.jpg"",""time"":575},{""stimulus"":""run_exp/static/images/task_images/dig.jpg"",""time"":1145}]",[],13,,,,,,,,,,,,,,
harvest,277,807715,0.0-83.0-1.0,,null,run_exp/static/images/task_images/gems/24.jpg,null,,,,,,19,,,13,,,,,24,0.807462155,0.791666667,,,,,,,
decision,278,809437,0.0-83.0-2.0,,1721,run_exp/static/images/task_images/land.jpg,65,,,,,,19,,,13,,,,,,,,114265,2,7,FALSE,,,
dig,279,810747,0.0-84.0-0.0,,,,,,,,,,,"[{""stimulus"":""run_exp/static/images/task_images/dig.jpg"",""time"":0},{""stimulus"":""run_exp/static/images/task_images/land.jpg"",""time"":428},{""stimulus"":""run_exp/static/images/task_images/dig.jpg"",""time"":856}]",[],13,,,,,,,,,,,,,,
harvest,280,811768,0.0-84.0-1.0,,null,run_exp/static/images/task_images/gems/19.jpg,null,,,,,,13,,,13,,,,,19,0.691575588,0.684210526,,,,,,,
decision,281,813821,0.0-84.0-2.0,,2052,run_exp/static/images/task_images/land.jpg,76,,,,,,13,,,13,,,,,,,,118648,2,8,TRUE,,,
travel,282,821811,0.0-85.0-0.0,,,,,,,,,,,"[{""stimulus"":""run_exp/static/images/task_images/rocket-01.jpg"",""time"":1},{""stimulus"":""run_exp/static/images/task_images/rocket-02.jpg"",""time"":890},{""stimulus"":""run_exp/static/images/task_images/rocket-03.jpg"",""time"":1773},{""stimulus"":""run_exp/static/images/task_images/rocket-04.jpg"",""time"":2657},{""stimulus"":""run_exp/static/images/task_images/rocket-05.jpg"",""time"":3540},{""stimulus"":""run_exp/static/images/task_images/rocket-06.jpg"",""time"":4429},{""stimulus"":""run_exp/static/images/task_images/rocket-07.jpg"",""time"":5312},{""stimulus"":""run_exp/static/images/task_images/rocket-08.jpg"",""time"":6198},{""stimulus"":""run_exp/static/images/task_images/rocket-09.jpg"",""time"":7095}]",[],13,,,,,,,,,,,,,,
alien_welcome,283,826817,0.0-85.0-1.0,,null,run_exp/static/images/task_images/aliens/old_aliens/planet/alien_planet-77.jpg,null,,,,,,,,,,,,77,"71,39,35,43,38,32,73,75,69,52,22,9,28,77,42,21,74,8,72,30,78,49,47,7,23,48,65,15,26,44,16,31,14,1,57,66",,,,,,,,,,
land,284,827321,0.0-85.0-2.0,,null,run_exp/static/images/task_images/land.jpg,null,,,,,,100,,,14,,,,,,,,,,,,,,
dig,285,829341,0.0-85.0-3.0,,,,,,,,,,,"[{""stimulus"":""run_exp/static/images/task_images/dig.jpg"",""time"":0},{""stimulus"":""run_exp/static/images/task_images/land.jpg"",""time"":667},{""stimulus"":""run_exp/static/images/task_images/dig.jpg"",""time"":1338}]",[],14,,,,,,,,,,,,,,
harvest,286,830345,0.0-85.0-4.0,,null,run_exp/static/images/task_images/gems/100.jpg,null,,,,,,83,,,14,,,,,100,0.825972756,0.83,,,,,,,
decision,287,830431,0.0-85.0-5.0,,86,run_exp/static/images/task_images/land.jpg,65,,,,,,83,,,14,,,,,,,,135258,2,0,FALSE,,,
dig,288,833360,0.0-86.0-0.0,,,,,,,,,,,"[{""stimulus"":""run_exp/static/images/task_images/dig.jpg"",""time"":0},{""stimulus"":""run_exp/static/images/task_images/land.jpg"",""time"":972},{""stimulus"":""run_exp/static/images/task_images/dig.jpg"",""time"":1943}]",[],14,,,,,,,,,,,,,,
harvest,289,834361,0.0-86.0-1.0,,null,run_exp/static/images/task_images/gems/83.jpg,null,,,,,,70,,,14,,,,,83,0.840192273,0.843373494,,,,,,,
decision,290,835555,0.0-86.0-2.0,,1192,run_exp/static/images/task_images/land.jpg,65,,,,,,70,,,14,,,,,,,,140382,2,1,FALSE,,,
dig,291,837376,0.0-87.0-0.0,,,,,,,,,,,"[{""stimulus"":""run_exp/static/images/task_images/dig.jpg"",""time"":0},{""stimulus"":""run_exp/static/images/task_images/land.jpg"",""time"":604},{""stimulus"":""run_exp/static/images/task_images/dig.jpg"",""time"":1206}]",[],14,,,,,,,,,,,,,,
harvest,292,838378,0.0-87.0-1.0,,null,run_exp/static/images/task_images/gems/70.jpg,null,,,,,,58,,,14,,,,,70,0.828586739,0.828571429,,,,,,,
decision,293,839902,0.0-87.0-2.0,,1524,run_exp/static/images/task_images/land.jpg,65,,,,,,58,,,14,,,,,,,,144730,2,2,FALSE,,,
dig,294,841399,0.0-88.0-0.0,,,,,,,,,,,"[{""stimulus"":""run_exp/static/images/task_images/dig.jpg"",""time"":1},{""stimulus"":""run_exp/static/images/task_images/land.jpg"",""time"":496},{""stimulus"":""run_exp/static/images/task_images/dig.jpg"",""time"":989}]",[],14,,,,,,,,,,,,,,
harvest,295,833879,0.0-88.0-1.0,,null,run_exp/static/images/task_images/gems/58.jpg,null,,,,,,47,,,14,,,,,58,0.818448088,0.810344828,,,,,,,
decision,296,835308,0.0-88.0-2.0,,1429,run_exp/static/images/task_images/land.jpg,65,,,,,,47,,,14,,,,,,,,140136,2,3,FALSE,,,
dig,297,836892,0.0-89.0-0.0,,,,,,,,,,,"[{""stimulus"":""run_exp/static/images/task_images/dig.jpg"",""time"":0},{""stimulus"":""run_exp/static/images/task_images/land.jpg"",""time"":526},{""stimulus"":""run_exp/static/images/task_images/dig.jpg"",""time"":1049}]",[],14,,,,,,,,,,,,,,
harvest,298,837894,0.0-89.0-1.0,,null,run_exp/static/images/task_images/gems/47.jpg,null,,,,,,37,,,14,,,,,47,0.779480267,0.787234043,,,,,,,
decision,299,839095,0.0-89.0-2.0,,1200,run_exp/static/images/task_images/land.jpg,65,,,,,,37,,,14,,,,,,,,143922,2,4,FALSE,,,
dig,300,840919,0.0-90.0-0.0,,,,,,,,,,,"[{""stimulus"":""run_exp/static/images/task_images/dig.jpg"",""time"":0},{""stimulus"":""run_exp/static/images/task_images/land.jpg"",""time"":604},{""stimulus"":""run_exp/static/images/task_images/dig.jpg"",""time"":1210}]",[],14,,,,,,,,,,,,,,
harvest,301,841922,0.0-90.0-1.0,,null,run_exp/static/images/task_images/gems/37.jpg,null,,,,,,26,,,14,,,,,37,0.709710351,0.702702703,,,,,,,
decision,302,843295,0.0-90.0-2.0,,1371,run_exp/static/images/task_images/land.jpg,65,,,,,,26,,,14,,,,,,,,148122,2,5,FALSE,,,
dig,303,844944,0.0-91.0-0.0,,,,,,,,,,,"[{""stimulus"":""run_exp/static/images/task_images/dig.jpg"",""time"":0},{""stimulus"":""run_exp/static/images/task_images/land.jpg"",""time"":547},{""stimulus"":""run_exp/static/images/task_images/dig.jpg"",""time"":1092}]",[],14,,,,,,,,,,,,,,
harvest,304,845949,0.0-91.0-1.0,,null,run_exp/static/images/task_images/gems/26.jpg,null,,,,,,22,,,14,,,,,26,0.826984226,0.846153846,,,,,,,
decision,305,846014,0.0-91.0-2.0,,64,run_exp/static/images/task_images/land.jpg,65,,,,,,22,,,14,,,,,,,,150841,2,6,FALSE,,,
dig,306,848967,0.0-92.0-0.0,,,,,,,,,,,"[{""stimulus"":""run_exp/static/images/task_images/dig.jpg"",""time"":0},{""stimulus"":""run_exp/static/images/task_images/land.jpg"",""time"":980},{""stimulus"":""run_exp/static/images/task_images/dig.jpg"",""time"":1959}]",[],14,,,,,,,,,,,,,,
harvest,307,849969,0.0-92.0-1.0,,null,run_exp/static/images/task_images/gems/22.jpg,null,,,,,,17,,,14,,,,,22,0.789789652,0.772727273,,,,,,,
decision,308,850167,0.0-92.0-2.0,,197,run_exp/static/images/task_images/land.jpg,65,,,,,,17,,,14,,,,,,,,154994,2,7,FALSE,,,
dig,309,852997,0.0-93.0-0.0,,,,,,,,,,,"[{""stimulus"":""run_exp/static/images/task_images/dig.jpg"",""time"":0},{""stimulus"":""run_exp/static/images/task_images/land.jpg"",""time"":938},{""stimulus"":""run_exp/static/images/task_images/dig.jpg"",""time"":1877}]",[],14,,,,,,,,,,,,,,
harvest,310,854000,0.0-93.0-1.0,,null,run_exp/static/images/task_images/gems/17.jpg,null,,,,,,15,,,14,,,,,17,0.856482349,0.882352941,,,,,,,
decision,311,854020,0.0-93.0-2.0,,20,run_exp/static/images/task_images/land.jpg,65,,,,,,15,,,14,,,,,,,,158847,2,8,FALSE,,,
dig,312,857022,0.0-94.0-0.0,,,,,,,,,,,"[{""stimulus"":""run_exp/static/images/task_images/dig.jpg"",""time"":0},{""stimulus"":""run_exp/static/images/task_images/land.jpg"",""time"":995},{""stimulus"":""run_exp/static/images/task_images/dig.jpg"",""time"":1993}]",[],14,,,,,,,,,,,,,,
harvest,313,858025,0.0-94.0-1.0,,null,run_exp/static/images/task_images/gems/15.jpg,null,,,,,,12,,,14,,,,,15,0.809313932,0.8,,,,,,,
decision,314,859495,0.0-94.0-2.0,,1467,run_exp/static/images/task_images/land.jpg,76,,,,,,12,,,14,,,,,,,,164322,2,9,TRUE,,,
travel,315,868068,0.0-95.0-0.0,,,,,,,,,,,"[{""stimulus"":""run_exp/static/images/task_images/rocket-01.jpg"",""time"":0},{""stimulus"":""run_exp/static/images/task_images/rocket-02.jpg"",""time"":949},{""stimulus"":""run_exp/static/images/task_images/rocket-03.jpg"",""time"":1897},{""stimulus"":""run_exp/static/images/task_images/rocket-04.jpg"",""time"":2848},{""stimulus"":""run_exp/static/images/task_images/rocket-05.jpg"",""time"":3801},{""stimulus"":""run_exp/static/images/task_images/rocket-06.jpg"",""time"":4753},{""stimulus"":""run_exp/static/images/task_images/rocket-07.jpg"",""time"":5705},{""stimulus"":""run_exp/static/images/task_images/rocket-08.jpg"",""time"":6656},{""stimulus"":""run_exp/static/images/task_images/rocket-09.jpg"",""time"":7608}]",[],14,,,,,,,,,,,,,,
alien_welcome,316,873072,0.0-95.0-1.0,,null,run_exp/static/images/task_images/aliens/old_aliens/planet/alien_planet-42.jpg,null,,,,,,,,,,,,42,"71,39,35,43,38,32,73,75,69,52,22,9,28,77,42,21,74,8,72,30,78,49,47,7,23,48,65,15,26,44,16,31,14,1,57,66",,,,,,,,,,
land,317,873578,0.0-95.0-2.0,,null,run_exp/static/images/task_images/land.jpg,null,,,,,,102,,,15,,,,,,,,,,,,,,
dig,318,875590,0.0-95.0-3.0,,,,,,,,,,,"[{""stimulus"":""run_exp/static/images/task_images/dig.jpg"",""time"":0},{""stimulus"":""run_exp/static/images/task_images/land.jpg"",""time"":668},{""stimulus"":""run_exp/static/images/task_images/dig.jpg"",""time"":1335}]",[],15,,,,,,,,,,,,,,
harvest,319,876592,0.0-95.0-4.0,,null,run_exp/static/images/task_images/gems/102.jpg,null,,,,,,85,,,15,,,,,102,0.832618875,0.833333333,,,,,,,
decision,320,878728,0.0-95.0-5.0,,2135,run_exp/static/images/task_images/land.jpg,65,,,,,,85,,,15,,,,,,,,183556,2,0,FALSE,,,
dig,321,879612,0.0-96.0-0.0,,,,,,,,,,,"[{""stimulus"":""run_exp/static/images/task_images/dig.jpg"",""time"":1},{""stimulus"":""run_exp/static/images/task_images/land.jpg"",""time"":290},{""stimulus"":""run_exp/static/images/task_images/dig.jpg"",""time"":579}]",[],15,,,,,,,,,,,,,,
harvest,322,880614,0.0-96.0-1.0,,null,run_exp/static/images/task_images/gems/85.jpg,null,,,,,,74,,,15,,,,,85,0.870951738,0.870588235,,,,,,,
decision,323,882256,0.0-96.0-2.0,,1640,run_exp/static/images/task_images/land.jpg,65,,,,,,74,,,15,,,,,,,,187083,2,1,FALSE,,,
dig,324,883639,0.0-97.0-0.0,,,,,,,,,,,"[{""stimulus"":""run_exp/static/images/task_images/dig.jpg"",""time"":0},{""stimulus"":""run_exp/static/images/task_images/land.jpg"",""time"":459},{""stimulus"":""run_exp/static/images/task_images/dig.jpg"",""time"":916}]",[],15,,,,,,,,,,,,,,
harvest,325,884641,0.0-97.0-1.0,,null,run_exp/static/images/task_images/gems/74.jpg,null,,,,,,62,,,15,,,,,74,0.838827786,0.837837838,,,,,,,
decision,326,885130,0.0-97.0-2.0,,489,run_exp/static/images/task_images/land.jpg,65,,,,,,62,,,15,,,,,,,,189958,2,2,FALSE,,,
dig,327,887667,0.0-98.0-0.0,,,,,,,,,,,"[{""stimulus"":""run_exp/static/images/task_images/dig.jpg"",""time"":0},{""stimulus"":""run_exp/static/images/task_images/land.jpg"",""time"":843},{""stimulus"":""run_exp/static/images/task_images/dig.jpg"",""time"":1683}]",[],15,,,,,,,,,,,,,,
harvest,328,888669,0.0-98.0-1.0,,null,run_exp/static/images/task_images/gems/62.jpg,null,,,,,,50,,,15,,,,,62,0.80975155,0.806451613,,,,,,,
decision,329,889626,0.0-98.0-2.0,,956,run_exp/static/images/task_images/land.jpg,65,,,,,,50,,,15,,,,,,,,194453,2,3,FALSE,,,
dig,330,891689,0.0-99.0-0.0,,,,,,,,,,,"[{""stimulus"":""run_exp/static/images/task_images/dig.jpg"",""time"":0},{""stimulus"":""run_exp/static/images/task_images/land.jpg"",""time"":683},{""stimulus"":""run_exp/static/images/task_images/dig.jpg"",""time"":1368}]",[],15,,,,,,,,,,,,,,
harvest,331,892691,0.0-99.0-1.0,,null,run_exp/static/images/task_images/gems/50.jpg,null,,,,,,38,,,15,,,,,50,0.76624814,0.76,,,,,,,
decision,332,894563,0.0-99.0-2.0,,1872,run_exp/static/images/task_images/land.jpg,65,,,,,,38,,,15,,,,,,,,199390,2,4,FALSE,,,
dig,333,895713,0.0-100.0-0.0,,,,,,,,,,,"[{""stimulus"":""run_exp/static/images/task_images/dig.jpg"",""time"":0},{""stimulus"":""run_exp/static/images/task_images/land.jpg"",""time"":378},{""stimulus"":""run_exp/static/images/task_images/dig.jpg"",""time"":760}]",[],15,,,,,,,,,,,,,,
harvest,334,896720,0.0-100.0-1.0,,null,run_exp/static/images/task_images/gems/38.jpg,null,,,,,,33,,,15,,,,,38,0.879413672,0.868421053,,,,,,,
decision,335,897224,0.0-100.0-2.0,,504,run_exp/static/images/task_images/land.jpg,65,,,,,,33,,,15,,,,,,,,202051,2,5,FALSE,,,
dig,336,899747,0.0-101.0-0.0,,,,,,,,,,,"[{""stimulus"":""run_exp/static/images/task_images/dig.jpg"",""time"":0},{""stimulus"":""run_exp/static/images/task_images/land.jpg"",""time"":838},{""stimulus"":""run_exp/static/images/task_images/dig.jpg"",""time"":1675}]",[],15,,,,,,,,,,,,,,
harvest,337,900748,0.0-101.0-1.0,,null,run_exp/static/images/task_images/gems/33.jpg,null,,,,,,25,,,15,,,,,33,0.771641202,0.757575758,,,,,,,
decision,338,902353,0.0-101.0-2.0,,1603,run_exp/static/images/task_images/land.jpg,65,,,,,,25,,,15,,,,,,,,207180,2,6,FALSE,,,
dig,339,903775,0.0-102.0-0.0,,,,,,,,,,,"[{""stimulus"":""run_exp/static/images/task_images/dig.jpg"",""time"":0},{""stimulus"":""run_exp/static/images/task_images/land.jpg"",""time"":474},{""stimulus"":""run_exp/static/images/task_images/dig.jpg"",""time"":940}]",[],15,,,,,,,,,,,,,,
harvest,340,904778,0.0-102.0-1.0,,null,run_exp/static/images/task_images/gems/25.jpg,null,,,,,,20,,,15,,,,,25,0.795099479,0.8,,,,,,,
decision,341,904878,0.0-102.0-2.0,,99,run_exp/static/images/task_images/land.jpg,65,,,,,,20,,,15,,,,,,,,209705,2,7,FALSE,,,
dig,342,907797,0.0-103.0-0.0,,,,,,,,,,,"[{""stimulus"":""run_exp/static/images/task_images/dig.jpg"",""time"":0},{""stimulus"":""run_exp/static/images/task_images/land.jpg"",""time"":968},{""stimulus"":""run_exp/static/images/task_images/dig.jpg"",""time"":1941}]",[],15,,,,,,,,,,,,,,
harvest,343,908799,0.0-103.0-1.0,,null,run_exp/static/images/task_images/gems/20.jpg,null,,,,,,14,,,15,,,,,20,0.718232773,0.7,,,,,,,
decision,344,908979,0.0-103.0-2.0,,178,run_exp/static/images/task_images/land.jpg,65,,,,,,14,,,15,,,,,,,,213807,2,8,FALSE,,,
dig,345,911821,0.0-104.0-0.0,,,,,,,,,,,"[{""stimulus"":""run_exp/static/images/task_images/dig.jpg"",""time"":0},{""stimulus"":""run_exp/static/images/task_images/land.jpg"",""time"":944},{""stimulus"":""run_exp/static/images/task_images/dig.jpg"",""time"":1885}]",[],15,,,,,,,,,,,,,,
harvest,346,912826,0.0-104.0-1.0,,null,run_exp/static/images/task_images/gems/14.jpg,null,,,,,,11,,,15,,,,,14,0.772240548,0.785714286,,,,,,,
decision,347,915050,0.0-104.0-2.0,,2222,run_exp/static/images/task_images/land.jpg,76,,,,,,11,,,15,,,,,,,,219877,2,9,TRUE,,,
travel,348,922859,0.0-105.0-0.0,,,,,,,,,,,"[{""stimulus"":""run_exp/static/images/task_images/rocket-01.jpg"",""time"":0},{""stimulus"":""run_exp/static/images/task_images/rocket-02.jpg"",""time"":867},{""stimulus"":""run_exp/static/images/task_images/rocket-03.jpg"",""time"":1732},{""stimulus"":""run_exp/static/images/task_images/rocket-04.jpg"",""time"":2598},{""stimulus"":""run_exp/static/images/task_images/rocket-05.jpg"",""time"":3468},{""stimulus"":""run_exp/static/images/task_images/rocket-06.jpg"",""time"":4335},{""stimulus"":""run_exp/static/images/task_images/rocket-07.jpg"",""time"":5203},{""stimulus"":""run_exp/static/images/task_images/rocket-08.jpg"",""time"":6067},{""stimulus"":""run_exp/static/images/task_images/rocket-09.jpg"",""time"":6933}]",[],15,,,,,,,,,,,,,,
alien_welcome,349,927866,0.0-105.0-1.0,,null,run_exp/static/images/task_images/aliens/old_aliens/planet/alien_planet-21.jpg,null,,,,,,,,,,,,21,"71,39,35,43,38,32,73,75,69,52,22,9,28,77,42,21,74,8,72,30,78,49,47,7,23,48,65,15,26,44,16,31,14,1,57,66",,,,,,,,,,
land,350,928368,0.0-105.0-2.0,,null,run_exp/static/images/task_images/land.jpg,null,,,,,,97,,,16,,,,,,,,,,,,,,
dig,351,930387,0.0-105.0-3.0,,,,,,,,,,,"[{""stimulus"":""run_exp/static/images/task_images/dig.jpg"",""time"":0},{""stimulus"":""run_exp/static/images/task_images/land.jpg"",""time"":669},{""stimulus"":""run_exp/static/images/task_images/dig.jpg"",""time"":1340}]",[],16,,,,,,,,,,,,,,
harvest,352,931393,0.0-105.0-4.0,,null,run_exp/static/images/task_images/gems/97.jpg,null,,,,,,85,,,16,,,,,97,0.871647896,0.87628866,,,,,,,
decision,353,932296,0.0-105.0-5.0,,903,run_exp/static/images/task_images/land.jpg,65,,,,,,85,,,16,,,,,,,,237123,2,0,FALSE,,,
dig,354,934409,0.0-106.0-0.0,,,,,,,,,,,"[{""stimulus"":""run_exp/static/images/task_images/dig.jpg"",""time"":0},{""stimulus"":""run_exp/static/images/task_images/land.jpg"",""time"":700},{""stimulus"":""run_exp/static/images/task_images/dig.jpg"",""time"":1400}]",[],16,,,,,,,,,,,,,,
harvest,355,935413,0.0-106.0-1.0,,null,run_exp/static/images/task_images/gems/85.jpg,null,,,,,,72,,,16,,,,,85,0.841640797,0.847058824,,,,,,,
decision,356,936505,0.0-106.0-2.0,,1090,run_exp/static/images/task_images/land.jpg,65,,,,,,72,,,16,,,,,,,,241332,2,1,FALSE,,,
dig,357,938431,0.0-107.0-0.0,,,,,,,,,,,"[{""stimulus"":""run_exp/static/images/task_images/dig.jpg"",""time"":0},{""stimulus"":""run_exp/static/images/task_images/land.jpg"",""time"":637},{""stimulus"":""run_exp/static/images/task_images/dig.jpg"",""time"":1275}]",[],16,,,,,,,,,,,,,,
harvest,358,939439,0.0-107.0-1.0,,null,run_exp/static/images/task_images/gems/72.jpg,null,,,,,,60,,,16,,,,,72,0.83476009,0.833333333,,,,,,,
decision,359,940701,0.0-107.0-2.0,,1259,run_exp/static/images/task_images/land.jpg,65,,,,,,60,,,16,,,,,,,,245528,2,2,FALSE,,,
dig,360,942460,0.0-108.0-0.0,,,,,,,,,,,"[{""stimulus"":""run_exp/static/images/task_images/dig.jpg"",""time"":0},{""stimulus"":""run_exp/static/images/task_images/land.jpg"",""time"":581},{""stimulus"":""run_exp/static/images/task_images/dig.jpg"",""time"":1166}]",[],16,,,,,,,,,,,,,,
harvest,361,943467,0.0-108.0-1.0,,null,run_exp/static/images/task_images/gems/60.jpg,null,,,,,,45,,,16,,,,,60,0.755385413,0.75,,,,,,,
decision,362,944898,0.0-108.0-2.0,,1429,run_exp/static/images/task_images/land.jpg,65,,,,,,45,,,16,,,,,,,,249725,2,3,FALSE,,,
dig,363,946500,0.0-109.0-0.0,,,,,,,,,,,"[{""stimulus"":""run_exp/static/images/task_images/dig.jpg"",""time"":0},{""stimulus"":""run_exp/static/images/task_images/land.jpg"",""time"":528},{""stimulus"":""run_exp/static/images/task_images/dig.jpg"",""time"":1056}]",[],16,,,,,,,,,,,,,,
harvest,364,947502,0.0-109.0-1.0,,null,run_exp/static/images/task_images/gems/45.jpg,null,,,,,,38,,,16,,,,,45,0.846113427,0.844444444,,,,,,,
decision,365,949413,0.0-109.0-2.0,,1907,run_exp/static/images/task_images/land.jpg,65,,,,,,38,,,16,,,,,,,,254240,2,4,FALSE,,,
dig,366,950524,0.0-110.0-0.0,,,,,,,,,,,"[{""stimulus"":""run_exp/static/images/task_images/dig.jpg"",""time"":1},{""stimulus"":""run_exp/static/images/task_images/land.jpg"",""time"":366},{""stimulus"":""run_exp/static/images/task_images/dig.jpg"",""time"":732}]",[],16,,,,,,,,,,,,,,
harvest,367,951527,0.0-110.0-1.0,,null,run_exp/static/images/task_images/gems/38.jpg,null,,,,,,33,,,16,,,,,38,0.869306041,0.868421053,,,,,,,
decision,368,952047,0.0-110.0-2.0,,519,run_exp/static/images/task_images/land.jpg,65,,,,,,33,,,16,,,,,,,,256875,2,5,FALSE,,,
dig,369,954551,0.0-111.0-0.0,,,,,,,,,,,"[{""stimulus"":""run_exp/static/images/task_images/dig.jpg"",""time"":0},{""stimulus"":""run_exp/static/images/task_images/land.jpg"",""time"":830},{""stimulus"":""run_exp/static/images/task_images/dig.jpg"",""time"":1661}]",[],16,,,,,,,,,,,,,,
harvest,370,955556,0.0-111.0-1.0,,null,run_exp/static/images/task_images/gems/33.jpg,null,,,,,,27,,,16,,,,,33,0.820567599,0.818181818,,,,,,,
decision,371,956459,0.0-111.0-2.0,,901,run_exp/static/images/task_images/land.jpg,65,,,,,,27,,,16,,,,,,,,261286,2,6,FALSE,,,
dig,372,958580,0.0-112.0-0.0,,,,,,,,,,,"[{""stimulus"":""run_exp/static/images/task_images/dig.jpg"",""time"":0},{""stimulus"":""run_exp/static/images/task_images/land.jpg"",""time"":702},{""stimulus"":""run_exp/static/images/task_images/dig.jpg"",""time"":1406}]",[],16,,,,,,,,,,,,,,
harvest,373,959586,0.0-112.0-1.0,,null,run_exp/static/images/task_images/gems/27.jpg,null,,,,,,24,,,16,,,,,27,0.876687835,0.888888889,,,,,,,
decision,374,960612,0.0-112.0-2.0,,1025,run_exp/static/images/task_images/land.jpg,76,,,,,,24,,,16,,,,,,,,265440,2,7,TRUE,,,
travel,375,969622,0.0-113.0-0.0,,,,,,,,,,,"[{""stimulus"":""run_exp/static/images/task_images/rocket-01.jpg"",""time"":0},{""stimulus"":""run_exp/static/images/task_images/rocket-02.jpg"",""time"":1002},{""stimulus"":""run_exp/static/images/task_images/rocket-03.jpg"",""time"":2001},{""stimulus"":""run_exp/static/images/task_images/rocket-04.jpg"",""time"":2999},{""stimulus"":""run_exp/static/images/task_images/rocket-05.jpg"",""time"":3998},{""stimulus"":""run_exp/static/images/task_images/rocket-06.jpg"",""time"":4999},{""stimulus"":""run_exp/static/images/task_images/rocket-07.jpg"",""time"":5999},{""stimulus"":""run_exp/static/images/task_images/rocket-08.jpg"",""time"":6998},{""stimulus"":""run_exp/static/images/task_images/rocket-09.jpg"",""time"":7998}]",[],16,,,,,,,,,,,,,,
alien_welcome,376,974624,0.0-113.0-1.0,,null,run_exp/static/images/task_images/aliens/old_aliens/planet/alien_planet-74.jpg,null,,,,,,,,,,,,74,"71,39,35,43,38,32,73,75,69,52,22,9,28,77,42,21,74,8,72,30,78,49,47,7,23,48,65,15,26,44,16,31,14,1,57,66",,,,,,,,,,
land,377,975129,0.0-113.0-2.0,,null,run_exp/static/images/task_images/land.jpg,null,,,,,,107,,,17,,,,,,,,,,,,,,
dig,378,977147,0.0-113.0-3.0,,,,,,,,,,,"[{""stimulus"":""run_exp/static/images/task_images/dig.jpg"",""time"":0},{""stimulus"":""run_exp/static/images/task_images/land.jpg"",""time"":671},{""stimulus"":""run_exp/static/images/task_images/dig.jpg"",""time"":1338}]",[],17,,,,,,,,,,,,,,
harvest,379,978151,0.0-113.0-4.0,,null,run_exp/static/images/task_images/gems/107.jpg,null,,,,,,86,,,17,,,,,107,0.806812879,0.803738318,,,,,,,
decision,380,978980,0.0-113.0-5.0,,828,run_exp/static/images/task_images/land.jpg,65,,,,,,86,,,17,,,,,,,,283807,2,0,FALSE,,,
dig,381,981174,0.0-114.0-0.0,,,,,,,,,,,"[{""stimulus"":""run_exp/static/images/task_images/dig.jpg"",""time"":0},{""stimulus"":""run_exp/static/images/task_images/land.jpg"",""time"":726},{""stimulus"":""run_exp/static/images/task_images/dig.jpg"",""time"":1450}]",[],17,,,,,,,,,,,,,,
harvest,382,982175,0.0-114.0-1.0,,null,run_exp/static/images/task_images/gems/86.jpg,null,,,,,,72,,,17,,,,,86,0.841347505,0.837209302,,,,,,,
decision,383,982968,0.0-114.0-2.0,,790,run_exp/static/images/task_images/land.jpg,65,,,,,,72,,,17,,,,,,,,287795,2,1,FALSE,,,
dig,384,985194,0.0-115.0-0.0,,,,,,,,,,,"[{""stimulus"":""run_exp/static/images/task_images/dig.jpg"",""time"":1},{""stimulus"":""run_exp/static/images/task_images/land.jpg"",""time"":738},{""stimulus"":""run_exp/static/images/task_images/dig.jpg"",""time"":1476}]",[],17,,,,,,,,,,,,,,
harvest,385,986200,0.0-115.0-1.0,,null,run_exp/static/images/task_images/gems/72.jpg,null,,,,,,54,,,17,,,,,72,0.750897464,0.75,,,,,,,
decision,386,987481,0.0-115.0-2.0,,1280,run_exp/static/images/task_images/land.jpg,65,,,,,,54,,,17,,,,,,,,292308,2,2,FALSE,,,
dig,387,989231,0.0-116.0-0.0,,,,,,,,,,,"[{""stimulus"":""run_exp/static/images/task_images/dig.jpg"",""time"":0},{""stimulus"":""run_exp/static/images/task_images/land.jpg"",""time"":575},{""stimulus"":""run_exp/static/images/task_images/dig.jpg"",""time"":1153}]",[],17,,,,,,,,,,,,,,
harvest,388,990237,0.0-116.0-1.0,,null,run_exp/static/images/task_images/gems/54.jpg,null,,,,,,45,,,17,,,,,54,0.837495853,0.833333333,,,,,,,
decision,389,992805,0.0-116.0-2.0,,2567,run_exp/static/images/task_images/land.jpg,65,,,,,,45,,,17,,,,,,,,297633,2,3,FALSE,,,
dig,390,993257,0.0-117.0-0.0,,,,,,,,,,,"[{""stimulus"":""run_exp/static/images/task_images/dig.jpg"",""time"":0},{""stimulus"":""run_exp/static/images/task_images/land.jpg"",""time"":149},{""stimulus"":""run_exp/static/images/task_images/dig.jpg"",""time"":293}]",[],17,,,,,,,,,,,,,,
harvest,391,994259,0.0-117.0-1.0,,null,run_exp/static/images/task_images/gems/45.jpg,null,,,,,,34,,,17,,,,,45,0.752961204,0.755555556,,,,,,,
decision,392,996394,0.0-117.0-2.0,,2132,run_exp/static/images/task_images/land.jpg,65,,,,,,34,,,17,,,,,,,,301221,2,4,TRUE,,,
end_of_block_continue,393,1005300,0.0-118.0-0.0,,null,run_exp/static/audio/clip_32_block_end.m4a,,,,,,null,,,,,,,,,,,,,,,,,,
alien_welcome,394,1010316,0.0-119.0-0.0,,null,run_exp/static/images/task_images/aliens/old_aliens/planet/alien_planet-8.jpg,null,,,,,,,,,,,,8,"71,39,35,43,38,32,73,75,69,52,22,9,28,77,42,21,74,8,72,30,78,49,47,7,23,48,65,15,26,44,16,31,14,1,57,66",,,,,,,,,,
land,395,1010818,0.0-119.0-1.0,,null,run_exp/static/images/task_images/land.jpg,null,,,,,,99,,,18,,,,,,,,,,,,,,
dig,396,1012836,0.0-119.0-2.0,,,,,,,,,,,"[{""stimulus"":""run_exp/static/images/task_images/dig.jpg"",""time"":1},{""stimulus"":""run_exp/static/images/task_images/land.jpg"",""time"":673},{""stimulus"":""run_exp/static/images/task_images/dig.jpg"",""time"":1340}]",[],18,,,,,,,,,,,,,,
harvest,397,1013838,0.0-119.0-3.0,,null,run_exp/static/images/task_images/gems/99.jpg,null,,,,,,54,,,18,,,,,99,0.546431807,0.545454545,,,,,,,
decision,398,1014541,0.0-119.0-4.0,,701,run_exp/static/images/task_images/land.jpg,65,,,,,,54,,,18,,,,,,,,9233,3,0,FALSE,,,
dig,399,1016868,0.0-120.0-0.0,,,,,,,,,,,"[{""stimulus"":""run_exp/static/images/task_images/dig.jpg"",""time"":0},{""stimulus"":""run_exp/static/images/task_images/land.jpg"",""time"":772},{""stimulus"":""run_exp/static/images/task_images/dig.jpg"",""time"":1543}]",[],18,,,,,,,,,,,,,,
harvest,400,1017874,0.0-120.0-1.0,,null,run_exp/static/images/task_images/gems/54.jpg,null,,,,,,25,,,18,,,,,54,0.458552027,0.462962963,,,,,,,
decision,401,1019373,0.0-120.0-2.0,,1498,run_exp/static/images/task_images/land.jpg,65,,,,,,25,,,18,,,,,,,,14064,3,1,FALSE,,,
dig,402,1020892,0.0-121.0-0.0,,,,,,,,,,,"[{""stimulus"":""run_exp/static/images/task_images/dig.jpg"",""time"":0},{""stimulus"":""run_exp/static/images/task_images/land.jpg"",""time"":502},{""stimulus"":""run_exp/static/images/task_images/dig.jpg"",""time"":1002}]",[],18,,,,,,,,,,,,,,
harvest,403,1021898,0.0-121.0-1.0,,null,run_exp/static/images/task_images/gems/25.jpg,null,,,,,,11,,,18,,,,,25,0.420905011,0.44,,,,,,,
decision,404,1024174,0.0-121.0-2.0,,2276,run_exp/static/images/task_images/land.jpg,65,,,,,,11,,,18,,,,,,,,18866,3,2,FALSE,,,
dig,405,1024920,0.0-122.0-0.0,,,,,,,,,,,"[{""stimulus"":""run_exp/static/images/task_images/dig.jpg"",""time"":0},{""stimulus"":""run_exp/static/images/task_images/land.jpg"",""time"":245},{""stimulus"":""run_exp/static/images/task_images/dig.jpg"",""time"":489}]",[],18,,,,,,,,,,,,,,
harvest,406,1025923,0.0-122.0-1.0,,null,run_exp/static/images/task_images/gems/11.jpg,null,,,,,,6,,,18,,,,,11,0.530826113,0.545454545,,,,,,,
decision,407,1027035,0.0-122.0-2.0,,1111,run_exp/static/images/task_images/land.jpg,76,,,,,,6,,,18,,,,,,,,21726,3,3,TRUE,,,
travel,408,1035958,0.0-123.0-0.0,,,,,,,,,,,"[{""stimulus"":""run_exp/static/images/task_images/rocket-01.jpg"",""time"":0},{""stimulus"":""run_exp/static/images/task_images/rocket-02.jpg"",""time"":992},{""stimulus"":""run_exp/static/images/task_images/rocket-03.jpg"",""time"":1980},{""stimulus"":""run_exp/static/images/task_images/rocket-04.jpg"",""time"":2968},{""stimulus"":""run_exp/static/images/task_images/rocket-05.jpg"",""time"":3955},{""stimulus"":""run_exp/static/images/task_images/rocket-06.jpg"",""time"":4942},{""stimulus"":""run_exp/static/images/task_images/rocket-07.jpg"",""time"":5934},{""stimulus"":""run_exp/static/images/task_images/rocket-08.jpg"",""time"":6926},{""stimulus"":""run_exp/static/images/task_images/rocket-09.jpg"",""time"":7917}]",[],18,,,,,,,,,,,,,,
alien_welcome,409,1040961,0.0-123.0-1.0,,null,run_exp/static/images/task_images/aliens/old_aliens/planet/alien_planet-72.jpg,null,,,,,,,,,,,,72,"71,39,35,43,38,32,73,75,69,52,22,9,28,77,42,21,74,8,72,30,78,49,47,7,23,48,65,15,26,44,16,31,14,1,57,66",,,,,,,,,,
land,410,1041464,0.0-123.0-2.0,,null,run_exp/static/images/task_images/land.jpg,null,,,,,,103,,,19,,,,,,,,,,,,,,
dig,411,1043484,0.0-123.0-3.0,,,,,,,,,,,"[{""stimulus"":""run_exp/static/images/task_images/dig.jpg"",""time"":0},{""stimulus"":""run_exp/static/images/task_images/land.jpg"",""time"":673},{""stimulus"":""run_exp/static/images/task_images/dig.jpg"",""time"":1342}]",[],19,,,,,,,,,,,,,,
harvest,412,1044491,0.0-123.0-4.0,,null,run_exp/static/images/task_images/gems/103.jpg,null,,,,,,87,,,19,,,,,103,0.847810411,0.844660194,,,,,,,
decision,413,1045542,0.0-123.0-5.0,,1051,run_exp/static/images/task_images/land.jpg,65,,,,,,87,,,19,,,,,,,,40233,3,0,FALSE,,,
dig,414,1047514,0.0-124.0-0.0,,,,,,,,,,,"[{""stimulus"":""run_exp/static/images/task_images/dig.jpg"",""time"":0},{""stimulus"":""run_exp/static/images/task_images/land.jpg"",""time"":655},{""stimulus"":""run_exp/static/images/task_images/dig.jpg"",""time"":1307}]",[],19,,,,,,,,,,,,,,
harvest,415,1048515,0.0-124.0-1.0,,null,run_exp/static/images/task_images/gems/87.jpg,null,,,,,,64,,,19,,,,,87,0.740082658,0.735632184,,,,,,,
decision,416,1049581,0.0-124.0-2.0,,1064,run_exp/static/images/task_images/land.jpg,65,,,,,,64,,,19,,,,,,,,44272,3,1,FALSE,,,
dig,417,1051540,0.0-125.0-0.0,,,,,,,,,,,"[{""stimulus"":""run_exp/static/images/task_images/dig.jpg"",""time"":0},{""stimulus"":""run_exp/static/images/task_images/land.jpg"",""time"":651},{""stimulus"":""run_exp/static/images/task_images/dig.jpg"",""time"":1295}]",[],19,,,,,,,,,,,,,,
harvest,418,1052546,0.0-125.0-1.0,,null,run_exp/static/images/task_images/gems/64.jpg,null,,,,,,52,,,19,,,,,64,0.809552523,0.8125,,,,,,,
decision,419,1053865,0.0-125.0-2.0,,1318,run_exp/static/images/task_images/land.jpg,65,,,,,,52,,,19,,,,,,,,48556,3,2,FALSE,,,
dig,420,1055567,0.0-126.0-0.0,,,,,,,,,,,"[{""stimulus"":""run_exp/static/images/task_images/dig.jpg"",""time"":0},{""stimulus"":""run_exp/static/images/task_images/land.jpg"",""time"":564},{""stimulus"":""run_exp/static/images/task_images/dig.jpg"",""time"":1125}]",[],19,,,,,,,,,,,,,,
harvest,421,1056573,0.0-126.0-1.0,,null,run_exp/static/images/task_images/gems/52.jpg,null,,,,,,43,,,19,,,,,52,0.827932011,0.826923077,,,,,,,
decision,422,1058366,0.0-126.0-2.0,,1792,run_exp/static/images/task_images/land.jpg,65,,,,,,43,,,19,,,,,,,,53058,3,3,FALSE,,,
dig,423,1059596,0.0-127.0-0.0,,,,,,,,,,,"[{""stimulus"":""run_exp/static/images/task_images/dig.jpg"",""time"":0},{""stimulus"":""run_exp/static/images/task_images/land.jpg"",""time"":405},{""stimulus"":""run_exp/static/images/task_images/dig.jpg"",""time"":810}]",[],19,,,,,,,,,,,,,,
harvest,424,1060602,0.0-127.0-1.0,,null,run_exp/static/images/task_images/gems/43.jpg,null,,,,,,38,,,19,,,,,43,0.873452625,0.88372093,,,,,,,
decision,425,1062775,0.0-127.0-2.0,,2172,run_exp/static/images/task_images/land.jpg,65,,,,,,38,,,19,,,,,,,,57466,3,4,FALSE,,,
dig,426,1063626,0.0-128.0-0.0,,,,,,,,,,,"[{""stimulus"":""run_exp/static/images/task_images/dig.jpg"",""time"":0},{""stimulus"":""run_exp/static/images/task_images/land.jpg"",""time"":280},{""stimulus"":""run_exp/static/images/task_images/dig.jpg"",""time"":560}]",[],19,,,,,,,,,,,,,,
harvest,427,1064630,0.0-128.0-1.0,,null,run_exp/static/images/task_images/gems/38.jpg,null,,,,,,29,,,19,,,,,38,0.772914402,0.763157895,,,,,,,
decision,428,1065849,0.0-128.0-2.0,,1219,run_exp/static/images/task_images/land.jpg,65,,,,,,29,,,19,,,,,,,,60541,3,5,FALSE,,,
dig,429,1067645,0.0-129.0-0.0,,,,,,,,,,,"[{""stimulus"":""run_exp/static/images/task_images/dig.jpg"",""time"":0},{""stimulus"":""run_exp/static/images/task_images/land.jpg"",""time"":594},{""stimulus"":""run_exp/static/images/task_images/dig.jpg"",""time"":1188}]",[],19,,,,,,,,,,,,,,
harvest,430,1068651,0.0-129.0-1.0,,null,run_exp/static/images/task_images/gems/29.jpg,null,,,,,,26,,,19,,,,,29,0.892190087,0.896551724,,,,,,,
decision,431,1071064,0.0-129.0-2.0,,2412,run_exp/static/images/task_images/land.jpg,76,,,,,,26,,,19,,,,,,,,65755,3,6,TRUE,,,
travel,432,1078695,0.0-130.0-0.0,,,,,,,,,,,"[{""stimulus"":""run_exp/static/images/task_images/rocket-01.jpg"",""time"":0},{""stimulus"":""run_exp/static/images/task_images/rocket-02.jpg"",""time"":849},{""stimulus"":""run_exp/static/images/task_images/rocket-03.jpg"",""time"":1692},{""stimulus"":""run_exp/static/images/task_images/rocket-04.jpg"",""time"":2536},{""stimulus"":""run_exp/static/images/task_images/rocket-05.jpg"",""time"":3380},{""stimulus"":""run_exp/static/images/task_images/rocket-06.jpg"",""time"":4225},{""stimulus"":""run_exp/static/images/task_images/rocket-07.jpg"",""time"":5070},{""stimulus"":""run_exp/static/images/task_images/rocket-08.jpg"",""time"":5913},{""stimulus"":""run_exp/static/images/task_images/rocket-09.jpg"",""time"":6761}]",[],19,,,,,,,,,,,,,,
alien_welcome,433,1083699,0.0-130.0-1.0,,null,run_exp/static/images/task_images/aliens/old_aliens/planet/alien_planet-30.jpg,null,,,,,,,,,,,,30,"71,39,35,43,38,32,73,75,69,52,22,9,28,77,42,21,74,8,72,30,78,49,47,7,23,48,65,15,26,44,16,31,14,1,57,66",,,,,,,,,,
land,434,1084201,0.0-130.0-2.0,,null,run_exp/static/images/task_images/land.jpg,null,,,,,,94,,,20,,,,,,,,,,,,,,
dig,435,1086224,0.0-130.0-3.0,,,,,,,,,,,"[{""stimulus"":""run_exp/static/images/task_images/dig.jpg"",""time"":0},{""stimulus"":""run_exp/static/images/task_images/land.jpg"",""time"":673},{""stimulus"":""run_exp/static/images/task_images/dig.jpg"",""time"":1341}]",[],20,,,,,,,,,,,,,,
harvest,436,1087228,0.0-130.0-4.0,,null,run_exp/static/images/task_images/gems/94.jpg,null,,,,,,49,,,20,,,,,94,0.516240046,0.521276596,,,,,,,
decision,437,1087278,0.0-130.0-5.0,,48,run_exp/static/images/task_images/land.jpg,65,,,,,,49,,,20,,,,,,,,81969,3,0,FALSE,,,
dig,438,1090252,0.0-131.0-0.0,,,,,,,,,,,"[{""stimulus"":""run_exp/static/images/task_images/dig.jpg"",""time"":0},{""stimulus"":""run_exp/static/images/task_images/land.jpg"",""time"":986},{""stimulus"":""run_exp/static/images/task_images/dig.jpg"",""time"":1975}]",[],20,,,,,,,,,,,,,,
harvest,439,1091257,0.0-131.0-1.0,,null,run_exp/static/images/task_images/gems/49.jpg,null,,,,,,25,,,20,,,,,49,0.516486769,0.510204082,,,,,,,
decision,440,1091273,0.0-131.0-2.0,,16,run_exp/static/images/task_images/land.jpg,65,,,,,,25,,,20,,,,,,,,85964,3,1,FALSE,,,
