trial_type,trial_index,time_elapsed,internal_node_id,interactions,blur_events,focus_events,fullscreenenter_events,fullscreenexit_events,success,rt,stimulus,key_press,prompt,subject_id,participant_id,age,gender,button_pressed,next_reward,animation_sequence,responses,planet,curr_prac_trial,n_prac_rounds,alien,aliens,reward_received,decay_rate_actual,decay_rate_exp,time_in_block,block_num,prt,last_trial_on_planet,button_html,bonus,num_failures
pavlovia,0,3,0.0-0.0,"""event"",""trial"",""time""
""fullscreenenter"",""1"",""2077""
","
","
","""event"",""trial"",""time""
""fullscreenenter"",""1"",""2077""
","
",,,,,,,,,,,,,,,,,,,,,,,,,,,,
fullscreen,1,3060,0.0-1.0,"""event"",""trial"",""time""
""fullscreenenter"",""1"",""2077""
","
","
","""event"",""trial"",""time""
""fullscreenenter"",""1"",""2077""
","
",TRUE,,,,,,,,,,,,,,,,,,,,,,,,,,,
instruc_welcome,2,12803,0.0-2.0,"""event"",""trial"",""time""
""fullscreenenter"",""1"",""2077""
","
","
","""event"",""trial"",""time""
""fullscreenenter"",""1"",""2077""
","
",,null,run_exp/static/audio/clip_1_welcome.m4a,null,"<p>Howdy! In this experiment, you’ll be an explorer traveling through space to collect space treasure.</p><p>Your mission is to collect as much treasure as possible.</p><br><br><p><img src='run_exp/static/images/task_images/opening_img-01.jpg' height='300' width='auto'></p>",9522,2040,12.48,Female,,,,,,,,,,,,,,,,,,,
audio-keyboard-response,3,29383,0.0-3.0,"""event"",""trial"",""time""
""fullscreenenter"",""1"",""2077""
","
","
","""event"",""trial"",""time""
""fullscreenenter"",""1"",""2077""
","
",,null,run_exp/static/audio/clip_2_move.m4a,null,,,,,,,,,,,,,,,,,,,,,,,,
welcome_dec,4,31686,0.0-4.0,"""event"",""trial"",""time""
""fullscreenenter"",""1"",""2077""
","
","
","""event"",""trial"",""time""
""fullscreenenter"",""1"",""2077""
","
",,2301.3,"<p>Howdy! In this experiment, you’ll be an explorer traveling through space to collect space treasure.</p><p>Your mission is to collect as much treasure as possible.</p><br><br><p><img src='run_exp/static/images/task_images/opening_img-01.jpg' height='300' width='auto'></p>",,,,,,,1,,,,,,,,,,,,,,,,,,
html-keyboard-response,5,31790,0.0-5.0,"""event"",""trial"",""time""
""fullscreenenter"",""1"",""2077""
","
","
","""event"",""trial"",""time""
""fullscreenenter"",""1"",""2077""
","
",,103.3,"<p>Howdy! In this experiment, you’ll be an explorer traveling through space to collect space treasure.</p><p>Your mission is to collect as much treasure as possible.</p><br><br><p><img src='run_exp/static/images/task_images/opening_img-01.jpg' height='300' width='auto'></p><button class=""jspsych-html-btn-unchosen""><img src=""run_exp/static/images/task_images/planet-01.jpg"" height=""50""></button><button class=""jspsych-html-btn-chosen""><img src=""run_exp/static/images/task_images/planet-02.jpg"" height=""50""></button><p><b>[press the space bar to lock in your answer]<b><br></p>",32,,,,,,,,,,,,,,,,,,,,,,,,
instruc_goal,6,41852,0.0-6.0-0.0,"""event"",""trial"",""time""
""fullscreenenter"",""1"",""2077""
","
","
","""event"",""trial"",""time""
""fullscreenenter"",""1"",""2077""
","
",,null,run_exp/static/audio/clip_3_goal.m4a,null,"<p> As a space explorer, you’ll visit different planets to dig for space treasure, these pink gems.</p> <p> The more treasure you dig up, the more bonus money you’ll win! </p><br><br><p><img src='run_exp/static/images/task_images/pink_gem.jpg' height='300' width='auto'></p>",,,,,,,,,,,,,,,,,,,,,,,
instruc_goal,7,42291,0.0-6.0-1.0,"""event"",""trial"",""time""
""fullscreenenter"",""1"",""2077""
","
","
","""event"",""trial"",""time""
""fullscreenenter"",""1"",""2077""
","
",,437.8,"<p> As a space explorer, you’ll visit different planets to dig for space treasure, these pink gems.</p> <p> The more treasure you dig up, the more bonus money you’ll win! </p><br><br><p><img src='run_exp/static/images/task_images/pink_gem.jpg' height='300' width='auto'></p>",,,,,,,1,,,,,,,,,,,,,,,,,,
html-keyboard-response,8,42454,0.0-6.0-2.0,"""event"",""trial"",""time""
""fullscreenenter"",""1"",""2077""
","
","
","""event"",""trial"",""time""
""fullscreenenter"",""1"",""2077""
","
",,162.1,"<p> As a space explorer, you’ll visit different planets to dig for space treasure, these pink gems.</p> <p> The more treasure you dig up, the more bonus money you’ll win! </p><br><br><p><img src='run_exp/static/images/task_images/pink_gem.jpg' height='300' width='auto'></p><button class=""jspsych-html-btn-unchosen""><img src=""run_exp/static/images/task_images/planet-01.jpg"" height=""50""></button><button class=""jspsych-html-btn-chosen""><img src=""run_exp/static/images/task_images/planet-02.jpg"" height=""50""></button><p><b>[press the space bar to lock in your answer]<b><br></p>",32,,,,,,,,,,,,,,,,,,,,,,,,
instruc_dig,9,58478,0.0-7.0-0.0,"""event"",""trial"",""time""
""fullscreenenter"",""1"",""2077""
","
","
","""event"",""trial"",""time""
""fullscreenenter"",""1"",""2077""
","
",,null,run_exp/static/audio/clip_4_dig.m4a,null,,,,,,,100,,,,,,,,,,,,,,,,,
instruc_dig_try,10,58999,0.0-7.0-1.0,"""event"",""trial"",""time""
""fullscreenenter"",""1"",""2077""
","
","
","""event"",""trial"",""time""
""fullscreenenter"",""1"",""2077""
","
",,520.1,"<p> When you’ve arrived at a new planet, you will dig once. </p> <p>Then, you get to decide if you want to stay on the planet and dig again or travel to a new planet and dig there.</p> <p> To stay and dig, press the letter <strong>‘A’</strong> on your keyboard. Try pressing it now! </p><p><img src='run_exp/static/images/task_images/land.jpg'  height='700' width='auto'></p>",65,"<p> When you’ve arrived at a new planet, you will dig once. </p> <p>Then, you get to decide if you want to stay on the planet and dig again or travel to a new planet and dig there.</p> <p> To stay and dig, press the letter <strong>‘A’</strong> on your keyboard. Try pressing it now! </p><p><img src='run_exp/static/images/task_images/land.jpg'  height='700' width='auto'></p>",,,,,,100,,,,,,,,,,,,,,,,,
dig_prac,11,61027,0.0-7.0-2.0,"""event"",""trial"",""time""
""fullscreenenter"",""1"",""2077""
","
","
","""event"",""trial"",""time""
""fullscreenenter"",""1"",""2077""
","
",,,,,,,,,,,,"[{""stimulus"":""run_exp/static/images/task_images/dig.jpg"",""time"":0.10000002384185791},{""stimulus"":""run_exp/static/images/task_images/land.jpg"",""time"":675},{""stimulus"":""run_exp/static/images/task_images/dig.jpg"",""time"":1339.4000000357628}]",[],,,,,,,,,,,,,,,
instruc_travel,12,97257,0.0-7.0-3.0,"""event"",""trial"",""time""
""fullscreenenter"",""1"",""2077""
","
","
","""event"",""trial"",""time""
""fullscreenenter"",""1"",""2077""
","
",,null,run_exp/static/audio/clip_5_travel.m4a,null,"<p>Every time you dig up gems, there are less gems on the planet, so the more you dig on a planet the fewer gems you’ll get with each dig.</p><p>When gems are running low, you may want to travel to a new planet. </p> <p>  Planets are very far apart in this galaxy, so it will take some time to travel between them. </p> <br><p>There are lots and lots of planets for you to visit, so you won’t be able to return to any planets you’ve seen before. </p><br><p>To leave this planet and travel to a new one, press the letter <strong>‘L’</strong> on your keyboard. Try pressing it now! </p><p><img src='run_exp/static/images/task_images/rocket-01.jpg'  height='600' width='auto'></p>",,,,,,,,,,,,,,,,,,,,,,,
instruc_travel_try,13,97520,0.0-7.0-4.0,"""event"",""trial"",""time""
""fullscreenenter"",""1"",""2077""
","
","
","""event"",""trial"",""time""
""fullscreenenter"",""1"",""2077""
","
",,259,"<p>Every time you dig up gems, there are less gems on the planet, so the more you dig on a planet the fewer gems you’ll get with each dig.</p><p>When gems are running low, you may want to travel to a new planet. </p> <p>  Planets are very far apart in this galaxy, so it will take some time to travel between them. </p> <br><p>There are lots and lots of planets for you to visit, so you won’t be able to return to any planets you’ve seen before. </p><br><p>To leave this planet and travel to a new one, press the letter <strong>‘L’</strong> on your keyboard. Try pressing it now! </p><p><img src='run_exp/static/images/task_images/rocket-01.jpg'  height='600' width='auto'></p>",76,"<p>Every time you dig up gems, there are less gems on the planet, so the more you dig on a planet the fewer gems you’ll get with each dig.</p><p>When gems are running low, you may want to travel to a new planet. </p> <p>  Planets are very far apart in this galaxy, so it will take some time to travel between them. </p> <br><p>There are lots and lots of planets for you to visit, so you won’t be able to return to any planets you’ve seen before. </p><br><p>To leave this planet and travel to a new one, press the letter <strong>‘L’</strong> on your keyboard. Try pressing it now! </p><p><img src='run_exp/static/images/task_images/rocket-01.jpg'  height='600' width='auto'></p>",,,,,,,,,,,,,,,,,,,,,,,
travel_prac,14,107527,0.0-7.0-5.0,"""event"",""trial"",""time""
""fullscreenenter"",""1"",""2077""
","
","
","""event"",""trial"",""time""
""fullscreenenter"",""1"",""2077""
","
",,,,,,,,,,,,"[{""stimulus"":""run_exp/static/images/task_images/rocket-01.jpg"",""time"":0.09999996423721313},{""stimulus"":""run_exp/static/images/task_images/rocket-02.jpg"",""time"":1119.199999988079},{""stimulus"":""run_exp/static/images/task_images/rocket-03.jpg"",""time"":2235.099999964237},{""stimulus"":""run_exp/static/images/task_images/rocket-04.jpg"",""time"":3335.099999964237},{""stimulus"":""run_exp/static/images/task_images/rocket-05.jpg"",""time"":4449.699999988079},{""stimulus"":""run_exp/static/images/task_images/rocket-06.jpg"",""time"":5563.099999964237},{""stimulus"":""run_exp/static/images/task_images/rocket-07.jpg"",""time"":6675.099999964237},{""stimulus"":""run_exp/static/images/task_images/rocket-08.jpg"",""time"":7785.5},{""stimulus"":""run_exp/static/images/task_images/rocket-09.jpg"",""time"":8895.099999964237}]",[],0,,,,,,,,,,,,,,
instruc_alien_greet,15,134735,0.0-7.0-6.0,"""event"",""trial"",""time""
""fullscreenenter"",""1"",""2077""
","
","
","""event"",""trial"",""time""
""fullscreenenter"",""1"",""2077""
","
",,null,run_exp/static/audio/clip_6_alien.m4a,null,"<p>When you arrive at a new planet, the alien who owns the treasure mine on that planet will greet you!</p><p>The better an alien takes care of their mine the easier it is to dig for gems. Some aliens take better care of their mine than others. So, you won’t get exactly the same amount of gems on each planet.</p><p>What the alien looks like does not tell you anything about how many gems there are on the planet.</p><br><p><img src=""run_exp/static/images/task_images/aliens/instructions_aliens/planet/alien_planet-1.jpg""  height=""600"" width=""auto""></p>",,,,,,,,,,,,,,,,,,,,,,,
instruc_alien_greet,16,137041,0.0-7.0-7.0,"""event"",""trial"",""time""
""fullscreenenter"",""1"",""2077""
","
","
","""event"",""trial"",""time""
""fullscreenenter"",""1"",""2077""
","
",,2304.8,"<p>When you arrive at a new planet, the alien who owns the treasure mine on that planet will greet you!</p><p>The better an alien takes care of their mine the easier it is to dig for gems. Some aliens take better care of their mine than others. So, you won’t get exactly the same amount of gems on each planet.</p><p>What the alien looks like does not tell you anything about how many gems there are on the planet.</p><br><p><img src=""run_exp/static/images/task_images/aliens/instructions_aliens/planet/alien_planet-1.jpg""  height=""600"" width=""auto""></p>",,,,,,,1,,,,,,,,,,,,,,,,,,
html-keyboard-response,17,137713,0.0-7.0-8.0,"""event"",""trial"",""time""
""fullscreenenter"",""1"",""2077""
","
","
","""event"",""trial"",""time""
""fullscreenenter"",""1"",""2077""
","
",,671.6,"<p>When you arrive at a new planet, the alien who owns the treasure mine on that planet will greet you!</p><p>The better an alien takes care of their mine the easier it is to dig for gems. Some aliens take better care of their mine than others. So, you won’t get exactly the same amount of gems on each planet.</p><p>What the alien looks like does not tell you anything about how many gems there are on the planet.</p><br><p><img src=""run_exp/static/images/task_images/aliens/instructions_aliens/planet/alien_planet-1.jpg""  height=""600"" width=""auto""></p><button class=""jspsych-html-btn-unchosen""><img src=""run_exp/static/images/task_images/planet-01.jpg"" height=""50""></button><button class=""jspsych-html-btn-chosen""><img src=""run_exp/static/images/task_images/planet-02.jpg"" height=""50""></button><p><b>[press the space bar to lock in your answer]<b><br></p>",32,,,,,,,,,,,,,,,,,,,,,,,,
time_out,18,148783,0.0-8.0-0.0,"""event"",""trial"",""time""
""fullscreenenter"",""1"",""2077""
","
","
","""event"",""trial"",""time""
""fullscreenenter"",""1"",""2077""
","
",,null,run_exp/static/audio/clip_7_timeout.m4a,null,"<p>If you don't make your choice fast enough, you’ll have to wait a few seconds before you can make another one.</p><p>You can’t dig for more gems or travel to new planets. You just have to sit and wait.</p><br><p><img src='run_exp/static/images/task_images/time_out.jpg'  height='600' width='auto'></p>",,,,,,,,,,,,,,,,,,,,,,,
time_out,19,149304,0.0-8.0-1.0,"""event"",""trial"",""time""
""fullscreenenter"",""1"",""2077""
","
","
","""event"",""trial"",""time""
""fullscreenenter"",""1"",""2077""
","
",,519.8,"<p>If you don't make your choice fast enough, you’ll have to wait a few seconds before you can make another one.</p><p>You can’t dig for more gems or travel to new planets. You just have to sit and wait.</p><br><p><img src='run_exp/static/images/task_images/time_out.jpg'  height='600' width='auto'></p>",,,,,,,1,,,,,,,,,,,,,,,,,,
html-keyboard-response,20,149441,0.0-8.0-2.0,"""event"",""trial"",""time""
""fullscreenenter"",""1"",""2077""
","
","
","""event"",""trial"",""time""
""fullscreenenter"",""1"",""2077""
","
",,135.9,"<p>If you don't make your choice fast enough, you’ll have to wait a few seconds before you can make another one.</p><p>You can’t dig for more gems or travel to new planets. You just have to sit and wait.</p><br><p><img src='run_exp/static/images/task_images/time_out.jpg'  height='600' width='auto'></p><button class=""jspsych-html-btn-unchosen""><img src=""run_exp/static/images/task_images/planet-01.jpg"" height=""50""></button><button class=""jspsych-html-btn-chosen""><img src=""run_exp/static/images/task_images/planet-02.jpg"" height=""50""></button><p><b>[press the space bar to lock in your answer]<b><br></p>",32,,,,,,,,,,,,,,,,,,,,,,,,
instruc_break,21,165131,0.0-9.0-0.0,"""event"",""trial"",""time""
""fullscreenenter"",""1"",""2077""
","
","
","""event"",""trial"",""time""
""fullscreenenter"",""1"",""2077""
","
",,null,run_exp/static/audio/clip_8_break.m4a,null,"<p> After digging and traveling for a while, you’ll be able to take a break at home base. </p><p>The game will last 20 minutes no matter what.</p><p>You will visit home base every 5 minutes, so, you will visit home base three times during the game.</p><br><p><img src='run_exp/static/images/task_images/home_base.jpg' height='600' width='auto'></p>",,,,,,,,,,,,,,,,,,,,,,,
instruc_break,22,165649,0.0-9.0-1.0,"""event"",""trial"",""time""
""fullscreenenter"",""1"",""2077""
","
","
","""event"",""trial"",""time""
""fullscreenenter"",""1"",""2077""
","
",,517.2,"<p> After digging and traveling for a while, you’ll be able to take a break at home base. </p><p>The game will last 20 minutes no matter what.</p><p>You will visit home base every 5 minutes, so, you will visit home base three times during the game.</p><br><p><img src='run_exp/static/images/task_images/home_base.jpg' height='600' width='auto'></p>",,,,,,,1,,,,,,,,,,,,,,,,,,
html-keyboard-response,23,165874,0.0-9.0-2.0,"""event"",""trial"",""time""
""fullscreenenter"",""1"",""2077""
","
","
","""event"",""trial"",""time""
""fullscreenenter"",""1"",""2077""
","
",,224.5,"<p> After digging and traveling for a while, you’ll be able to take a break at home base. </p><p>The game will last 20 minutes no matter what.</p><p>You will visit home base every 5 minutes, so, you will visit home base three times during the game.</p><br><p><img src='run_exp/static/images/task_images/home_base.jpg' height='600' width='auto'></p><button class=""jspsych-html-btn-unchosen""><img src=""run_exp/static/images/task_images/planet-01.jpg"" height=""50""></button><button class=""jspsych-html-btn-chosen""><img src=""run_exp/static/images/task_images/planet-02.jpg"" height=""50""></button><p><b>[press the space bar to lock in your answer]<b><br></p>",32,,,,,,,,,,,,,,,,,,,,,,,,
instruc_prac_game,24,175998,0.0-10.0-0.0,"""event"",""trial"",""time""
""fullscreenenter"",""1"",""2077""
","
","
","""event"",""trial"",""time""
""fullscreenenter"",""1"",""2077""
","
",,null,run_exp/static/audio/clip_9_practice.m4a,null,"<p> Are you ready to play a practice game? </p> <p>In this practice game, you'll be digging up barrels of gems. But, in the real game, you'll be digging up the gems themselves. </p>",,,,,,,,,,,,,,,,,,,,,,,
html-button-response,25,177498,0.0-10.0-1.0,"""event"",""trial"",""time""
""fullscreenenter"",""1"",""2077""
","
","
","""event"",""trial"",""time""
""fullscreenenter"",""1"",""2077""
","
",,1499.4,"<p> Are you ready to play a practice game? </p> <p>In this practice game, you'll be digging up barrels of gems. But, in the real game, you'll be digging up the gems themselves. </p>",,,,,,,0,,,,,,,,,,,,,,,,,,
alien_welcome_prac,26,182502,0.0-11.0-0.0,"""event"",""trial"",""time""
""fullscreenenter"",""1"",""2077""
","
","
","""event"",""trial"",""time""
""fullscreenenter"",""1"",""2077""
","
",,null,run_exp/static/images/task_images/aliens/practice_aliens/planet/alien_planet-5.jpg,null,,,,,,,,,,,,,,,,,,,,,,,,
land_prac,27,183010,0.0-11.0-1.0,"""event"",""trial"",""time""
""fullscreenenter"",""1"",""2077""
","
","
","""event"",""trial"",""time""
""fullscreenenter"",""1"",""2077""
","
",,null,run_exp/static/images/task_images/land.jpg,null,,,,,,,100,,,0,,,,,,,,,,,,,,
dig_prac,28,185022,0.0-11.0-2.0,"""event"",""trial"",""time""
""fullscreenenter"",""1"",""2077""
","
","
","""event"",""trial"",""time""
""fullscreenenter"",""1"",""2077""
","
",,,,,,,,,,,,"[{""stimulus"":""run_exp/static/images/task_images/dig.jpg"",""time"":0.10000002384185791},{""stimulus"":""run_exp/static/images/task_images/land.jpg"",""time"":671.3000000119209},{""stimulus"":""run_exp/static/images/task_images/dig.jpg"",""time"":1346.1000000238419}]",[],,,,,,,,,,,,,,,
harvest_prac,29,186029,0.0-11.0-3.0,"""event"",""trial"",""time""
""fullscreenenter"",""1"",""2077""
","
","
","""event"",""trial"",""time""
""fullscreenenter"",""1"",""2077""
","
",,null,run_exp/static/images/task_images/barrel_text.jpg,null,,,,,,,,,,,,,,,,,,,,,,,,
decision_prac,30,186915,0.0-11.0-4.0,"""event"",""trial"",""time""
""fullscreenenter"",""1"",""2077""
","
","
","""event"",""trial"",""time""
""fullscreenenter"",""1"",""2077""
","
",,884.8,run_exp/static/images/task_images/land.jpg,65,,,,,,,,,,,1,,,,,,,,,,,,,
dig_prac,31,188924,0.0-12.0-0.0,"""event"",""trial"",""time""
""fullscreenenter"",""1"",""2077""
","
","
","""event"",""trial"",""time""
""fullscreenenter"",""1"",""2077""
","
",,,,,,,,,,,,"[{""stimulus"":""run_exp/static/images/task_images/dig.jpg"",""time"":0},{""stimulus"":""run_exp/static/images/task_images/land.jpg"",""time"":674.3999999761581},{""stimulus"":""run_exp/static/images/task_images/dig.jpg"",""time"":1342.300000011921}]",[],,,,,,,,,,,,,,,
harvest_prac,32,189934,0.0-12.0-1.0,"""event"",""trial"",""time""
""fullscreenenter"",""1"",""2077""
","
","
","""event"",""trial"",""time""
""fullscreenenter"",""1"",""2077""
","
",,null,run_exp/static/images/task_images/barrel_text.jpg,null,,,,,,,,,,,,,,,,,,,,,,,,
decision_prac,33,190267,0.0-12.0-2.0,"""event"",""trial"",""time""
""fullscreenenter"",""1"",""2077""
","
","
","""event"",""trial"",""time""
""fullscreenenter"",""1"",""2077""
","
",,331.9,run_exp/static/images/task_images/land.jpg,65,,,,,,,,,,,2,,,,,,,,,,,,,
dig_prac,34,192276,0.0-13.0-0.0,"""event"",""trial"",""time""
""fullscreenenter"",""1"",""2077""
","
","
","""event"",""trial"",""time""
""fullscreenenter"",""1"",""2077""
","
",,,,,,,,,,,,"[{""stimulus"":""run_exp/static/images/task_images/dig.jpg"",""time"":0.19999998807907104},{""stimulus"":""run_exp/static/images/task_images/land.jpg"",""time"":673.8999999761581},{""stimulus"":""run_exp/static/images/task_images/dig.jpg"",""time"":1342.5999999642372}]",[],,,,,,,,,,,,,,,
harvest_prac,35,193283,0.0-13.0-1.0,"""event"",""trial"",""time""
""fullscreenenter"",""1"",""2077""
","
","
","""event"",""trial"",""time""
""fullscreenenter"",""1"",""2077""
","
",,null,run_exp/static/images/task_images/barrel_text.jpg,null,,,,,,,,,,,,,,,,,,,,,,,,
decision_prac,36,193379,0.0-13.0-2.0,"""event"",""trial"",""time""
""fullscreenenter"",""1"",""2077""
","
","
","""event"",""trial"",""time""
""fullscreenenter"",""1"",""2077""
","
",,95.40000004,run_exp/static/images/task_images/land.jpg,65,,,,,,,,,,,3,,,,,,,,,,,,,
dig_prac,37,195386,0.0-14.0-0.0,"""event"",""trial"",""time""
""fullscreenenter"",""1"",""2077""
","
","
","""event"",""trial"",""time""
""fullscreenenter"",""1"",""2077""
","
",,,,,,,,,,,,"[{""stimulus"":""run_exp/static/images/task_images/dig.jpg"",""time"":0.19999998807907104},{""stimulus"":""run_exp/static/images/task_images/land.jpg"",""time"":674.7999999523163},{""stimulus"":""run_exp/static/images/task_images/dig.jpg"",""time"":1338.7999999523163}]",[],,,,,,,,,,,,,,,
harvest_prac,38,196399,0.0-14.0-1.0,"""event"",""trial"",""time""
""fullscreenenter"",""1"",""2077""
","
","
","""event"",""trial"",""time""
""fullscreenenter"",""1"",""2077""
","
",,null,run_exp/static/images/task_images/barrel_text.jpg,null,,,,,,,,,,,,,,,,,,,,,,,,
decision_prac,39,196547,0.0-14.0-2.0,"""event"",""trial"",""time""
""fullscreenenter"",""1"",""2077""
","
","
","""event"",""trial"",""time""
""fullscreenenter"",""1"",""2077""
","
",,147.6,run_exp/static/images/task_images/land.jpg,65,,,,,,,,,,,4,,,,,,,,,,,,,
dig_prac,40,198556,0.0-15.0-0.0,"""event"",""trial"",""time""
""fullscreenenter"",""1"",""2077""
","
","
","""event"",""trial"",""time""
""fullscreenenter"",""1"",""2077""
","
",,,,,,,,,,,,"[{""stimulus"":""run_exp/static/images/task_images/dig.jpg"",""time"":0},{""stimulus"":""run_exp/static/images/task_images/land.jpg"",""time"":671.6999999880791},{""stimulus"":""run_exp/static/images/task_images/dig.jpg"",""time"":1338.5}]",[],,,,,,,,,,,,,,,
harvest_prac,41,199565,0.0-15.0-1.0,"""event"",""trial"",""time""
""fullscreenenter"",""1"",""2077""
","
","
","""event"",""trial"",""time""
""fullscreenenter"",""1"",""2077""
","
",,null,run_exp/static/images/task_images/barrel_text.jpg,null,,,,,,,,,,,,,,,,,,,,,,,,
decision_prac,42,200035,0.0-15.0-2.0,"""event"",""trial"",""time""
""fullscreenenter"",""1"",""2077""
","
","
","""event"",""trial"",""time""
""fullscreenenter"",""1"",""2077""
","
",,469.1,run_exp/static/images/task_images/land.jpg,65,,,,,,,,,,,,1,,,,,,,,,,,,
quiz_instruc,43,201928,0.0-16.0-0.0,"""event"",""trial"",""time""
""fullscreenenter"",""1"",""2077""
","
","
","""event"",""trial"",""time""
""fullscreenenter"",""1"",""2077""
","
",,1891.3,run_exp/static/audio/clip_10_quiz.m4a,,,,,,,0,,,,,,,,,,,,,,,,,,
instruc_repeat,44,244685,0.0-16.0-1.0,"""event"",""trial"",""time""
""fullscreenenter"",""1"",""2077""
","
","
","""event"",""trial"",""time""
""fullscreenenter"",""1"",""2077""
","
",,null,"<p> Are you ready to play a practice game? </p> <p>In this practice game, you'll be digging up barrels of gems. But, in the real game, you'll be digging up the gems themselves. </p>",null,"<p>In this game, your goal is to collect as many gems as you can. That’s how you will win bonus money. </p> <p>The entire game will last 20 minutes no matter how many gems you collect or how many planets you visit. </p><p>To stay on a planet and dig again, press the letter A on your keyboard. To leave for a new planet, press the letter L.</p><p>The more you dig on a planet, the fewer gems you’ll get with each dig which is why you might consider leaving for a new planet. </p><p>When you arrive at a new planet, you’ll be greeted by an alien. What the alien looks like does not tell you anything about how much treasure is on the planet. </p>",,,,,,,,,,,,,,,,,,,,,,,
instruc_repeat_continue,45,245659,0.0-16.0-2.0,"""event"",""trial"",""time""
""fullscreenenter"",""1"",""2077""
","
","
","""event"",""trial"",""time""
""fullscreenenter"",""1"",""2077""
","
",,973.6,"<p> Are you ready to play a practice game? </p> <p>In this practice game, you'll be digging up barrels of gems. But, in the real game, you'll be digging up the gems themselves. </p>",,,,,,,0,,,,,,,,,,,,,,,,,,
quiz_q_1_ask,46,248897,0.0-16.0-3.0,"""event"",""trial"",""time""
""fullscreenenter"",""1"",""2077""
","
","
","""event"",""trial"",""time""
""fullscreenenter"",""1"",""2077""
","
",,3237.2,run_exp/static/audio/clip_11_q1_ask.m4a,,,,,,,2,,,,,,,,,,,,,,,,,,
quiz_q_1_fb_correct,47,252742,0.0-17.0-0.0,"""event"",""trial"",""time""
""fullscreenenter"",""1"",""2077""
","
","
","""event"",""trial"",""time""
""fullscreenenter"",""1"",""2077""
","
",,null,run_exp/static/audio/clip_12_q1_correct.m4a,null,<p>That’s correct. You win extra money by collecting more gems.</p>,,,,,,,,,,,,,,,,,,,,,,,
quiz_q_2_ask,48,257784,0.0-17.0-1.0,"""event"",""trial"",""time""
""fullscreenenter"",""1"",""2077""
","
","
","""event"",""trial"",""time""
""fullscreenenter"",""1"",""2077""
","
",,5040.2,run_exp/static/audio/clip_14_q2_ask.m4a,,,,,,,1,,,,,,,,,,,,,,,,,,
quiz_q_2_fb_correct,49,261775,0.0-18.0-0.0,"""event"",""trial"",""time""
""fullscreenenter"",""1"",""2077""
","
","
","""event"",""trial"",""time""
""fullscreenenter"",""1"",""2077""
","
",,null,run_exp/static/audio/clip_15_q2_correct.m4a,null,<p>That’s correct. The experiment is 20 minutes no matter what.</p>,,,,,,,,,,,,,,,,,,,,,,,
quiz_q_3_ask,50,263461,0.0-18.0-1.0,"""event"",""trial"",""time""
""fullscreenenter"",""1"",""2077""
","
","
","""event"",""trial"",""time""
""fullscreenenter"",""1"",""2077""
","
",,1685.2,run_exp/static/audio/clip_17_q3_ask.m4a,,,,,,,1,,,,,,,,,,,,,,,,,,
quiz_q_3_fb_correct,51,267441,0.0-19.0-0.0,"""event"",""trial"",""time""
""fullscreenenter"",""1"",""2077""
","
","
","""event"",""trial"",""time""
""fullscreenenter"",""1"",""2077""
","
",,null,run_exp/static/audio/clip_18_q3_correct.m4a,null,<p> That’s correct. You press the letter L to travel to a new planet.</p>,,,,,,,,,,,,,,,,,,,,,,,
quiz_q_4_ask,52,270164,0.0-19.0-1.0,"""event"",""trial"",""time""
""fullscreenenter"",""1"",""2077""
","
","
","""event"",""trial"",""time""
""fullscreenenter"",""1"",""2077""
","
",,2722.3,run_exp/static/audio/clip_20_q4_ask.m4a,,,,,,,1,,,,,,,,,,,,,,,,,,
quiz_q_4_fb_incorrect,53,275986,0.0-20.0-0.0,"""event"",""trial"",""time""
""fullscreenenter"",""1"",""2077""
","
","
","""event"",""trial"",""time""
""fullscreenenter"",""1"",""2077""
","
",,null,run_exp/static/audio/clip_22_q4_incorrect.m4a,null,<p>That’s incorrect.  The more you dig on a planet the fewer gems you’ll get with each dig.</p>,,,,,,,,,,,,,,,,,,,,,,,
quiz_q_5_ask,54,277811,0.0-20.0-1.0,"""event"",""trial"",""time""
""fullscreenenter"",""1"",""2077""
","
","
","""event"",""trial"",""time""
""fullscreenenter"",""1"",""2077""
","
",,1824.2,run_exp/static/audio/clip_23_q5_ask.m4a,,,,,,,1,,,,,,,,,,,,,,,,,,
quiz_q_5_fb_correct,55,282813,0.0-21.0-0.0,"""event"",""trial"",""time""
""fullscreenenter"",""1"",""2077""
","
","
","""event"",""trial"",""time""
""fullscreenenter"",""1"",""2077""
","
",,null,run_exp/static/audio/clip_24_q5_correct.m4a,null,<p> That’s correct. The alien tells you nothing about how much treasure is on the planet.</p>,,,,,,,,,,,,,,,,,,,,,,,
quiz_incorrect,56,288363,0.0-22.0-0.0,"""event"",""trial"",""time""
""fullscreenenter"",""1"",""2077""
","
","
","""event"",""trial"",""time""
""fullscreenenter"",""1"",""2077""
","
",,null,run_exp/static/audio/clip_27_incorrect_quiz.m4a,null,,,,,,,,,,,,,,,,,,,,,,,,
quiz_incorrect_continue,57,295382,0.0-22.0-1.0,"""event"",""trial"",""time""
""fullscreenenter"",""1"",""2077""
","
","
","""event"",""trial"",""time""
""fullscreenenter"",""1"",""2077""
","
",,7018.1,"<p>Oops, you missed some questions.</p><p>Now that you’ve heard the correct answers. Try the quiz again!</p>",,,,,,,0,,,,,,,,,,,,,,,,,,
quiz_q_1_ask,58,302017,0.0-22.0-2.0,"""event"",""trial"",""time""
""fullscreenenter"",""1"",""2077""
","
","
","""event"",""trial"",""time""
""fullscreenenter"",""1"",""2077""
","
",,6634,run_exp/static/audio/clip_11_q1_ask.m4a,,,,,,,0,,,,,,,,,,,,,,,,,,
quiz_q_1_fb_incorrect,59,305523,0.0-23.0-0.0,"""event"",""trial"",""time""
""fullscreenenter"",""1"",""2077""
","
","
","""event"",""trial"",""time""
""fullscreenenter"",""1"",""2077""
","
",,null,run_exp/static/audio/clip_13_q1_incorrect.m4a,null,<p>That’s incorrect. You win extra money by collecting more gems.</p>,,,,,,,,,,,,,,,,,,,,,,,
quiz_q_2_ask,60,306536,0.0-23.0-1.0,"""event"",""trial"",""time""
""fullscreenenter"",""1"",""2077""
","
","
","""event"",""trial"",""time""
""fullscreenenter"",""1"",""2077""
","
",,1011.9,run_exp/static/audio/clip_14_q2_ask.m4a,,,,,,,1,,,,,,,,,,,,,,,,,,
quiz_q_2_fb_correct,61,310515,0.0-24.0-0.0,"""event"",""trial"",""time""
""fullscreenenter"",""1"",""2077""
","
","
","""event"",""trial"",""time""
""fullscreenenter"",""1"",""2077""
","
",,null,run_exp/static/audio/clip_15_q2_correct.m4a,null,<p>That’s correct. The experiment is 20 minutes no matter what.</p>,,,,,,,,,,,,,,,,,,,,,,,
quiz_q_3_ask,62,311540,0.0-24.0-1.0,"""event"",""trial"",""time""
""fullscreenenter"",""1"",""2077""
","
","
","""event"",""trial"",""time""
""fullscreenenter"",""1"",""2077""
","
",,1024.2,run_exp/static/audio/clip_17_q3_ask.m4a,,,,,,,1,,,,,,,,,,,,,,,,,,
quiz_q_3_fb_correct,63,315508,0.0-25.0-0.0,"""event"",""trial"",""time""
""fullscreenenter"",""1"",""2077""
","
","
","""event"",""trial"",""time""
""fullscreenenter"",""1"",""2077""
","
",,null,run_exp/static/audio/clip_18_q3_correct.m4a,null,<p> That’s correct. You press the letter L to travel to a new planet.</p>,,,,,,,,,,,,,,,,,,,,,,,
quiz_q_4_ask,64,318793,0.0-25.0-1.0,"""event"",""trial"",""time""
""fullscreenenter"",""1"",""2077""
","
","
","""event"",""trial"",""time""
""fullscreenenter"",""1"",""2077""
","
",,3285,run_exp/static/audio/clip_20_q4_ask.m4a,,,,,,,0,,,,,,,,,,,,,,,,,,
quiz_q_4_fb_correct,65,324099,0.0-26.0-0.0,"""event"",""trial"",""time""
""fullscreenenter"",""1"",""2077""
","
","
","""event"",""trial"",""time""
""fullscreenenter"",""1"",""2077""
","
",,null,run_exp/static/audio/clip_21_q4_correct.m4a,null,<p> That’s correct. The more you dig on a planet the fewer gems you’ll get with each dig. </p>,,,,,,,,,,,,,,,,,,,,,,,
quiz_q_5_ask,66,325655,0.0-26.0-1.0,"""event"",""trial"",""time""
""fullscreenenter"",""1"",""2077""
","
","
","""event"",""trial"",""time""
""fullscreenenter"",""1"",""2077""
","
",,1554.3,run_exp/static/audio/clip_23_q5_ask.m4a,,,,,,,1,,,,,,,,,,,,,,,,,,
quiz_q_5_fb_correct,67,330648,0.0-27.0-0.0,"""event"",""trial"",""time""
""fullscreenenter"",""1"",""2077""
","
","
","""event"",""trial"",""time""
""fullscreenenter"",""1"",""2077""
","
",,null,run_exp/static/audio/clip_24_q5_correct.m4a,null,<p> That’s correct. The alien tells you nothing about how much treasure is on the planet.</p>,,,,,,,,,,,,,,,,,,,,,,,
quiz_correct,68,334107,0.0-28.0-0.0,"""event"",""trial"",""time""
""fullscreenenter"",""1"",""2077""
","
","
","""event"",""trial"",""time""
""fullscreenenter"",""1"",""2077""
","
",,null,run_exp/static/audio/clip_26_correct_quiz.m4a,null,,,,,,,,,,,,,,,,,,,,,,,,
quiz_correct_continue,69,334906,0.0-28.0-1.0,"""event"",""trial"",""time""
""fullscreenenter"",""1"",""2077""
","
","
","""event"",""trial"",""time""
""fullscreenenter"",""1"",""2077""
","
",,797.6,<p>Good job! You're now ready to move on to the real game!</p>,,,,,,,0,,,,,,,,,,,,,,,,,,
audio-keyboard-response,70,345021,0.0-28.0-2.0,"""event"",""trial"",""time""
""fullscreenenter"",""1"",""2077""
","
","
","""event"",""trial"",""time""
""fullscreenenter"",""1"",""2077""
","
",,null,run_exp/static/audio/clip_28_real_game.m4a,null,,,,,,,,,,,,,,,,,,,,,,,,
instruc_begin_exp_contine,71,346385,0.0-28.0-3.0,"""event"",""trial"",""time""
""fullscreenenter"",""1"",""2077""
","
","
","""event"",""trial"",""time""
""fullscreenenter"",""1"",""2077""
","
",,1363.4,"<p>Now that you know how  to dig for space treasure and travel to new planets,you can start exploring! </p><p>Do you want to go over the instructions again or get started with the real game?</p>",,,,,,,1,,,,,,1,,,,,,,,,,,,
alien_welcome,72,351407,0.0-29.0-0.0,"""event"",""trial"",""time""
""fullscreenenter"",""1"",""2077""
","
","
","""event"",""trial"",""time""
""fullscreenenter"",""1"",""2077""
","
",,null,run_exp/static/images/task_images/aliens/old_aliens/planet/alien_planet-21.jpg,null,,,,,,,,,,,,,21,"21,38,58,54,61,24,9,63,42,68,27,43,51,4,3,10,5,13,33,57,22,31,56,18,40,8,14",,,,,,,,,,
land,73,351912,0.0-29.0-1.0,"""event"",""trial"",""time""
""fullscreenenter"",""1"",""2077""
","
","
","""event"",""trial"",""time""
""fullscreenenter"",""1"",""2077""
","
",,null,run_exp/static/images/task_images/land.jpg,null,,,,,,,109,,,1,,,,,,,,,,,,,,
dig,74,353921,0.0-29.0-2.0,"""event"",""trial"",""time""
""fullscreenenter"",""1"",""2077""
","
","
","""event"",""trial"",""time""
""fullscreenenter"",""1"",""2077""
","
",,,,,,,,,,,,"[{""stimulus"":""run_exp/static/images/task_images/dig.jpg"",""time"":0.19999998807907104},{""stimulus"":""run_exp/static/images/task_images/land.jpg"",""time"":674.7999999523163},{""stimulus"":""run_exp/static/images/task_images/dig.jpg"",""time"":1343.7999999523163}]",[],1,,,,,,,,,,,,,,
harvest,75,354929,0.0-29.0-3.0,"""event"",""trial"",""time""
""fullscreenenter"",""1"",""2077""
","
","
","""event"",""trial"",""time""
""fullscreenenter"",""1"",""2077""
","
",,null,run_exp/static/images/task_images/gems/109.jpg,null,,,,,,,22,,,1,,,,,109,0.201743429,0.201834862,,,,,,,
decision,76,355528,0.0-29.0-4.0,"""event"",""trial"",""time""
""fullscreenenter"",""1"",""2077""
","
","
","""event"",""trial"",""time""
""fullscreenenter"",""1"",""2077""
","
",,597.2,run_exp/static/images/task_images/land.jpg,65,,,,,,,22,,,1,,,,,,,,9141,1,0,FALSE,,,
dig,77,357935,0.0-30.0-0.0,"""event"",""trial"",""time""
""fullscreenenter"",""1"",""2077""
","
","
","""event"",""trial"",""time""
""fullscreenenter"",""1"",""2077""
","
",,,,,,,,,,,,"[{""stimulus"":""run_exp/static/images/task_images/dig.jpg"",""time"":0.09999996423721313},{""stimulus"":""run_exp/static/images/task_images/land.jpg"",""time"":806.0999999642372},{""stimulus"":""run_exp/static/images/task_images/dig.jpg"",""time"":1609.3999999761581}]",[],1,,,,,,,,,,,,,,
harvest,78,358944,0.0-30.0-1.0,"""event"",""trial"",""time""
""fullscreenenter"",""1"",""2077""
","
","
","""event"",""trial"",""time""
""fullscreenenter"",""1"",""2077""
","
",,null,run_exp/static/images/task_images/gems/22.jpg,null,,,,,,,6,,,1,,,,,22,0.252194074,0.272727273,,,,,,,
decision,79,359096,0.0-30.0-2.0,"""event"",""trial"",""time""
""fullscreenenter"",""1"",""2077""
","
","
","""event"",""trial"",""time""
""fullscreenenter"",""1"",""2077""
","
",,151.4,run_exp/static/images/task_images/land.jpg,65,,,,,,,6,,,1,,,,,,,,12709,1,1,FALSE,,,
dig,80,361956,0.0-31.0-0.0,"""event"",""trial"",""time""
""fullscreenenter"",""1"",""2077""
","
","
","""event"",""trial"",""time""
""fullscreenenter"",""1"",""2077""
","
",,,,,,,,,,,,"[{""stimulus"":""run_exp/static/images/task_images/dig.jpg"",""time"":0},{""stimulus"":""run_exp/static/images/task_images/land.jpg"",""time"":952.8999999761581},{""stimulus"":""run_exp/static/images/task_images/dig.jpg"",""time"":1906.699999988079}]",[],1,,,,,,,,,,,,,,
harvest,81,362963,0.0-31.0-1.0,"""event"",""trial"",""time""
""fullscreenenter"",""1"",""2077""
","
","
","""event"",""trial"",""time""
""fullscreenenter"",""1"",""2077""
","
",,null,run_exp/static/images/task_images/gems/6.jpg,null,,,,,,,1,,,1,,,,,6,0.179784517,0.166666667,,,,,,,
decision,82,363104,0.0-31.0-2.0,"""event"",""trial"",""time""
""fullscreenenter"",""1"",""2077""
","
","
","""event"",""trial"",""time""
""fullscreenenter"",""1"",""2077""
","
",,140,run_exp/static/images/task_images/land.jpg,65,,,,,,,1,,,1,,,,,,,,16717,1,2,FALSE,,,
dig,83,365972,0.0-32.0-0.0,"""event"",""trial"",""time""
""fullscreenenter"",""1"",""2077""
","
","
","""event"",""trial"",""time""
""fullscreenenter"",""1"",""2077""
","
",,,,,,,,,,,,"[{""stimulus"":""run_exp/static/images/task_images/dig.jpg"",""time"":0.09999996423721313},{""stimulus"":""run_exp/static/images/task_images/land.jpg"",""time"":962.5999999642372},{""stimulus"":""run_exp/static/images/task_images/dig.jpg"",""time"":1914.5999999642372}]",[],1,,,,,,,,,,,,,,
harvest,84,366979,0.0-32.0-1.0,"""event"",""trial"",""time""
""fullscreenenter"",""1"",""2077""
","
","
","""event"",""trial"",""time""
""fullscreenenter"",""1"",""2077""
","
",,null,run_exp/static/images/task_images/gems/1.jpg,null,,,,,,,0,,,1,,,,,1,0.144892511,0,,,,,,,
decision,85,367000,0.0-32.0-2.0,"""event"",""trial"",""time""
""fullscreenenter"",""1"",""2077""
","
","
","""event"",""trial"",""time""
""fullscreenenter"",""1"",""2077""
","
",,19.90000004,run_exp/static/images/task_images/land.jpg,65,,,,,,,0,,,1,,,,,,,,20613,1,3,FALSE,,,
dig,86,369983,0.0-33.0-0.0,"""event"",""trial"",""time""
""fullscreenenter"",""1"",""2077""
","
","
","""event"",""trial"",""time""
""fullscreenenter"",""1"",""2077""
","
",,,,,,,,,,,,"[{""stimulus"":""run_exp/static/images/task_images/dig.jpg"",""time"":0.19999998807907104},{""stimulus"":""run_exp/static/images/task_images/land.jpg"",""time"":1002.5999999642372},{""stimulus"":""run_exp/static/images/task_images/dig.jpg"",""time"":1990.5999999642372}]",[],1,,,,,,,,,,,,,,
harvest,87,370992,0.0-33.0-1.0,"""event"",""trial"",""time""
""fullscreenenter"",""1"",""2077""
","
","
","""event"",""trial"",""time""
""fullscreenenter"",""1"",""2077""
","
",,null,run_exp/static/images/task_images/gems/0.jpg,null,,,,,,,0,,,1,,,,,0,0.1935637,NaN,,,,,,,
decision,88,371632,0.0-33.0-2.0,"""event"",""trial"",""time""
""fullscreenenter"",""1"",""2077""
","
","
","""event"",""trial"",""time""
""fullscreenenter"",""1"",""2077""
","
",,639.3,run_exp/static/images/task_images/land.jpg,76,,,,,,,0,,,1,,,,,,,,25246,1,4,TRUE,,,
travel,89,380999,0.0-34.0-0.0,"""event"",""trial"",""time""
""fullscreenenter"",""1"",""2077""
","
","
","""event"",""trial"",""time""
""fullscreenenter"",""1"",""2077""
","
",,,,,,,,,,,,"[{""stimulus"":""run_exp/static/images/task_images/rocket-01.jpg"",""time"":0.09999996423721313},{""stimulus"":""run_exp/static/images/task_images/rocket-02.jpg"",""time"":1041.300000011921},{""stimulus"":""run_exp/static/images/task_images/rocket-03.jpg"",""time"":2086.199999988079},{""stimulus"":""run_exp/static/images/task_images/rocket-04.jpg"",""time"":3128.5},{""stimulus"":""run_exp/static/images/task_images/rocket-05.jpg"",""time"":4170.099999964237},{""stimulus"":""run_exp/static/images/task_images/rocket-06.jpg"",""time"":5206.899999976158},{""stimulus"":""run_exp/static/images/task_images/rocket-07.jpg"",""time"":6250.099999964237},{""stimulus"":""run_exp/static/images/task_images/rocket-08.jpg"",""time"":7287.599999964237},{""stimulus"":""run_exp/static/images/task_images/rocket-09.jpg"",""time"":8326.099999964237}]",[],1,,,,,,,,,,,,,,
alien_welcome,90,386008,0.0-34.0-1.0,"""event"",""trial"",""time""
""fullscreenenter"",""1"",""2077""
","
","
","""event"",""trial"",""time""
""fullscreenenter"",""1"",""2077""
","
",,null,run_exp/static/images/task_images/aliens/old_aliens/planet/alien_planet-38.jpg,null,,,,,,,,,,,,,38,"21,38,58,54,61,24,9,63,42,68,27,43,51,4,3,10,5,13,33,57,22,31,56,18,40,8,14",,,,,,,,,,
land,91,386512,0.0-34.0-2.0,"""event"",""trial"",""time""
""fullscreenenter"",""1"",""2077""
","
","
","""event"",""trial"",""time""
""fullscreenenter"",""1"",""2077""
","
",,null,run_exp/static/images/task_images/land.jpg,null,,,,,,,104,,,2,,,,,,,,,,,,,,
dig,92,388524,0.0-34.0-3.0,"""event"",""trial"",""time""
""fullscreenenter"",""1"",""2077""
","
","
","""event"",""trial"",""time""
""fullscreenenter"",""1"",""2077""
","
",,,,,,,,,,,,"[{""stimulus"":""run_exp/static/images/task_images/dig.jpg"",""time"":0.19999998807907104},{""stimulus"":""run_exp/static/images/task_images/land.jpg"",""time"":674.5},{""stimulus"":""run_exp/static/images/task_images/dig.jpg"",""time"":1346.199999988079}]",[],2,,,,,,,,,,,,,,
harvest,93,389531,0.0-34.0-4.0,"""event"",""trial"",""time""
""fullscreenenter"",""1"",""2077""
","
","
","""event"",""trial"",""time""
""fullscreenenter"",""1"",""2077""
","
",,null,run_exp/static/images/task_images/gems/104.jpg,null,,,,,,,24,,,2,,,,,104,0.228988794,0.230769231,,,,,,,
decision,94,392541,0.0-34.0-5.0,"""event"",""trial"",""time""
""fullscreenenter"",""1"",""2077""
","
","
","""event"",""trial"",""time""
""fullscreenenter"",""1"",""2077""
","
",,null,run_exp/static/images/task_images/land.jpg,null,,,,,,,24,,,2,,,,,,,,46154,1,0,FALSE,,,
time_out,95,394544,0.0-35.0-0.0,"""event"",""trial"",""time""
""fullscreenenter"",""1"",""2077""
","
","
","""event"",""trial"",""time""
""fullscreenenter"",""1"",""2077""
","
",,null,run_exp/static/images/task_images/time_out.jpg,null,,,,,,,24,,,,,,,,,,,,,,,,,
decision,96,397557,0.0-35.0-1.0,"""event"",""trial"",""time""
""fullscreenenter"",""1"",""2077""
","
","
","""event"",""trial"",""time""
""fullscreenenter"",""1"",""2077""
","
",,null,run_exp/static/images/task_images/land.jpg,null,,,,,,,24,,,2,,,,,,,,51170,1,0,FALSE,,,
time_out,97,399560,0.0-36.0-0.0,"""event"",""trial"",""time""
""fullscreenenter"",""1"",""2077""
","
","
","""event"",""trial"",""time""
""fullscreenenter"",""1"",""2077""
","
",,null,run_exp/static/images/task_images/time_out.jpg,null,,,,,,,24,,,,,,,,,,,,,,,,,
decision,98,399689,0.0-36.0-1.0,"""event"",""trial"",""time""
""fullscreenenter"",""1"",""2077""
","
","
","""event"",""trial"",""time""
""fullscreenenter"",""1"",""2077""
","
",,128.6,run_exp/static/images/task_images/land.jpg,65,,,,,,,24,,,2,,,,,,,,53302,1,0,FALSE,,,
dig,99,402568,0.0-37.0-0.0,"""event"",""trial"",""time""
""fullscreenenter"",""1"",""2077""
","
","
","""event"",""trial"",""time""
""fullscreenenter"",""1"",""2077""
","
",,,,,,,,,,,,"[{""stimulus"":""run_exp/static/images/task_images/dig.jpg"",""time"":0.09999996423721313},{""stimulus"":""run_exp/static/images/task_images/land.jpg"",""time"":969.7999999523163},{""stimulus"":""run_exp/static/images/task_images/dig.jpg"",""time"":1921.7999999523163}]",[],2,,,,,,,,,,,,,,
harvest,100,403569,0.0-37.0-1.0,"""event"",""trial"",""time""
""fullscreenenter"",""1"",""2077""
","
","
","""event"",""trial"",""time""
""fullscreenenter"",""1"",""2077""
","
",,null,run_exp/static/images/task_images/gems/24.jpg,null,,,,,,,5,,,2,,,,,24,0.188132793,0.208333333,,,,,,,
decision,101,403681,0.0-37.0-2.0,"""event"",""trial"",""time""
""fullscreenenter"",""1"",""2077""
","
","
","""event"",""trial"",""time""
""fullscreenenter"",""1"",""2077""
","
",,111.4,run_exp/static/images/task_images/land.jpg,65,,,,,,,5,,,2,,,,,,,,57294,1,1,FALSE,,,
dig,102,406576,0.0-38.0-0.0,"""event"",""trial"",""time""
""fullscreenenter"",""1"",""2077""
","
","
","""event"",""trial"",""time""
""fullscreenenter"",""1"",""2077""
","
",,,,,,,,,,,,"[{""stimulus"":""run_exp/static/images/task_images/dig.jpg"",""time"":0.19999998807907104},{""stimulus"":""run_exp/static/images/task_images/land.jpg"",""time"":966.5},{""stimulus"":""run_exp/static/images/task_images/dig.jpg"",""time"":1926.800000011921}]",[],2,,,,,,,,,,,,,,
harvest,103,407585,0.0-38.0-1.0,"""event"",""trial"",""time""
""fullscreenenter"",""1"",""2077""
","
","
","""event"",""trial"",""time""
""fullscreenenter"",""1"",""2077""
","
",,null,run_exp/static/images/task_images/gems/5.jpg,null,,,,,,,1,,,2,,,,,5,0.170616546,0.2,,,,,,,
decision,104,407609,0.0-38.0-2.0,"""event"",""trial"",""time""
""fullscreenenter"",""1"",""2077""
","
","
","""event"",""trial"",""time""
""fullscreenenter"",""1"",""2077""
","
",,23.59999996,run_exp/static/images/task_images/land.jpg,65,,,,,,,1,,,2,,,,,,,,61222,1,2,FALSE,,,
dig,105,410597,0.0-39.0-0.0,"""event"",""trial"",""time""
""fullscreenenter"",""1"",""2077""
","
","
","""event"",""trial"",""time""
""fullscreenenter"",""1"",""2077""
","
",,,,,,,,,,,,"[{""stimulus"":""run_exp/static/images/task_images/dig.jpg"",""time"":0.10000002384185791},{""stimulus"":""run_exp/static/images/task_images/land.jpg"",""time"":999.6999999880791},{""stimulus"":""run_exp/static/images/task_images/dig.jpg"",""time"":1992.6000000238419}]",[],2,,,,,,,,,,,,,,
harvest,106,411603,0.0-39.0-1.0,"""event"",""trial"",""time""
""fullscreenenter"",""1"",""2077""
","
","
","""event"",""trial"",""time""
""fullscreenenter"",""1"",""2077""
","
",,null,run_exp/static/images/task_images/gems/1.jpg,null,,,,,,,0,,,2,,,,,1,0.204373729,0,,,,,,,
decision,107,411930,0.0-39.0-2.0,"""event"",""trial"",""time""
""fullscreenenter"",""1"",""2077""
","
","
","""event"",""trial"",""time""
""fullscreenenter"",""1"",""2077""
","
",,326.2,run_exp/static/images/task_images/land.jpg,76,,,,,,,0,,,2,,,,,,,,65543,1,3,TRUE,,,
travel,108,421601,0.0-40.0-0.0,"""event"",""trial"",""time""
""fullscreenenter"",""1"",""2077""
","
","
","""event"",""trial"",""time""
""fullscreenenter"",""1"",""2077""
","
",,,,,,,,,,,,"[{""stimulus"":""run_exp/static/images/task_images/rocket-01.jpg"",""time"":0.09999996423721313},{""stimulus"":""run_exp/static/images/task_images/rocket-02.jpg"",""time"":1078.699999988079},{""stimulus"":""run_exp/static/images/task_images/rocket-03.jpg"",""time"":2152.399999976158},{""stimulus"":""run_exp/static/images/task_images/rocket-04.jpg"",""time"":3230.399999976158},{""stimulus"":""run_exp/static/images/task_images/rocket-05.jpg"",""time"":4304.699999988079},{""stimulus"":""run_exp/static/images/task_images/rocket-06.jpg"",""time"":5374.299999952316},{""stimulus"":""run_exp/static/images/task_images/rocket-07.jpg"",""time"":6450.299999952316},{""stimulus"":""run_exp/static/images/task_images/rocket-08.jpg"",""time"":7530.299999952316},{""stimulus"":""run_exp/static/images/task_images/rocket-09.jpg"",""time"":8600.399999976158}]",[],2,,,,,,,,,,,,,,
alien_welcome,109,426610,0.0-40.0-1.0,"""event"",""trial"",""time""
""fullscreenenter"",""1"",""2077""
","
","
","""event"",""trial"",""time""
""fullscreenenter"",""1"",""2077""
","
",,null,run_exp/static/images/task_images/aliens/old_aliens/planet/alien_planet-58.jpg,null,,,,,,,,,,,,,58,"21,38,58,54,61,24,9,63,42,68,27,43,51,4,3,10,5,13,33,57,22,31,56,18,40,8,14",,,,,,,,,,
land,110,427118,0.0-40.0-2.0,"""event"",""trial"",""time""
""fullscreenenter"",""1"",""2077""
","
","
","""event"",""trial"",""time""
""fullscreenenter"",""1"",""2077""
","
",,null,run_exp/static/images/task_images/land.jpg,null,,,,,,,100,,,3,,,,,,,,,,,,,,
dig,111,429123,0.0-40.0-3.0,"""event"",""trial"",""time""
""fullscreenenter"",""1"",""2077""
","
","
","""event"",""trial"",""time""
""fullscreenenter"",""1"",""2077""
","
",,,,,,,,,,,,"[{""stimulus"":""run_exp/static/images/task_images/dig.jpg"",""time"":0.10000002384185791},{""stimulus"":""run_exp/static/images/task_images/land.jpg"",""time"":679.5},{""stimulus"":""run_exp/static/images/task_images/dig.jpg"",""time"":1338.300000011921}]",[],3,,,,,,,,,,,,,,
harvest,112,430131,0.0-40.0-4.0,"""event"",""trial"",""time""
""fullscreenenter"",""1"",""2077""
","
","
","""event"",""trial"",""time""
""fullscreenenter"",""1"",""2077""
","
",,null,run_exp/static/images/task_images/gems/100.jpg,null,,,,,,,39,,,3,,,,,100,0.386421996,0.39,,,,,,,
decision,113,431186,0.0-40.0-5.0,"""event"",""trial"",""time""
""fullscreenenter"",""1"",""2077""
","
","
","""event"",""trial"",""time""
""fullscreenenter"",""1"",""2077""
","
",,1054.6,run_exp/static/images/task_images/land.jpg,65,,,,,,,39,,,3,,,,,,,,84799,1,0,FALSE,,,
dig,114,433140,0.0-41.0-0.0,"""event"",""trial"",""time""
""fullscreenenter"",""1"",""2077""
","
","
","""event"",""trial"",""time""
""fullscreenenter"",""1"",""2077""
","
",,,,,,,,,,,,"[{""stimulus"":""run_exp/static/images/task_images/dig.jpg"",""time"":0.09999996423721313},{""stimulus"":""run_exp/static/images/task_images/land.jpg"",""time"":654.1999999880791},{""stimulus"":""run_exp/static/images/task_images/dig.jpg"",""time"":1302.7999999523163}]",[],3,,,,,,,,,,,,,,
harvest,115,434148,0.0-41.0-1.0,"""event"",""trial"",""time""
""fullscreenenter"",""1"",""2077""
","
","
","""event"",""trial"",""time""
""fullscreenenter"",""1"",""2077""
","
",,null,run_exp/static/images/task_images/gems/39.jpg,null,,,,,,,21,,,3,,,,,39,0.531210477,0.538461538,,,,,,,
decision,116,434242,0.0-41.0-2.0,"""event"",""trial"",""time""
""fullscreenenter"",""1"",""2077""
","
","
","""event"",""trial"",""time""
""fullscreenenter"",""1"",""2077""
","
",,93.59999996,run_exp/static/images/task_images/land.jpg,65,,,,,,,21,,,3,,,,,,,,87855,1,1,FALSE,,,
dig,117,437157,0.0-42.0-0.0,"""event"",""trial"",""time""
""fullscreenenter"",""1"",""2077""
","
","
","""event"",""trial"",""time""
""fullscreenenter"",""1"",""2077""
","
",,,,,,,,,,,,"[{""stimulus"":""run_exp/static/images/task_images/dig.jpg"",""time"":0.09999996423721313},{""stimulus"":""run_exp/static/images/task_images/land.jpg"",""time"":978.7999999523163},{""stimulus"":""run_exp/static/images/task_images/dig.jpg"",""time"":1946.7999999523163}]",[],3,,,,,,,,,,,,,,
harvest,118,438161,0.0-42.0-1.0,"""event"",""trial"",""time""
""fullscreenenter"",""1"",""2077""
","
","
","""event"",""trial"",""time""
""fullscreenenter"",""1"",""2077""
","
",,null,run_exp/static/images/task_images/gems/21.jpg,null,,,,,,,9,,,3,,,,,21,0.442301905,0.428571429,,,,,,,
decision,119,438290,0.0-42.0-2.0,"""event"",""trial"",""time""
""fullscreenenter"",""1"",""2077""
","
","
","""event"",""trial"",""time""
""fullscreenenter"",""1"",""2077""
","
",,128.4,run_exp/static/images/task_images/land.jpg,65,,,,,,,9,,,3,,,,,,,,91903,1,2,FALSE,,,
dig,120,441172,0.0-43.0-0.0,"""event"",""trial"",""time""
""fullscreenenter"",""1"",""2077""
","
","
","""event"",""trial"",""time""
""fullscreenenter"",""1"",""2077""
","
",,,,,,,,,,,,"[{""stimulus"":""run_exp/static/images/task_images/dig.jpg"",""time"":0.10000002384185791},{""stimulus"":""run_exp/static/images/task_images/land.jpg"",""time"":970},{""stimulus"":""run_exp/static/images/task_images/dig.jpg"",""time"":1920.300000011921}]",[],3,,,,,,,,,,,,,,
harvest,121,442179,0.0-43.0-1.0,"""event"",""trial"",""time""
""fullscreenenter"",""1"",""2077""
","
","
","""event"",""trial"",""time""
""fullscreenenter"",""1"",""2077""
","
",,null,run_exp/static/images/task_images/gems/9.jpg,null,,,,,,,5,,,3,,,,,9,0.583141232,0.555555556,,,,,,,
decision,122,442554,0.0-43.0-2.0,"""event"",""trial"",""time""
""fullscreenenter"",""1"",""2077""
","
","
","""event"",""trial"",""time""
""fullscreenenter"",""1"",""2077""
","
",,374.7,run_exp/static/images/task_images/land.jpg,65,,,,,,,5,,,3,,,,,,,,96167,1,3,FALSE,,,
dig,123,445186,0.0-44.0-0.0,"""event"",""trial"",""time""
""fullscreenenter"",""1"",""2077""
","
","
","""event"",""trial"",""time""
""fullscreenenter"",""1"",""2077""
","
",,,,,,,,,,,,"[{""stimulus"":""run_exp/static/images/task_images/dig.jpg"",""time"":0.19999998807907104},{""stimulus"":""run_exp/static/images/task_images/land.jpg"",""time"":882.3999999761581},{""stimulus"":""run_exp/static/images/task_images/dig.jpg"",""time"":1762.3999999761581}]",[],3,,,,,,,,,,,,,,
harvest,124,446197,0.0-44.0-1.0,"""event"",""trial"",""time""
""fullscreenenter"",""1"",""2077""
","
","
","""event"",""trial"",""time""
""fullscreenenter"",""1"",""2077""
","
",,null,run_exp/static/images/task_images/gems/5.jpg,null,,,,,,,3,,,3,,,,,5,0.579752471,0.6,,,,,,,
decision,125,446763,0.0-44.0-2.0,"""event"",""trial"",""time""
""fullscreenenter"",""1"",""2077""
","
","
","""event"",""trial"",""time""
""fullscreenenter"",""1"",""2077""
","
",,565.2,run_exp/static/images/task_images/land.jpg,65,,,,,,,3,,,3,,,,,,,,100376,1,4,FALSE,,,
dig,126,449206,0.0-45.0-0.0,"""event"",""trial"",""time""
""fullscreenenter"",""1"",""2077""
","
","
","""event"",""trial"",""time""
""fullscreenenter"",""1"",""2077""
","
",,,,,,,,,,,,"[{""stimulus"":""run_exp/static/images/task_images/dig.jpg"",""time"":0.10000002384185791},{""stimulus"":""run_exp/static/images/task_images/land.jpg"",""time"":816.5},{""stimulus"":""run_exp/static/images/task_images/dig.jpg"",""time"":1633.300000011921}]",[],3,,,,,,,,,,,,,,
harvest,127,450209,0.0-45.0-1.0,"""event"",""trial"",""time""
""fullscreenenter"",""1"",""2077""
","
","
","""event"",""trial"",""time""
""fullscreenenter"",""1"",""2077""
","
",,null,run_exp/static/images/task_images/gems/3.jpg,null,,,,,,,2,,,3,,,,,3,0.561890999,0.666666667,,,,,,,
decision,128,451090,0.0-45.0-2.0,"""event"",""trial"",""time""
""fullscreenenter"",""1"",""2077""
","
","
","""event"",""trial"",""time""
""fullscreenenter"",""1"",""2077""
","
",,880.7,run_exp/static/images/task_images/land.jpg,76,,,,,,,2,,,3,,,,,,,,104704,1,5,TRUE,,,
travel,129,460223,0.0-46.0-0.0,"""event"",""trial"",""time""
""fullscreenenter"",""1"",""2077""
","
","
","""event"",""trial"",""time""
""fullscreenenter"",""1"",""2077""
","
",,,,,,,,,,,,"[{""stimulus"":""run_exp/static/images/task_images/rocket-01.jpg"",""time"":0.10000002384185791},{""stimulus"":""run_exp/static/images/task_images/rocket-02.jpg"",""time"":1021.3000000119209},{""stimulus"":""run_exp/static/images/task_images/rocket-03.jpg"",""time"":2031.9000000357628},{""stimulus"":""run_exp/static/images/task_images/rocket-04.jpg"",""time"":3050.199999988079},{""stimulus"":""run_exp/static/images/task_images/rocket-05.jpg"",""time"":4057},{""stimulus"":""run_exp/static/images/task_images/rocket-06.jpg"",""time"":5070.199999988079},{""stimulus"":""run_exp/static/images/task_images/rocket-07.jpg"",""time"":6090.300000011921},{""stimulus"":""run_exp/static/images/task_images/rocket-08.jpg"",""time"":7098.199999988079},{""stimulus"":""run_exp/static/images/task_images/rocket-09.jpg"",""time"":8114.199999988079}]",[],3,,,,,,,,,,,,,,
alien_welcome,130,465231,0.0-46.0-1.0,"""event"",""trial"",""time""
""fullscreenenter"",""1"",""2077""
","
","
","""event"",""trial"",""time""
""fullscreenenter"",""1"",""2077""
","
",,null,run_exp/static/images/task_images/aliens/old_aliens/planet/alien_planet-54.jpg,null,,,,,,,,,,,,,54,"21,38,58,54,61,24,9,63,42,68,27,43,51,4,3,10,5,13,33,57,22,31,56,18,40,8,14",,,,,,,,,,
land,131,465739,0.0-46.0-2.0,"""event"",""trial"",""time""
""fullscreenenter"",""1"",""2077""
","
","
","""event"",""trial"",""time""
""fullscreenenter"",""1"",""2077""
","
",,null,run_exp/static/images/task_images/land.jpg,null,,,,,,,105,,,4,,,,,,,,,,,,,,
dig,132,467747,0.0-46.0-3.0,"""event"",""trial"",""time""
""fullscreenenter"",""1"",""2077""
","
","
","""event"",""trial"",""time""
""fullscreenenter"",""1"",""2077""
","
",,,,,,,,,,,,"[{""stimulus"":""run_exp/static/images/task_images/dig.jpg"",""time"":0.10000002384185791},{""stimulus"":""run_exp/static/images/task_images/land.jpg"",""time"":675.5},{""stimulus"":""run_exp/static/images/task_images/dig.jpg"",""time"":1343.199999988079}]",[],4,,,,,,,,,,,,,,
harvest,133,468759,0.0-46.0-4.0,"""event"",""trial"",""time""
""fullscreenenter"",""1"",""2077""
","
","
","""event"",""trial"",""time""
""fullscreenenter"",""1"",""2077""
","
",,null,run_exp/static/images/task_images/gems/105.jpg,null,,,,,,,56,,,4,,,,,105,0.537988404,0.533333333,,,,,,,
decision,134,468835,0.0-46.0-5.0,"""event"",""trial"",""time""
""fullscreenenter"",""1"",""2077""
","
","
","""event"",""trial"",""time""
""fullscreenenter"",""1"",""2077""
","
",,75.39999998,run_exp/static/images/task_images/land.jpg,65,,,,,,,56,,,4,,,,,,,,122448,1,0,FALSE,,,
dig,135,471763,0.0-47.0-0.0,"""event"",""trial"",""time""
""fullscreenenter"",""1"",""2077""
","
","
","""event"",""trial"",""time""
""fullscreenenter"",""1"",""2077""
","
",,,,,,,,,,,,"[{""stimulus"":""run_exp/static/images/task_images/dig.jpg"",""time"":0},{""stimulus"":""run_exp/static/images/task_images/land.jpg"",""time"":982.5},{""stimulus"":""run_exp/static/images/task_images/dig.jpg"",""time"":1951.8999999761581}]",[],4,,,,,,,,,,,,,,
harvest,136,472771,0.0-47.0-1.0,"""event"",""trial"",""time""
""fullscreenenter"",""1"",""2077""
","
","
","""event"",""trial"",""time""
""fullscreenenter"",""1"",""2077""
","
",,null,run_exp/static/images/task_images/gems/56.jpg,null,,,,,,,27,,,4,,,,,56,0.483321141,0.482142857,,,,,,,
decision,137,473147,0.0-47.0-2.0,"""event"",""trial"",""time""
""fullscreenenter"",""1"",""2077""
","
","
","""event"",""trial"",""time""
""fullscreenenter"",""1"",""2077""
","
",,375.8,run_exp/static/images/task_images/land.jpg,65,,,,,,,27,,,4,,,,,,,,126760,1,1,FALSE,,,
dig,138,475783,0.0-48.0-0.0,"""event"",""trial"",""time""
""fullscreenenter"",""1"",""2077""
","
","
","""event"",""trial"",""time""
""fullscreenenter"",""1"",""2077""
","
",,,,,,,,,,,,"[{""stimulus"":""run_exp/static/images/task_images/dig.jpg"",""time"":0.09999996423721313},{""stimulus"":""run_exp/static/images/task_images/land.jpg"",""time"":878.2999999523163},{""stimulus"":""run_exp/static/images/task_images/dig.jpg"",""time"":1754.2999999523163}]",[],4,,,,,,,,,,,,,,
harvest,139,476789,0.0-48.0-1.0,"""event"",""trial"",""time""
""fullscreenenter"",""1"",""2077""
","
","
","""event"",""trial"",""time""
""fullscreenenter"",""1"",""2077""
","
",,null,run_exp/static/images/task_images/gems/27.jpg,null,,,,,,,14,,,4,,,,,27,0.527805257,0.518518519,,,,,,,
decision,140,476875,0.0-48.0-2.0,"""event"",""trial"",""time""
""fullscreenenter"",""1"",""2077""
","
","
","""event"",""trial"",""time""
""fullscreenenter"",""1"",""2077""
","
",,86,run_exp/static/images/task_images/land.jpg,65,,,,,,,14,,,4,,,,,,,,130488,1,2,FALSE,,,
dig,141,479795,0.0-49.0-0.0,"""event"",""trial"",""time""
""fullscreenenter"",""1"",""2077""
","
","
","""event"",""trial"",""time""
""fullscreenenter"",""1"",""2077""
","
",,,,,,,,,,,,"[{""stimulus"":""run_exp/static/images/task_images/dig.jpg"",""time"":0.20000004768371582},{""stimulus"":""run_exp/static/images/task_images/land.jpg"",""time"":978.5},{""stimulus"":""run_exp/static/images/task_images/dig.jpg"",""time"":1954.6000000238419}]",[],4,,,,,,,,,,,,,,
harvest,142,480806,0.0-49.0-1.0,"""event"",""trial"",""time""
""fullscreenenter"",""1"",""2077""
","
","
","""event"",""trial"",""time""
""fullscreenenter"",""1"",""2077""
","
",,null,run_exp/static/images/task_images/gems/14.jpg,null,,,,,,,7,,,4,,,,,14,0.470657741,0.5,,,,,,,
decision,143,480828,0.0-49.0-2.0,"""event"",""trial"",""time""
""fullscreenenter"",""1"",""2077""
","
","
","""event"",""trial"",""time""
""fullscreenenter"",""1"",""2077""
","
",,20.60000002,run_exp/static/images/task_images/land.jpg,65,,,,,,,7,,,4,,,,,,,,134441,1,3,FALSE,,,
dig,144,483815,0.0-50.0-0.0,"""event"",""trial"",""time""
""fullscreenenter"",""1"",""2077""
","
","
","""event"",""trial"",""time""
""fullscreenenter"",""1"",""2077""
","
",,,,,,,,,,,,"[{""stimulus"":""run_exp/static/images/task_images/dig.jpg"",""time"":0.10000002384185791},{""stimulus"":""run_exp/static/images/task_images/land.jpg"",""time"":1002.1999999880791},{""stimulus"":""run_exp/static/images/task_images/dig.jpg"",""time"":1994.300000011921}]",[],4,,,,,,,,,,,,,,
harvest,145,484819,0.0-50.0-1.0,"""event"",""trial"",""time""
""fullscreenenter"",""1"",""2077""
","
","
","""event"",""trial"",""time""
""fullscreenenter"",""1"",""2077""
","
",,null,run_exp/static/images/task_images/gems/7.jpg,null,,,,,,,3,,,4,,,,,7,0.455337328,0.428571429,,,,,,,
decision,146,486732,0.0-50.0-2.0,"""event"",""trial"",""time""
""fullscreenenter"",""1"",""2077""
","
","
","""event"",""trial"",""time""
""fullscreenenter"",""1"",""2077""
","
",,1911.9,run_exp/static/images/task_images/land.jpg,65,,,,,,,3,,,4,,,,,,,,140345,1,4,FALSE,,,
dig,147,487826,0.0-51.0-0.0,"""event"",""trial"",""time""
""fullscreenenter"",""1"",""2077""
","
","
","""event"",""trial"",""time""
""fullscreenenter"",""1"",""2077""
","
",,,,,,,,,,,,"[{""stimulus"":""run_exp/static/images/task_images/dig.jpg"",""time"":0.09999996423721313},{""stimulus"":""run_exp/static/images/task_images/land.jpg"",""time"":366.19999998807907},{""stimulus"":""run_exp/static/images/task_images/dig.jpg"",""time"":726.1999999880791}]",[],4,,,,,,,,,,,,,,
harvest,148,488839,0.0-51.0-1.0,"""event"",""trial"",""time""
""fullscreenenter"",""1"",""2077""
","
","
","""event"",""trial"",""time""
""fullscreenenter"",""1"",""2077""
","
",,null,run_exp/static/images/task_images/gems/3.jpg,null,,,,,,,1,,,4,,,,,3,0.480362481,0.333333333,,,,,,,
decision,149,488891,0.0-51.0-2.0,"""event"",""trial"",""time""
""fullscreenenter"",""1"",""2077""
","
","
","""event"",""trial"",""time""
""fullscreenenter"",""1"",""2077""
","
",,51.69999999,run_exp/static/images/task_images/land.jpg,65,,,,,,,1,,,4,,,,,,,,142505,1,5,FALSE,,,
dig,150,491844,0.0-52.0-0.0,"""event"",""trial"",""time""
""fullscreenenter"",""1"",""2077""
","
","
","""event"",""trial"",""time""
""fullscreenenter"",""1"",""2077""
","
",,,,,,,,,,,,"[{""stimulus"":""run_exp/static/images/task_images/dig.jpg"",""time"":0},{""stimulus"":""run_exp/static/images/task_images/land.jpg"",""time"":994.5},{""stimulus"":""run_exp/static/images/task_images/dig.jpg"",""time"":1966.300000011921}]",[],4,,,,,,,,,,,,,,
harvest,151,492851,0.0-52.0-1.0,"""event"",""trial"",""time""
""fullscreenenter"",""1"",""2077""
","
","
","""event"",""trial"",""time""
""fullscreenenter"",""1"",""2077""
","
",,null,run_exp/static/images/task_images/gems/1.jpg,null,,,,,,,1,,,4,,,,,1,0.519180223,1,,,,,,,
decision,152,494132,0.0-52.0-2.0,"""event"",""trial"",""time""
""fullscreenenter"",""1"",""2077""
","
","
","""event"",""trial"",""time""
""fullscreenenter"",""1"",""2077""
","
",,1280.4,run_exp/static/images/task_images/land.jpg,76,,,,,,,1,,,4,,,,,,,,147745,1,6,TRUE,,,
travel,153,502855,0.0-53.0-0.0,"""event"",""trial"",""time""
""fullscreenenter"",""1"",""2077""
","
","
","""event"",""trial"",""time""
""fullscreenenter"",""1"",""2077""
","
",,,,,,,,,,,,"[{""stimulus"":""run_exp/static/images/task_images/rocket-01.jpg"",""time"":0.09999996423721313},{""stimulus"":""run_exp/static/images/task_images/rocket-02.jpg"",""time"":976.8000000119209},{""stimulus"":""run_exp/static/images/task_images/rocket-03.jpg"",""time"":1943.800000011921},{""stimulus"":""run_exp/static/images/task_images/rocket-04.jpg"",""time"":2911.5},{""stimulus"":""run_exp/static/images/task_images/rocket-05.jpg"",""time"":3877},{""stimulus"":""run_exp/static/images/task_images/rocket-06.jpg"",""time"":4846.199999988079},{""stimulus"":""run_exp/static/images/task_images/rocket-07.jpg"",""time"":5814},{""stimulus"":""run_exp/static/images/task_images/rocket-08.jpg"",""time"":6786.099999964237},{""stimulus"":""run_exp/static/images/task_images/rocket-09.jpg"",""time"":7750.099999964237}]",[],4,,,,,,,,,,,,,,
alien_welcome,154,507864,0.0-53.0-1.0,"""event"",""trial"",""time""
""fullscreenenter"",""1"",""2077""
","
","
","""event"",""trial"",""time""
""fullscreenenter"",""1"",""2077""
","
",,null,run_exp/static/images/task_images/aliens/old_aliens/planet/alien_planet-61.jpg,null,,,,,,,,,,,,,61,"21,38,58,54,61,24,9,63,42,68,27,43,51,4,3,10,5,13,33,57,22,31,56,18,40,8,14",,,,,,,,,,
land,155,508375,0.0-53.0-2.0,"""event"",""trial"",""time""
""fullscreenenter"",""1"",""2077""
","
","
","""event"",""trial"",""time""
""fullscreenenter"",""1"",""2077""
","
",,null,run_exp/static/images/task_images/land.jpg,null,,,,,,,96,,,5,,,,,,,,,,,,,,
dig,156,510382,0.0-53.0-3.0,"""event"",""trial"",""time""
""fullscreenenter"",""1"",""2077""
","
","
","""event"",""trial"",""time""
""fullscreenenter"",""1"",""2077""
","
",,,,,,,,,,,,"[{""stimulus"":""run_exp/static/images/task_images/dig.jpg"",""time"":0.10000002384185791},{""stimulus"":""run_exp/static/images/task_images/land.jpg"",""time"":680.1999999880791},{""stimulus"":""run_exp/static/images/task_images/dig.jpg"",""time"":1341.1000000238419}]",[],5,,,,,,,,,,,,,,
harvest,157,511392,0.0-53.0-4.0,"""event"",""trial"",""time""
""fullscreenenter"",""1"",""2077""
","
","
","""event"",""trial"",""time""
""fullscreenenter"",""1"",""2077""
","
",,null,run_exp/static/images/task_images/gems/96.jpg,null,,,,,,,56,,,5,,,,,96,0.580477074,0.583333333,,,,,,,
decision,158,512196,0.0-53.0-5.0,"""event"",""trial"",""time""
""fullscreenenter"",""1"",""2077""
","
","
","""event"",""trial"",""time""
""fullscreenenter"",""1"",""2077""
","
",,803.5,run_exp/static/images/task_images/land.jpg,65,,,,,,,56,,,5,,,,,,,,165809,1,0,FALSE,,,
dig,159,514400,0.0-54.0-0.0,"""event"",""trial"",""time""
""fullscreenenter"",""1"",""2077""
","
","
","""event"",""trial"",""time""
""fullscreenenter"",""1"",""2077""
","
",,,,,,,,,,,,"[{""stimulus"":""run_exp/static/images/task_images/dig.jpg"",""time"":0.10000002384185791},{""stimulus"":""run_exp/static/images/task_images/land.jpg"",""time"":734.1999999880791},{""stimulus"":""run_exp/static/images/task_images/dig.jpg"",""time"":1470.3999999761581}]",[],5,,,,,,,,,,,,,,
harvest,160,515403,0.0-54.0-1.0,"""event"",""trial"",""time""
""fullscreenenter"",""1"",""2077""
","
","
","""event"",""trial"",""time""
""fullscreenenter"",""1"",""2077""
","
",,null,run_exp/static/images/task_images/gems/56.jpg,null,,,,,,,26,,,5,,,,,56,0.472992042,0.464285714,,,,,,,
decision,161,516004,0.0-54.0-2.0,"""event"",""trial"",""time""
""fullscreenenter"",""1"",""2077""
","
","
","""event"",""trial"",""time""
""fullscreenenter"",""1"",""2077""
","
",,600.4,run_exp/static/images/task_images/land.jpg,65,,,,,,,26,,,5,,,,,,,,169617,1,1,FALSE,,,
dig,162,518407,0.0-55.0-0.0,"""event"",""trial"",""time""
""fullscreenenter"",""1"",""2077""
","
","
","""event"",""trial"",""time""
""fullscreenenter"",""1"",""2077""
","
",,,,,,,,,,,,"[{""stimulus"":""run_exp/static/images/task_images/dig.jpg"",""time"":0.09999996423721313},{""stimulus"":""run_exp/static/images/task_images/land.jpg"",""time"":805.2999999523163},{""stimulus"":""run_exp/static/images/task_images/dig.jpg"",""time"":1610.2999999523163}]",[],5,,,,,,,,,,,,,,
harvest,163,519416,0.0-55.0-1.0,"""event"",""trial"",""time""
""fullscreenenter"",""1"",""2077""
","
","
","""event"",""trial"",""time""
""fullscreenenter"",""1"",""2077""
","
",,null,run_exp/static/images/task_images/gems/26.jpg,null,,,,,,,13,,,5,,,,,26,0.48215717,0.5,,,,,,,
decision,164,520861,0.0-55.0-2.0,"""event"",""trial"",""time""
""fullscreenenter"",""1"",""2077""
","
","
","""event"",""trial"",""time""
""fullscreenenter"",""1"",""2077""
","
",,1443.6,run_exp/static/images/task_images/land.jpg,65,,,,,,,13,,,5,,,,,,,,174474,1,2,FALSE,,,
dig,165,522424,0.0-56.0-0.0,"""event"",""trial"",""time""
""fullscreenenter"",""1"",""2077""
","
","
","""event"",""trial"",""time""
""fullscreenenter"",""1"",""2077""
","
",,,,,,,,,,,,"[{""stimulus"":""run_exp/static/images/task_images/dig.jpg"",""time"":0.10000002384185791},{""stimulus"":""run_exp/static/images/task_images/land.jpg"",""time"":530.1000000238419},{""stimulus"":""run_exp/static/images/task_images/dig.jpg"",""time"":1039}]",[],5,,,,,,,,,,,,,,
harvest,166,523431,0.0-56.0-1.0,"""event"",""trial"",""time""
""fullscreenenter"",""1"",""2077""
","
","
","""event"",""trial"",""time""
""fullscreenenter"",""1"",""2077""
","
",,null,run_exp/static/images/task_images/gems/13.jpg,null,,,,,,,7,,,5,,,,,13,0.500357129,0.538461538,,,,,,,
decision,167,523469,0.0-56.0-2.0,"""event"",""trial"",""time""
""fullscreenenter"",""1"",""2077""
","
","
","""event"",""trial"",""time""
""fullscreenenter"",""1"",""2077""
","
",,36.69999999,run_exp/static/images/task_images/land.jpg,65,,,,,,,7,,,5,,,,,,,,177082,1,3,FALSE,,,
dig,168,526436,0.0-57.0-0.0,"""event"",""trial"",""time""
""fullscreenenter"",""1"",""2077""
","
","
","""event"",""trial"",""time""
""fullscreenenter"",""1"",""2077""
","
",,,,,,,,,,,,"[{""stimulus"":""run_exp/static/images/task_images/dig.jpg"",""time"":0.10000002384185791},{""stimulus"":""run_exp/static/images/task_images/land.jpg"",""time"":989.1000000238419},{""stimulus"":""run_exp/static/images/task_images/dig.jpg"",""time"":1981.7000000476837}]",[],5,,,,,,,,,,,,,,
harvest,169,527449,0.0-57.0-1.0,"""event"",""trial"",""time""
""fullscreenenter"",""1"",""2077""
","
","
","""event"",""trial"",""time""
""fullscreenenter"",""1"",""2077""
","
",,null,run_exp/static/images/task_images/gems/7.jpg,null,,,,,,,3,,,5,,,,,7,0.480939251,0.428571429,,,,,,,
decision,170,527885,0.0-57.0-2.0,"""event"",""trial"",""time""
""fullscreenenter"",""1"",""2077""
","
","
","""event"",""trial"",""time""
""fullscreenenter"",""1"",""2077""
","
",,435.7,run_exp/static/images/task_images/land.jpg,76,,,,,,,3,,,5,,,,,,,,181498,1,4,TRUE,,,
travel,171,537455,0.0-58.0-0.0,"""event"",""trial"",""time""
""fullscreenenter"",""1"",""2077""
","
","
","""event"",""trial"",""time""
""fullscreenenter"",""1"",""2077""
","
",,,,,,,,,,,,"[{""stimulus"":""run_exp/static/images/task_images/rocket-01.jpg"",""time"":0.10000002384185791},{""stimulus"":""run_exp/static/images/task_images/rocket-02.jpg"",""time"":1071.300000011921},{""stimulus"":""run_exp/static/images/task_images/rocket-03.jpg"",""time"":2126},{""stimulus"":""run_exp/static/images/task_images/rocket-04.jpg"",""time"":3194},{""stimulus"":""run_exp/static/images/task_images/rocket-05.jpg"",""time"":4258},{""stimulus"":""run_exp/static/images/task_images/rocket-06.jpg"",""time"":5317.600000023842},{""stimulus"":""run_exp/static/images/task_images/rocket-07.jpg"",""time"":6374.100000023842},{""stimulus"":""run_exp/static/images/task_images/rocket-08.jpg"",""time"":7442},{""stimulus"":""run_exp/static/images/task_images/rocket-09.jpg"",""time"":8505.300000011921}]",[],5,,,,,,,,,,,,,,
alien_welcome,172,542463,0.0-58.0-1.0,"""event"",""trial"",""time""
""fullscreenenter"",""1"",""2077""
","
","
","""event"",""trial"",""time""
""fullscreenenter"",""1"",""2077""
","
",,null,run_exp/static/images/task_images/aliens/old_aliens/planet/alien_planet-24.jpg,null,,,,,,,,,,,,,24,"21,38,58,54,61,24,9,63,42,68,27,43,51,4,3,10,5,13,33,57,22,31,56,18,40,8,14",,,,,,,,,,
land,173,542969,0.0-58.0-2.0,"""event"",""trial"",""time""
""fullscreenenter"",""1"",""2077""
","
","
","""event"",""trial"",""time""
""fullscreenenter"",""1"",""2077""
","
",,null,run_exp/static/images/task_images/land.jpg,null,,,,,,,96,,,6,,,,,,,,,,,,,,
dig,174,544973,0.0-58.0-3.0,"""event"",""trial"",""time""
""fullscreenenter"",""1"",""2077""
","
","
","""event"",""trial"",""time""
""fullscreenenter"",""1"",""2077""
","
",,,,,,,,,,,,"[{""stimulus"":""run_exp/static/images/task_images/dig.jpg"",""time"":0.10000002384185791},{""stimulus"":""run_exp/static/images/task_images/land.jpg"",""time"":677.8000000119209},{""stimulus"":""run_exp/static/images/task_images/dig.jpg"",""time"":1335.3999999761581}]",[],6,,,,,,,,,,,,,,
harvest,175,545985,0.0-58.0-4.0,"""event"",""trial"",""time""
""fullscreenenter"",""1"",""2077""
","
","
","""event"",""trial"",""time""
""fullscreenenter"",""1"",""2077""
","
",,null,run_exp/static/images/task_images/gems/96.jpg,null,,,,,,,78,,,6,,,,,96,0.817252647,0.8125,,,,,,,
decision,176,546117,0.0-58.0-5.0,"""event"",""trial"",""time""
""fullscreenenter"",""1"",""2077""
","
","
","""event"",""trial"",""time""
""fullscreenenter"",""1"",""2077""
","
",,131.4,run_exp/static/images/task_images/land.jpg,65,,,,,,,78,,,6,,,,,,,,199730,1,0,FALSE,,,
dig,177,548990,0.0-59.0-0.0,"""event"",""trial"",""time""
""fullscreenenter"",""1"",""2077""
","
","
","""event"",""trial"",""time""
""fullscreenenter"",""1"",""2077""
","
",,,,,,,,,,,,"[{""stimulus"":""run_exp/static/images/task_images/dig.jpg"",""time"":0.10000002384185791},{""stimulus"":""run_exp/static/images/task_images/land.jpg"",""time"":958.5},{""stimulus"":""run_exp/static/images/task_images/dig.jpg"",""time"":1919}]",[],6,,,,,,,,,,,,,,
harvest,178,550001,0.0-59.0-1.0,"""event"",""trial"",""time""
""fullscreenenter"",""1"",""2077""
","
","
","""event"",""trial"",""time""
""fullscreenenter"",""1"",""2077""
","
",,null,run_exp/static/images/task_images/gems/78.jpg,null,,,,,,,60,,,6,,,,,78,0.775569651,0.769230769,,,,,,,
decision,179,550053,0.0-59.0-2.0,"""event"",""trial"",""time""
""fullscreenenter"",""1"",""2077""
","
","
","""event"",""trial"",""time""
""fullscreenenter"",""1"",""2077""
","
",,51.20000005,run_exp/static/images/task_images/land.jpg,65,,,,,,,60,,,6,,,,,,,,203666,1,1,FALSE,,,
dig,180,553008,0.0-60.0-0.0,"""event"",""trial"",""time""
""fullscreenenter"",""1"",""2077""
","
","
","""event"",""trial"",""time""
""fullscreenenter"",""1"",""2077""
","
",,,,,,,,,,,,"[{""stimulus"":""run_exp/static/images/task_images/dig.jpg"",""time"":0.09999996423721313},{""stimulus"":""run_exp/static/images/task_images/land.jpg"",""time"":990.5999999642372},{""stimulus"":""run_exp/static/images/task_images/dig.jpg"",""time"":1970.5999999642372}]",[],6,,,,,,,,,,,,,,
harvest,181,554017,0.0-60.0-1.0,"""event"",""trial"",""time""
""fullscreenenter"",""1"",""2077""
","
","
","""event"",""trial"",""time""
""fullscreenenter"",""1"",""2077""
","
",,null,run_exp/static/images/task_images/gems/60.jpg,null,,,,,,,46,,,6,,,,,60,0.760450827,0.766666667,,,,,,,
decision,182,554125,0.0-60.0-2.0,"""event"",""trial"",""time""
""fullscreenenter"",""1"",""2077""
","
","
","""event"",""trial"",""time""
""fullscreenenter"",""1"",""2077""
","
",,107.3,run_exp/static/images/task_images/land.jpg,65,,,,,,,46,,,6,,,,,,,,207738,1,2,FALSE,,,
dig,183,557025,0.0-61.0-0.0,"""event"",""trial"",""time""
""fullscreenenter"",""1"",""2077""
","
","
","""event"",""trial"",""time""
""fullscreenenter"",""1"",""2077""
","
",,,,,,,,,,,,"[{""stimulus"":""run_exp/static/images/task_images/dig.jpg"",""time"":0.09999996423721313},{""stimulus"":""run_exp/static/images/task_images/land.jpg"",""time"":968.3999999761581},{""stimulus"":""run_exp/static/images/task_images/dig.jpg"",""time"":1935.0999999642372}]",[],6,,,,,,,,,,,,,,
harvest,184,558033,0.0-61.0-1.0,"""event"",""trial"",""time""
""fullscreenenter"",""1"",""2077""
","
","
","""event"",""trial"",""time""
""fullscreenenter"",""1"",""2077""
","
",,null,run_exp/static/images/task_images/gems/46.jpg,null,,,,,,,33,,,6,,,,,46,0.72342794,0.717391304,,,,,,,
decision,185,558038,0.0-61.0-2.0,"""event"",""trial"",""time""
""fullscreenenter"",""1"",""2077""
","
","
","""event"",""trial"",""time""
""fullscreenenter"",""1"",""2077""
","
",,4.5,run_exp/static/images/task_images/land.jpg,65,,,,,,,33,,,6,,,,,,,,211651,1,3,FALSE,,,
dig,186,561040,0.0-62.0-0.0,"""event"",""trial"",""time""
""fullscreenenter"",""1"",""2077""
","
","
","""event"",""trial"",""time""
""fullscreenenter"",""1"",""2077""
","
",,,,,,,,,,,,"[{""stimulus"":""run_exp/static/images/task_images/dig.jpg"",""time"":0.19999998807907104},{""stimulus"":""run_exp/static/images/task_images/land.jpg"",""time"":1004.8999999761581},{""stimulus"":""run_exp/static/images/task_images/dig.jpg"",""time"":2004.699999988079}]",[],6,,,,,,,,,,,,,,
harvest,187,562046,0.0-62.0-1.0,"""event"",""trial"",""time""
""fullscreenenter"",""1"",""2077""
","
","
","""event"",""trial"",""time""
""fullscreenenter"",""1"",""2077""
","
",,null,run_exp/static/images/task_images/gems/33.jpg,null,,,,,,,25,,,6,,,,,33,0.771977659,0.757575758,,,,,,,
decision,188,562422,0.0-62.0-2.0,"""event"",""trial"",""time""
""fullscreenenter"",""1"",""2077""
","
","
","""event"",""trial"",""time""
""fullscreenenter"",""1"",""2077""
","
",,375.6,run_exp/static/images/task_images/land.jpg,65,,,,,,,25,,,6,,,,,,,,216035,1,4,FALSE,,,
dig,189,565054,0.0-63.0-0.0,"""event"",""trial"",""time""
""fullscreenenter"",""1"",""2077""
","
","
","""event"",""trial"",""time""
""fullscreenenter"",""1"",""2077""
","
",,,,,,,,,,,,"[{""stimulus"":""run_exp/static/images/task_images/dig.jpg"",""time"":0.09999996423721313},{""stimulus"":""run_exp/static/images/task_images/land.jpg"",""time"":878.0999999642372},{""stimulus"":""run_exp/static/images/task_images/dig.jpg"",""time"":1752.3999999761581}]",[],6,,,,,,,,,,,,,,
harvest,190,566063,0.0-63.0-1.0,"""event"",""trial"",""time""
""fullscreenenter"",""1"",""2077""
","
","
","""event"",""trial"",""time""
""fullscreenenter"",""1"",""2077""
","
",,null,run_exp/static/images/task_images/gems/25.jpg,null,,,,,,,21,,,6,,,,,25,0.84465734,0.84,,,,,,,
decision,191,566094,0.0-63.0-2.0,"""event"",""trial"",""time""
""fullscreenenter"",""1"",""2077""
","
","
","""event"",""trial"",""time""
""fullscreenenter"",""1"",""2077""
","
",,29.69999999,run_exp/static/images/task_images/land.jpg,65,,,,,,,21,,,6,,,,,,,,219707,1,5,FALSE,,,
dig,192,569069,0.0-64.0-0.0,"""event"",""trial"",""time""
""fullscreenenter"",""1"",""2077""
","
","
","""event"",""trial"",""time""
""fullscreenenter"",""1"",""2077""
","
",,,,,,,,,,,,"[{""stimulus"":""run_exp/static/images/task_images/dig.jpg"",""time"":0.10000002384185791},{""stimulus"":""run_exp/static/images/task_images/land.jpg"",""time"":998.8000000119209},{""stimulus"":""run_exp/static/images/task_images/dig.jpg"",""time"":1982}]",[],6,,,,,,,,,,,,,,
harvest,193,570078,0.0-64.0-1.0,"""event"",""trial"",""time""
""fullscreenenter"",""1"",""2077""
","
","
","""event"",""trial"",""time""
""fullscreenenter"",""1"",""2077""
","
",,null,run_exp/static/images/task_images/gems/21.jpg,null,,,,,,,17,,,6,,,,,21,0.81356758,0.80952381,,,,,,,
decision,194,570566,0.0-64.0-2.0,"""event"",""trial"",""time""
""fullscreenenter"",""1"",""2077""
","
","
","""event"",""trial"",""time""
""fullscreenenter"",""1"",""2077""
","
",,487.1,run_exp/static/images/task_images/land.jpg,65,,,,,,,17,,,6,,,,,,,,224179,1,6,FALSE,,,
dig,195,573090,0.0-65.0-0.0,"""event"",""trial"",""time""
""fullscreenenter"",""1"",""2077""
","
","
","""event"",""trial"",""time""
""fullscreenenter"",""1"",""2077""
","
",,,,,,,,,,,,"[{""stimulus"":""run_exp/static/images/task_images/dig.jpg"",""time"":0.10000002384185791},{""stimulus"":""run_exp/static/images/task_images/land.jpg"",""time"":846.3000000119209},{""stimulus"":""run_exp/static/images/task_images/dig.jpg"",""time"":1680.800000011921}]",[],6,,,,,,,,,,,,,,
harvest,196,574095,0.0-65.0-1.0,"""event"",""trial"",""time""
""fullscreenenter"",""1"",""2077""
","
","
","""event"",""trial"",""time""
""fullscreenenter"",""1"",""2077""
","
",,null,run_exp/static/images/task_images/gems/17.jpg,null,,,,,,,13,,,6,,,,,17,0.757086502,0.764705882,,,,,,,
decision,197,574262,0.0-65.0-2.0,"""event"",""trial"",""time""
""fullscreenenter"",""1"",""2077""
","
","
","""event"",""trial"",""time""
""fullscreenenter"",""1"",""2077""
","
",,166.3,run_exp/static/images/task_images/land.jpg,65,,,,,,,13,,,6,,,,,,,,227875,1,7,FALSE,,,
dig,198,577102,0.0-66.0-0.0,"""event"",""trial"",""time""
""fullscreenenter"",""1"",""2077""
","
","
","""event"",""trial"",""time""
""fullscreenenter"",""1"",""2077""
","
",,,,,,,,,,,,"[{""stimulus"":""run_exp/static/images/task_images/dig.jpg"",""time"":0.10000002384185791},{""stimulus"":""run_exp/static/images/task_images/land.jpg"",""time"":952.3999999761581},{""stimulus"":""run_exp/static/images/task_images/dig.jpg"",""time"":1894.1000000238419}]",[],6,,,,,,,,,,,,,,
harvest,199,578110,0.0-66.0-1.0,"""event"",""trial"",""time""
""fullscreenenter"",""1"",""2077""
","
","
","""event"",""trial"",""time""
""fullscreenenter"",""1"",""2077""
","
",,null,run_exp/static/images/task_images/gems/13.jpg,null,,,,,,,10,,,6,,,,,13,0.781743874,0.769230769,,,,,,,
decision,200,578302,0.0-66.0-2.0,"""event"",""trial"",""time""
""fullscreenenter"",""1"",""2077""
","
","
","""event"",""trial"",""time""
""fullscreenenter"",""1"",""2077""
","
",,191.4,run_exp/static/images/task_images/land.jpg,65,,,,,,,10,,,6,,,,,,,,231915,1,8,FALSE,,,
dig,201,581118,0.0-67.0-0.0,"""event"",""trial"",""time""
""fullscreenenter"",""1"",""2077""
","
","
","""event"",""trial"",""time""
""fullscreenenter"",""1"",""2077""
","
",,,,,,,,,,,,"[{""stimulus"":""run_exp/static/images/task_images/dig.jpg"",""time"":0.10000002384185791},{""stimulus"":""run_exp/static/images/task_images/land.jpg"",""time"":942.5},{""stimulus"":""run_exp/static/images/task_images/dig.jpg"",""time"":1877.800000011921}]",[],6,,,,,,,,,,,,,,
harvest,202,582126,0.0-67.0-1.0,"""event"",""trial"",""time""
""fullscreenenter"",""1"",""2077""
","
","
","""event"",""trial"",""time""
""fullscreenenter"",""1"",""2077""
","
",,null,run_exp/static/images/task_images/gems/10.jpg,null,,,,,,,9,,,6,,,,,10,0.899561675,0.9,,,,,,,
decision,203,582262,0.0-67.0-2.0,"""event"",""trial"",""time""
""fullscreenenter"",""1"",""2077""
","
","
","""event"",""trial"",""time""
""fullscreenenter"",""1"",""2077""
","
",,135.5,run_exp/static/images/task_images/land.jpg,65,,,,,,,9,,,6,,,,,,,,235875,1,9,FALSE,,,
dig,204,585136,0.0-68.0-0.0,"""event"",""trial"",""time""
""fullscreenenter"",""1"",""2077""
","
","
","""event"",""trial"",""time""
""fullscreenenter"",""1"",""2077""
","
",,,,,,,,,,,,"[{""stimulus"":""run_exp/static/images/task_images/dig.jpg"",""time"":0.10000002384185791},{""stimulus"":""run_exp/static/images/task_images/land.jpg"",""time"":958.3999999761581},{""stimulus"":""run_exp/static/images/task_images/dig.jpg"",""time"":1910.3999999761581}]",[],6,,,,,,,,,,,,,,
harvest,205,586144,0.0-68.0-1.0,"""event"",""trial"",""time""
""fullscreenenter"",""1"",""2077""
","
","
","""event"",""trial"",""time""
""fullscreenenter"",""1"",""2077""
","
",,null,run_exp/static/images/task_images/gems/9.jpg,null,,,,,,,7,,,6,,,,,9,0.793354305,0.777777778,,,,,,,
decision,206,586439,0.0-68.0-2.0,"""event"",""trial"",""time""
""fullscreenenter"",""1"",""2077""
","
","
","""event"",""trial"",""time""
""fullscreenenter"",""1"",""2077""
","
",,293.8,run_exp/static/images/task_images/land.jpg,65,,,,,,,7,,,6,,,,,,,,240052,1,10,FALSE,,,
dig,207,589153,0.0-69.0-0.0,"""event"",""trial"",""time""
""fullscreenenter"",""1"",""2077""
","
","
","""event"",""trial"",""time""
""fullscreenenter"",""1"",""2077""
","
",,,,,,,,,,,,"[{""stimulus"":""run_exp/static/images/task_images/dig.jpg"",""time"":0},{""stimulus"":""run_exp/static/images/task_images/land.jpg"",""time"":910},{""stimulus"":""run_exp/static/images/task_images/dig.jpg"",""time"":1809}]",[],6,,,,,,,,,,,,,,
harvest,208,590158,0.0-69.0-1.0,"""event"",""trial"",""time""
""fullscreenenter"",""1"",""2077""
","
","
","""event"",""trial"",""time""
""fullscreenenter"",""1"",""2077""
","
",,null,run_exp/static/images/task_images/gems/7.jpg,null,,,,,,,5,,,6,,,,,7,0.741425202,0.714285714,,,,,,,
decision,209,592039,0.0-69.0-2.0,"""event"",""trial"",""time""
""fullscreenenter"",""1"",""2077""
","
","
","""event"",""trial"",""time""
""fullscreenenter"",""1"",""2077""
","
",,1880.2,run_exp/static/images/task_images/land.jpg,65,,,,,,,5,,,6,,,,,,,,245652,1,11,FALSE,,,
dig,210,593170,0.0-70.0-0.0,"""event"",""trial"",""time""
""fullscreenenter"",""1"",""2077""
","
","
","""event"",""trial"",""time""
""fullscreenenter"",""1"",""2077""
","
",,,,,,,,,,,,"[{""stimulus"":""run_exp/static/images/task_images/dig.jpg"",""time"":0.19999998807907104},{""stimulus"":""run_exp/static/images/task_images/land.jpg"",""time"":377.30000001192093},{""stimulus"":""run_exp/static/images/task_images/dig.jpg"",""time"":749.4000000357628}]",[],6,,,,,,,,,,,,,,
harvest,211,594177,0.0-70.0-1.0,"""event"",""trial"",""time""
""fullscreenenter"",""1"",""2077""
","
","
","""event"",""trial"",""time""
""fullscreenenter"",""1"",""2077""
","
",,null,run_exp/static/images/task_images/gems/5.jpg,null,,,,,,,4,,,6,,,,,5,0.817887534,0.8,,,,,,,
decision,212,594615,0.0-70.0-2.0,"""event"",""trial"",""time""
""fullscreenenter"",""1"",""2077""
","
","
","""event"",""trial"",""time""
""fullscreenenter"",""1"",""2077""
","
",,437.5,run_exp/static/images/task_images/land.jpg,65,,,,,,,4,,,6,,,,,,,,248228,1,12,FALSE,,,
dig,213,597186,0.0-71.0-0.0,"""event"",""trial"",""time""
""fullscreenenter"",""1"",""2077""
","
","
","""event"",""trial"",""time""
""fullscreenenter"",""1"",""2077""
","
",,,,,,,,,,,,"[{""stimulus"":""run_exp/static/images/task_images/dig.jpg"",""time"":0.09999996423721313},{""stimulus"":""run_exp/static/images/task_images/land.jpg"",""time"":863.0999999642372},{""stimulus"":""run_exp/static/images/task_images/dig.jpg"",""time"":1709.8999999761581}]",[],6,,,,,,,,,,,,,,
harvest,214,598191,0.0-71.0-1.0,"""event"",""trial"",""time""
""fullscreenenter"",""1"",""2077""
","
","
","""event"",""trial"",""time""
""fullscreenenter"",""1"",""2077""
","
",,null,run_exp/static/images/task_images/gems/4.jpg,null,,,,,,,3,,,6,,,,,4,0.830368081,0.75,,,,,,,
decision,215,599423,0.0-71.0-2.0,"""event"",""trial"",""time""
""fullscreenenter"",""1"",""2077""
","
","
","""event"",""trial"",""time""
""fullscreenenter"",""1"",""2077""
","
",,1231,run_exp/static/images/task_images/land.jpg,76,,,,,,,3,,,6,,,,,,,,253036,1,13,TRUE,,,
travel,216,608192,0.0-72.0-0.0,"""event"",""trial"",""time""
""fullscreenenter"",""1"",""2077""
","
","
","""event"",""trial"",""time""
""fullscreenenter"",""1"",""2077""
","
",,,,,,,,,,,,"[{""stimulus"":""run_exp/static/images/task_images/rocket-01.jpg"",""time"":0.10000002384185791},{""stimulus"":""run_exp/static/images/task_images/rocket-02.jpg"",""time"":985.6999999880791},{""stimulus"":""run_exp/static/images/task_images/rocket-03.jpg"",""time"":1950.4000000357628},{""stimulus"":""run_exp/static/images/task_images/rocket-04.jpg"",""time"":2925.600000023842},{""stimulus"":""run_exp/static/images/task_images/rocket-05.jpg"",""time"":3900.900000035763},{""stimulus"":""run_exp/static/images/task_images/rocket-06.jpg"",""time"":4881.400000035763},{""stimulus"":""run_exp/static/images/task_images/rocket-07.jpg"",""time"":5845.900000035763},{""stimulus"":""run_exp/static/images/task_images/rocket-08.jpg"",""time"":6825.100000023842},{""stimulus"":""run_exp/static/images/task_images/rocket-09.jpg"",""time"":7799.699999988079}]",[],6,,,,,,,,,,,,,,
alien_welcome,217,613203,0.0-72.0-1.0,"""event"",""trial"",""time""
""fullscreenenter"",""1"",""2077""
","
","
","""event"",""trial"",""time""
""fullscreenenter"",""1"",""2077""
","
",,null,run_exp/static/images/task_images/aliens/old_aliens/planet/alien_planet-9.jpg,null,,,,,,,,,,,,,9,"21,38,58,54,61,24,9,63,42,68,27,43,51,4,3,10,5,13,33,57,22,31,56,18,40,8,14",,,,,,,,,,
land,218,613715,0.0-72.0-2.0,"""event"",""trial"",""time""
""fullscreenenter"",""1"",""2077""
","
","
","""event"",""trial"",""time""
""fullscreenenter"",""1"",""2077""
","
",,null,run_exp/static/images/task_images/land.jpg,null,,,,,,,100,,,7,,,,,,,,,,,,,,
dig,219,615720,0.0-72.0-3.0,"""event"",""trial"",""time""
""fullscreenenter"",""1"",""2077""
","
","
","""event"",""trial"",""time""
""fullscreenenter"",""1"",""2077""
","
",,,,,,,,,,,,"[{""stimulus"":""run_exp/static/images/task_images/dig.jpg"",""time"":0.09999996423721313},{""stimulus"":""run_exp/static/images/task_images/land.jpg"",""time"":674.5},{""stimulus"":""run_exp/static/images/task_images/dig.jpg"",""time"":1342}]",[],7,,,,,,,,,,,,,,
harvest,220,616731,0.0-72.0-4.0,"""event"",""trial"",""time""
""fullscreenenter"",""1"",""2077""
","
","
","""event"",""trial"",""time""
""fullscreenenter"",""1"",""2077""
","
",,null,run_exp/static/images/task_images/gems/100.jpg,null,,,,,,,83,,,7,,,,,100,0.825092054,0.83,,,,,,,
decision,221,616952,0.0-72.0-5.0,"""event"",""trial"",""time""
""fullscreenenter"",""1"",""2077""
","
","
","""event"",""trial"",""time""
""fullscreenenter"",""1"",""2077""
","
",,219.6,run_exp/static/images/task_images/land.jpg,65,,,,,,,83,,,7,,,,,,,,270565,1,0,FALSE,,,
dig,222,619739,0.0-73.0-0.0,"""event"",""trial"",""time""
""fullscreenenter"",""1"",""2077""
","
","
","""event"",""trial"",""time""
""fullscreenenter"",""1"",""2077""
","
",,,,,,,,,,,,"[{""stimulus"":""run_exp/static/images/task_images/dig.jpg"",""time"":0.09999996423721313},{""stimulus"":""run_exp/static/images/task_images/land.jpg"",""time"":938.0999999642372},{""stimulus"":""run_exp/static/images/task_images/dig.jpg"",""time"":1853.199999988079}]",[],7,,,,,,,,,,,,,,
harvest,223,620745,0.0-73.0-1.0,"""event"",""trial"",""time""
""fullscreenenter"",""1"",""2077""
","
","
","""event"",""trial"",""time""
""fullscreenenter"",""1"",""2077""
","
",,null,run_exp/static/images/task_images/gems/83.jpg,null,,,,,,,65,,,7,,,,,83,0.787152727,0.78313253,,,,,,,
decision,224,620959,0.0-73.0-2.0,"""event"",""trial"",""time""
""fullscreenenter"",""1"",""2077""
","
","
","""event"",""trial"",""time""
""fullscreenenter"",""1"",""2077""
","
",,213.3,run_exp/static/images/task_images/land.jpg,65,,,,,,,65,,,7,,,,,,,,274572,1,1,FALSE,,,
dig,225,623755,0.0-74.0-0.0,"""event"",""trial"",""time""
""fullscreenenter"",""1"",""2077""
","
","
","""event"",""trial"",""time""
""fullscreenenter"",""1"",""2077""
","
",,,,,,,,,,,,"[{""stimulus"":""run_exp/static/images/task_images/dig.jpg"",""time"":0.10000002384185791},{""stimulus"":""run_exp/static/images/task_images/land.jpg"",""time"":934.5},{""stimulus"":""run_exp/static/images/task_images/dig.jpg"",""time"":1858.1000000238419}]",[],7,,,,,,,,,,,,,,
harvest,226,624759,0.0-74.0-1.0,"""event"",""trial"",""time""
""fullscreenenter"",""1"",""2077""
","
","
","""event"",""trial"",""time""
""fullscreenenter"",""1"",""2077""
","
",,null,run_exp/static/images/task_images/gems/65.jpg,null,,,,,,,49,,,7,,,,,65,0.750109552,0.753846154,,,,,,,
decision,227,625088,0.0-74.0-2.0,"""event"",""trial"",""time""
""fullscreenenter"",""1"",""2077""
","
","
","""event"",""trial"",""time""
""fullscreenenter"",""1"",""2077""
","
",,328.2,run_exp/static/images/task_images/land.jpg,65,,,,,,,49,,,7,,,,,,,,278701,1,2,FALSE,,,
dig,228,627772,0.0-75.0-0.0,"""event"",""trial"",""time""
""fullscreenenter"",""1"",""2077""
","
","
","""event"",""trial"",""time""
""fullscreenenter"",""1"",""2077""
","
",,,,,,,,,,,,"[{""stimulus"":""run_exp/static/images/task_images/dig.jpg"",""time"":0},{""stimulus"":""run_exp/static/images/task_images/land.jpg"",""time"":898.2999999523163},{""stimulus"":""run_exp/static/images/task_images/dig.jpg"",""time"":1782.5}]",[],7,,,,,,,,,,,,,,
harvest,229,628776,0.0-75.0-1.0,"""event"",""trial"",""time""
""fullscreenenter"",""1"",""2077""
","
","
","""event"",""trial"",""time""
""fullscreenenter"",""1"",""2077""
","
",,null,run_exp/static/images/task_images/gems/49.jpg,null,,,,,,,41,,,7,,,,,49,0.830406244,0.836734694,,,,,,,
decision,230,628823,0.0-75.0-2.0,"""event"",""trial"",""time""
""fullscreenenter"",""1"",""2077""
","
","
","""event"",""trial"",""time""
""fullscreenenter"",""1"",""2077""
","
",,46.89999998,run_exp/static/images/task_images/land.jpg,65,,,,,,,41,,,7,,,,,,,,282436,1,3,FALSE,,,
dig,231,631788,0.0-76.0-0.0,"""event"",""trial"",""time""
""fullscreenenter"",""1"",""2077""
","
","
","""event"",""trial"",""time""
""fullscreenenter"",""1"",""2077""
","
",,,,,,,,,,,,"[{""stimulus"":""run_exp/static/images/task_images/dig.jpg"",""time"":0.10000002384185791},{""stimulus"":""run_exp/static/images/task_images/land.jpg"",""time"":989.6999999880791},{""stimulus"":""run_exp/static/images/task_images/dig.jpg"",""time"":1974.699999988079}]",[],7,,,,,,,,,,,,,,
harvest,232,632795,0.0-76.0-1.0,"""event"",""trial"",""time""
""fullscreenenter"",""1"",""2077""
","
","
","""event"",""trial"",""time""
""fullscreenenter"",""1"",""2077""
","
",,null,run_exp/static/images/task_images/gems/41.jpg,null,,,,,,,33,,,7,,,,,41,0.801749781,0.804878049,,,,,,,
decision,233,632904,0.0-76.0-2.0,"""event"",""trial"",""time""
""fullscreenenter"",""1"",""2077""
","
","
","""event"",""trial"",""time""
""fullscreenenter"",""1"",""2077""
","
",,108.4,run_exp/static/images/task_images/land.jpg,65,,,,,,,33,,,7,,,,,,,,286517,1,4,FALSE,,,
dig,234,635800,0.0-77.0-0.0,"""event"",""trial"",""time""
""fullscreenenter"",""1"",""2077""
","
","
","""event"",""trial"",""time""
""fullscreenenter"",""1"",""2077""
","
",,,,,,,,,,,,"[{""stimulus"":""run_exp/static/images/task_images/dig.jpg"",""time"":0.10000002384185791},{""stimulus"":""run_exp/static/images/task_images/land.jpg"",""time"":969.8000000119209},{""stimulus"":""run_exp/static/images/task_images/dig.jpg"",""time"":1937.800000011921}]",[],7,,,,,,,,,,,,,,
harvest,235,636810,0.0-77.0-1.0,"""event"",""trial"",""time""
""fullscreenenter"",""1"",""2077""
","
","
","""event"",""trial"",""time""
""fullscreenenter"",""1"",""2077""
","
",,null,run_exp/static/images/task_images/gems/33.jpg,null,,,,,,,27,,,7,,,,,33,0.821627706,0.818181818,,,,,,,
decision,236,637064,0.0-77.0-2.0,"""event"",""trial"",""time""
""fullscreenenter"",""1"",""2077""
","
","
","""event"",""trial"",""time""
""fullscreenenter"",""1"",""2077""
","
",,252.7,run_exp/static/images/task_images/land.jpg,65,,,,,,,27,,,7,,,,,,,,290677,1,5,FALSE,,,
dig,237,639817,0.0-78.0-0.0,"""event"",""trial"",""time""
""fullscreenenter"",""1"",""2077""
","
","
","""event"",""trial"",""time""
""fullscreenenter"",""1"",""2077""
","
",,,,,,,,,,,,"[{""stimulus"":""run_exp/static/images/task_images/dig.jpg"",""time"":0.10000002384185791},{""stimulus"":""run_exp/static/images/task_images/land.jpg"",""time"":922.2000000476837},{""stimulus"":""run_exp/static/images/task_images/dig.jpg"",""time"":1841.800000011921}]",[],7,,,,,,,,,,,,,,
harvest,238,640827,0.0-78.0-1.0,"""event"",""trial"",""time""
""fullscreenenter"",""1"",""2077""
","
","
","""event"",""trial"",""time""
""fullscreenenter"",""1"",""2077""
","
",,null,run_exp/static/images/task_images/gems/27.jpg,null,,,,,,,22,,,7,,,,,27,0.802965258,0.814814815,,,,,,,
decision,239,641040,0.0-78.0-2.0,"""event"",""trial"",""time""
""fullscreenenter"",""1"",""2077""
","
","
","""event"",""trial"",""time""
""fullscreenenter"",""1"",""2077""
","
",,211.8,run_exp/static/images/task_images/land.jpg,65,,,,,,,22,,,7,,,,,,,,294653,1,6,FALSE,,,
dig,240,643835,0.0-79.0-0.0,"""event"",""trial"",""time""
""fullscreenenter"",""1"",""2077""
","
","
","""event"",""trial"",""time""
""fullscreenenter"",""1"",""2077""
","
",,,,,,,,,,,,"[{""stimulus"":""run_exp/static/images/task_images/dig.jpg"",""time"":0.10000002384185791},{""stimulus"":""run_exp/static/images/task_images/land.jpg"",""time"":938.5},{""stimulus"":""run_exp/static/images/task_images/dig.jpg"",""time"":1862.6000000238419}]",[],7,,,,,,,,,,,,,,
harvest,241,644839,0.0-79.0-1.0,"""event"",""trial"",""time""
""fullscreenenter"",""1"",""2077""
","
","
","""event"",""trial"",""time""
""fullscreenenter"",""1"",""2077""
","
",,null,run_exp/static/images/task_images/gems/22.jpg,null,,,,,,,18,,,7,,,,,22,0.800127373,0.818181818,,,,,,,
decision,242,645032,0.0-79.0-2.0,"""event"",""trial"",""time""
""fullscreenenter"",""1"",""2077""
","
","
","""event"",""trial"",""time""
""fullscreenenter"",""1"",""2077""
","
",,192,run_exp/static/images/task_images/land.jpg,65,,,,,,,18,,,7,,,,,,,,298645,1,7,FALSE,,,
dig,243,647851,0.0-80.0-0.0,"""event"",""trial"",""time""
""fullscreenenter"",""1"",""2077""
","
","
","""event"",""trial"",""time""
""fullscreenenter"",""1"",""2077""
","
",,,,,,,,,,,,"[{""stimulus"":""run_exp/static/images/task_images/dig.jpg"",""time"":0.10000002384185791},{""stimulus"":""run_exp/static/images/task_images/land.jpg"",""time"":946.6000000238419},{""stimulus"":""run_exp/static/images/task_images/dig.jpg"",""time"":1877.5}]",[],7,,,,,,,,,,,,,,
harvest,244,648860,0.0-80.0-1.0,"""event"",""trial"",""time""
""fullscreenenter"",""1"",""2077""
","
","
","""event"",""trial"",""time""
""fullscreenenter"",""1"",""2077""
","
",,null,run_exp/static/images/task_images/gems/18.jpg,null,,,,,,,14,,,7,,,,,18,0.778334462,0.777777778,,,,,,,
decision,245,648896,0.0-80.0-2.0,"""event"",""trial"",""time""
""fullscreenenter"",""1"",""2077""
","
","
","""event"",""trial"",""time""
""fullscreenenter"",""1"",""2077""
","
",,35.10000002,run_exp/static/images/task_images/land.jpg,65,,,,,,,14,,,7,,,,,,,,302509,1,8,TRUE,,,
end_of_block_continue,246,653679,0.0-81.0-0.0,"""event"",""trial"",""time""
""fullscreenenter"",""1"",""2077""
","
","
","""event"",""trial"",""time""
""fullscreenenter"",""1"",""2077""
","
",,4781.2,run_exp/static/audio/clip_32_block_end.m4a,,,,,,,0,,,,,,,,,,,,,,,,,,
alien_welcome,247,658689,0.0-82.0-0.0,"""event"",""trial"",""time""
""fullscreenenter"",""1"",""2077""
","
","
","""event"",""trial"",""time""
""fullscreenenter"",""1"",""2077""
","
",,null,run_exp/static/images/task_images/aliens/old_aliens/planet/alien_planet-63.jpg,null,,,,,,,,,,,,,63,"21,38,58,54,61,24,9,63,42,68,27,43,51,4,3,10,5,13,33,57,22,31,56,18,40,8,14",,,,,,,,,,
land,248,659195,0.0-82.0-1.0,"""event"",""trial"",""time""
""fullscreenenter"",""1"",""2077""
","
","
","""event"",""trial"",""time""
""fullscreenenter"",""1"",""2077""
","
",,null,run_exp/static/images/task_images/land.jpg,null,,,,,,,108,,,8,,,,,,,,,,,,,,
dig,249,661204,0.0-82.0-2.0,"""event"",""trial"",""time""
""fullscreenenter"",""1"",""2077""
","
","
","""event"",""trial"",""time""
""fullscreenenter"",""1"",""2077""
","
",,,,,,,,,,,,"[{""stimulus"":""run_exp/static/images/task_images/dig.jpg"",""time"":0.09999996423721313},{""stimulus"":""run_exp/static/images/task_images/land.jpg"",""time"":672.8999999761581},{""stimulus"":""run_exp/static/images/task_images/dig.jpg"",""time"":1343.8999999761581}]",[],8,,,,,,,,,,,,,,
harvest,250,662212,0.0-82.0-3.0,"""event"",""trial"",""time""
""fullscreenenter"",""1"",""2077""
","
","
","""event"",""trial"",""time""
""fullscreenenter"",""1"",""2077""
","
",,null,run_exp/static/images/task_images/gems/108.jpg,null,,,,,,,24,,,8,,,,,108,0.221252301,0.222222222,,,,,,,
decision,251,662257,0.0-82.0-4.0,"""event"",""trial"",""time""
""fullscreenenter"",""1"",""2077""
","
","
","""event"",""trial"",""time""
""fullscreenenter"",""1"",""2077""
","
",,43.80000001,run_exp/static/images/task_images/land.jpg,65,,,,,,,24,,,8,,,,,,,,8576,2,0,FALSE,,,
dig,252,665218,0.0-83.0-0.0,"""event"",""trial"",""time""
""fullscreenenter"",""1"",""2077""
","
","
","""event"",""trial"",""time""
""fullscreenenter"",""1"",""2077""
","
",,,,,,,,,,,,"[{""stimulus"":""run_exp/static/images/task_images/dig.jpg"",""time"":0.09999996423721313},{""stimulus"":""run_exp/static/images/task_images/land.jpg"",""time"":989.3999999761581},{""stimulus"":""run_exp/static/images/task_images/dig.jpg"",""time"":1975.3999999761581}]",[],8,,,,,,,,,,,,,,
harvest,253,666225,0.0-83.0-1.0,"""event"",""trial"",""time""
""fullscreenenter"",""1"",""2077""
","
","
","""event"",""trial"",""time""
""fullscreenenter"",""1"",""2077""
","
",,null,run_exp/static/images/task_images/gems/24.jpg,null,,,,,,,5,,,8,,,,,24,0.195037715,0.208333333,,,,,,,
decision,254,666481,0.0-83.0-2.0,"""event"",""trial"",""time""
""fullscreenenter"",""1"",""2077""
","
","
","""event"",""trial"",""time""
""fullscreenenter"",""1"",""2077""
","
",,255.8,run_exp/static/images/task_images/land.jpg,65,,,,,,,5,,,8,,,,,,,,12800,2,1,FALSE,,,
dig,255,669233,0.0-84.0-0.0,"""event"",""trial"",""time""
""fullscreenenter"",""1"",""2077""
","
","
","""event"",""trial"",""time""
""fullscreenenter"",""1"",""2077""
","
",,,,,,,,,,,,"[{""stimulus"":""run_exp/static/images/task_images/dig.jpg"",""time"":0.10000002384185791},{""stimulus"":""run_exp/static/images/task_images/land.jpg"",""time"":921.1999999880791},{""stimulus"":""run_exp/static/images/task_images/dig.jpg"",""time"":1837.6000000238419}]",[],8,,,,,,,,,,,,,,
harvest,256,670241,0.0-84.0-1.0,"""event"",""trial"",""time""
""fullscreenenter"",""1"",""2077""
","
","
","""event"",""trial"",""time""
""fullscreenenter"",""1"",""2077""
","
",,null,run_exp/static/images/task_images/gems/5.jpg,null,,,,,,,1,,,8,,,,,5,0.205669701,0.2,,,,,,,
decision,257,670265,0.0-84.0-2.0,"""event"",""trial"",""time""
""fullscreenenter"",""1"",""2077""
","
","
","""event"",""trial"",""time""
""fullscreenenter"",""1"",""2077""
","
",,22.80000001,run_exp/static/images/task_images/land.jpg,65,,,,,,,1,,,8,,,,,,,,16584,2,2,FALSE,,,
dig,258,673244,0.0-85.0-0.0,"""event"",""trial"",""time""
""fullscreenenter"",""1"",""2077""
","
","
","""event"",""trial"",""time""
""fullscreenenter"",""1"",""2077""
","
