trial_type,trial_index,time_elapsed,internal_node_id,interactions,blur_events,focus_events,fullscreenenter_events,fullscreenexit_events,success,rt,stimulus,key_press,prompt,subject_id,participant_id,age,gender,button_pressed,next_reward,animation_sequence,responses,planet,curr_prac_trial,n_prac_rounds,alien,aliens,reward_received,decay_rate_actual,decay_rate_exp,time_in_block,block_num,prt,last_trial_on_planet,button_html,bonus,num_failures
pavlovia,0,2,0.0-0.0,"""event"",""trial"",""time""
""blur"",""1"",""3637""
""focus"",""1"",""7087""
""fullscreenenter"",""1"",""7471""
","""event"",""trial"",""time""
""blur"",""1"",""3637""
","""event"",""trial"",""time""
""focus"",""1"",""7087""
","""event"",""trial"",""time""
""fullscreenenter"",""1"",""7471""
","
",,,,,,,,,,,,,,,,,,,,,,,,,,,,
fullscreen,1,8466,0.0-1.0,"""event"",""trial"",""time""
""blur"",""1"",""3637""
""focus"",""1"",""7087""
""fullscreenenter"",""1"",""7471""
""blur"",""2"",""13834""
""focus"",""2"",""18040""
","""event"",""trial"",""time""
""blur"",""1"",""3637""
""blur"",""2"",""13834""
","""event"",""trial"",""time""
""focus"",""1"",""7087""
""focus"",""2"",""18040""
","""event"",""trial"",""time""
""fullscreenenter"",""1"",""7471""
","
",TRUE,,,,,,,,,,,,,,,,,,,,,,,,,,,
instruc_welcome,2,18190,0.0-2.0,"""event"",""trial"",""time""
""blur"",""1"",""3637""
""focus"",""1"",""7087""
""fullscreenenter"",""1"",""7471""
""blur"",""2"",""13834""
""focus"",""2"",""18040""
","""event"",""trial"",""time""
""blur"",""1"",""3637""
""blur"",""2"",""13834""
","""event"",""trial"",""time""
""focus"",""1"",""7087""
""focus"",""2"",""18040""
","""event"",""trial"",""time""
""fullscreenenter"",""1"",""7471""
","
",,null,run_exp/static/audio/clip_1_welcome.m4a,null,"<p>Howdy! In this experiment, you’ll be an explorer traveling through space to collect space treasure.</p><p>Your mission is to collect as much treasure as possible.</p><br><br><p><img src='run_exp/static/images/task_images/opening_img-01.jpg' height='300' width='auto'></p>",8916,2388,22.13,Male,,,,,,,,,,,,,,,,,,,
audio-keyboard-response,3,34767,0.0-3.0,"""event"",""trial"",""time""
""blur"",""1"",""3637""
""focus"",""1"",""7087""
""fullscreenenter"",""1"",""7471""
""blur"",""2"",""13834""
""focus"",""2"",""18040""
","""event"",""trial"",""time""
""blur"",""1"",""3637""
""blur"",""2"",""13834""
","""event"",""trial"",""time""
""focus"",""1"",""7087""
""focus"",""2"",""18040""
","""event"",""trial"",""time""
""fullscreenenter"",""1"",""7471""
","
",,null,run_exp/static/audio/clip_2_move.m4a,null,,,,,,,,,,,,,,,,,,,,,,,,
welcome_dec,4,35351,0.0-4.0,"""event"",""trial"",""time""
""blur"",""1"",""3637""
""focus"",""1"",""7087""
""fullscreenenter"",""1"",""7471""
""blur"",""2"",""13834""
""focus"",""2"",""18040""
","""event"",""trial"",""time""
""blur"",""1"",""3637""
""blur"",""2"",""13834""
","""event"",""trial"",""time""
""focus"",""1"",""7087""
""focus"",""2"",""18040""
","""event"",""trial"",""time""
""fullscreenenter"",""1"",""7471""
","
",,582.8,"<p>Howdy! In this experiment, you’ll be an explorer traveling through space to collect space treasure.</p><p>Your mission is to collect as much treasure as possible.</p><br><br><p><img src='run_exp/static/images/task_images/opening_img-01.jpg' height='300' width='auto'></p>",,,,,,,1,,,,,,,,,,,,,,,,,,
html-keyboard-response,5,35442,0.0-5.0,"""event"",""trial"",""time""
""blur"",""1"",""3637""
""focus"",""1"",""7087""
""fullscreenenter"",""1"",""7471""
""blur"",""2"",""13834""
""focus"",""2"",""18040""
","""event"",""trial"",""time""
""blur"",""1"",""3637""
""blur"",""2"",""13834""
","""event"",""trial"",""time""
""focus"",""1"",""7087""
""focus"",""2"",""18040""
","""event"",""trial"",""time""
""fullscreenenter"",""1"",""7471""
","
",,89.90000001,"<p>Howdy! In this experiment, you’ll be an explorer traveling through space to collect space treasure.</p><p>Your mission is to collect as much treasure as possible.</p><br><br><p><img src='run_exp/static/images/task_images/opening_img-01.jpg' height='300' width='auto'></p><button class=""jspsych-html-btn-unchosen""><img src=""run_exp/static/images/task_images/planet-01.jpg"" height=""50""></button><button class=""jspsych-html-btn-chosen""><img src=""run_exp/static/images/task_images/planet-02.jpg"" height=""50""></button><p><b>[press the space bar to lock in your answer]<b><br></p>",32,,,,,,,,,,,,,,,,,,,,,,,,
instruc_goal,6,45497,0.0-6.0-0.0,"""event"",""trial"",""time""
""blur"",""1"",""3637""
""focus"",""1"",""7087""
""fullscreenenter"",""1"",""7471""
""blur"",""2"",""13834""
""focus"",""2"",""18040""
","""event"",""trial"",""time""
""blur"",""1"",""3637""
""blur"",""2"",""13834""
","""event"",""trial"",""time""
""focus"",""1"",""7087""
""focus"",""2"",""18040""
","""event"",""trial"",""time""
""fullscreenenter"",""1"",""7471""
","
",,null,run_exp/static/audio/clip_3_goal.m4a,null,"<p> As a space explorer, you’ll visit different planets to dig for space treasure, these pink gems.</p> <p> The more treasure you dig up, the more bonus money you’ll win! </p><br><br><p><img src='run_exp/static/images/task_images/pink_gem.jpg' height='300' width='auto'></p>",,,,,,,,,,,,,,,,,,,,,,,
instruc_goal,7,46421,0.0-6.0-1.0,"""event"",""trial"",""time""
""blur"",""1"",""3637""
""focus"",""1"",""7087""
""fullscreenenter"",""1"",""7471""
""blur"",""2"",""13834""
""focus"",""2"",""18040""
","""event"",""trial"",""time""
""blur"",""1"",""3637""
""blur"",""2"",""13834""
","""event"",""trial"",""time""
""focus"",""1"",""7087""
""focus"",""2"",""18040""
","""event"",""trial"",""time""
""fullscreenenter"",""1"",""7471""
","
",,922.4,"<p> As a space explorer, you’ll visit different planets to dig for space treasure, these pink gems.</p> <p> The more treasure you dig up, the more bonus money you’ll win! </p><br><br><p><img src='run_exp/static/images/task_images/pink_gem.jpg' height='300' width='auto'></p>",,,,,,,1,,,,,,,,,,,,,,,,,,
html-keyboard-response,8,46468,0.0-6.0-2.0,"""event"",""trial"",""time""
""blur"",""1"",""3637""
""focus"",""1"",""7087""
""fullscreenenter"",""1"",""7471""
""blur"",""2"",""13834""
""focus"",""2"",""18040""
","""event"",""trial"",""time""
""blur"",""1"",""3637""
""blur"",""2"",""13834""
","""event"",""trial"",""time""
""focus"",""1"",""7087""
""focus"",""2"",""18040""
","""event"",""trial"",""time""
""fullscreenenter"",""1"",""7471""
","
",,45.3,"<p> As a space explorer, you’ll visit different planets to dig for space treasure, these pink gems.</p> <p> The more treasure you dig up, the more bonus money you’ll win! </p><br><br><p><img src='run_exp/static/images/task_images/pink_gem.jpg' height='300' width='auto'></p><button class=""jspsych-html-btn-unchosen""><img src=""run_exp/static/images/task_images/planet-01.jpg"" height=""50""></button><button class=""jspsych-html-btn-chosen""><img src=""run_exp/static/images/task_images/planet-02.jpg"" height=""50""></button><p><b>[press the space bar to lock in your answer]<b><br></p>",32,,,,,,,,,,,,,,,,,,,,,,,,
instruc_dig,9,62458,0.0-7.0-0.0,"""event"",""trial"",""time""
""blur"",""1"",""3637""
""focus"",""1"",""7087""
""fullscreenenter"",""1"",""7471""
""blur"",""2"",""13834""
""focus"",""2"",""18040""
","""event"",""trial"",""time""
""blur"",""1"",""3637""
""blur"",""2"",""13834""
","""event"",""trial"",""time""
""focus"",""1"",""7087""
""focus"",""2"",""18040""
","""event"",""trial"",""time""
""fullscreenenter"",""1"",""7471""
","
",,null,run_exp/static/audio/clip_4_dig.m4a,null,,,,,,,100,,,,,,,,,,,,,,,,,
instruc_dig_try,10,62463,0.0-7.0-1.0,"""event"",""trial"",""time""
""blur"",""1"",""3637""
""focus"",""1"",""7087""
""fullscreenenter"",""1"",""7471""
""blur"",""2"",""13834""
""focus"",""2"",""18040""
","""event"",""trial"",""time""
""blur"",""1"",""3637""
""blur"",""2"",""13834""
","""event"",""trial"",""time""
""focus"",""1"",""7087""
""focus"",""2"",""18040""
","""event"",""trial"",""time""
""fullscreenenter"",""1"",""7471""
","
",,3.799999997,"<p> When you’ve arrived at a new planet, you will dig once. </p> <p>Then, you get to decide if you want to stay on the planet and dig again or travel to a new planet and dig there.</p> <p> To stay and dig, press the letter <strong>‘A’</strong> on your keyboard. Try pressing it now! </p><p><img src='run_exp/static/images/task_images/land.jpg'  height='700' width='auto'></p>",65,"<p> When you’ve arrived at a new planet, you will dig once. </p> <p>Then, you get to decide if you want to stay on the planet and dig again or travel to a new planet and dig there.</p> <p> To stay and dig, press the letter <strong>‘A’</strong> on your keyboard. Try pressing it now! </p><p><img src='run_exp/static/images/task_images/land.jpg'  height='700' width='auto'></p>",,,,,,100,,,,,,,,,,,,,,,,,
dig_prac,11,64476,0.0-7.0-2.0,"""event"",""trial"",""time""
""blur"",""1"",""3637""
""focus"",""1"",""7087""
""fullscreenenter"",""1"",""7471""
""blur"",""2"",""13834""
""focus"",""2"",""18040""
""blur"",""12"",""83000""
""focus"",""12"",""90639""
","""event"",""trial"",""time""
""blur"",""1"",""3637""
""blur"",""2"",""13834""
""blur"",""12"",""83000""
","""event"",""trial"",""time""
""focus"",""1"",""7087""
""focus"",""2"",""18040""
""focus"",""12"",""90639""
","""event"",""trial"",""time""
""fullscreenenter"",""1"",""7471""
","
",,,,,,,,,,,,"[{""stimulus"":""run_exp/static/images/task_images/dig.jpg"",""time"":0.20000000298023224},{""stimulus"":""run_exp/static/images/task_images/land.jpg"",""time"":680.7000000029802},{""stimulus"":""run_exp/static/images/task_images/dig.jpg"",""time"":1340}]",[],,,,,,,,,,,,,,,
instruc_travel,12,100708,0.0-7.0-3.0,"""event"",""trial"",""time""
""blur"",""1"",""3637""
""focus"",""1"",""7087""
""fullscreenenter"",""1"",""7471""
""blur"",""2"",""13834""
""focus"",""2"",""18040""
""blur"",""12"",""83000""
""focus"",""12"",""90639""
","""event"",""trial"",""time""
""blur"",""1"",""3637""
""blur"",""2"",""13834""
""blur"",""12"",""83000""
","""event"",""trial"",""time""
""focus"",""1"",""7087""
""focus"",""2"",""18040""
""focus"",""12"",""90639""
","""event"",""trial"",""time""
""fullscreenenter"",""1"",""7471""
","
",,null,run_exp/static/audio/clip_5_travel.m4a,null,"<p>Every time you dig up gems, there are less gems on the planet, so the more you dig on a planet the fewer gems you’ll get with each dig.</p><p>When gems are running low, you may want to travel to a new planet. </p> <p>  Planets are very far apart in this galaxy, so it will take some time to travel between them. </p> <br><p>There are lots and lots of planets for you to visit, so you won’t be able to return to any planets you’ve seen before. </p><br><p>To leave this planet and travel to a new one, press the letter <strong>‘L’</strong> on your keyboard. Try pressing it now! </p><p><img src='run_exp/static/images/task_images/rocket-01.jpg'  height='600' width='auto'></p>",,,,,,,,,,,,,,,,,,,,,,,
instruc_travel_try,13,101328,0.0-7.0-4.0,"""event"",""trial"",""time""
""blur"",""1"",""3637""
""focus"",""1"",""7087""
""fullscreenenter"",""1"",""7471""
""blur"",""2"",""13834""
""focus"",""2"",""18040""
""blur"",""12"",""83000""
""focus"",""12"",""90639""
""blur"",""14"",""109560""
","""event"",""trial"",""time""
""blur"",""1"",""3637""
""blur"",""2"",""13834""
""blur"",""12"",""83000""
""blur"",""14"",""109560""
","""event"",""trial"",""time""
""focus"",""1"",""7087""
""focus"",""2"",""18040""
""focus"",""12"",""90639""
","""event"",""trial"",""time""
""fullscreenenter"",""1"",""7471""
","
",,618.7,"<p>Every time you dig up gems, there are less gems on the planet, so the more you dig on a planet the fewer gems you’ll get with each dig.</p><p>When gems are running low, you may want to travel to a new planet. </p> <p>  Planets are very far apart in this galaxy, so it will take some time to travel between them. </p> <br><p>There are lots and lots of planets for you to visit, so you won’t be able to return to any planets you’ve seen before. </p><br><p>To leave this planet and travel to a new one, press the letter <strong>‘L’</strong> on your keyboard. Try pressing it now! </p><p><img src='run_exp/static/images/task_images/rocket-01.jpg'  height='600' width='auto'></p>",76,"<p>Every time you dig up gems, there are less gems on the planet, so the more you dig on a planet the fewer gems you’ll get with each dig.</p><p>When gems are running low, you may want to travel to a new planet. </p> <p>  Planets are very far apart in this galaxy, so it will take some time to travel between them. </p> <br><p>There are lots and lots of planets for you to visit, so you won’t be able to return to any planets you’ve seen before. </p><br><p>To leave this planet and travel to a new one, press the letter <strong>‘L’</strong> on your keyboard. Try pressing it now! </p><p><img src='run_exp/static/images/task_images/rocket-01.jpg'  height='600' width='auto'></p>",,,,,,,,,,,,,,,,,,,,,,,
travel_prac,14,111335,0.0-7.0-5.0,"""event"",""trial"",""time""
""blur"",""1"",""3637""
""focus"",""1"",""7087""
""fullscreenenter"",""1"",""7471""
""blur"",""2"",""13834""
""focus"",""2"",""18040""
""blur"",""12"",""83000""
""focus"",""12"",""90639""
""blur"",""14"",""109560""
","""event"",""trial"",""time""
""blur"",""1"",""3637""
""blur"",""2"",""13834""
""blur"",""12"",""83000""
""blur"",""14"",""109560""
","""event"",""trial"",""time""
""focus"",""1"",""7087""
""focus"",""2"",""18040""
""focus"",""12"",""90639""
","""event"",""trial"",""time""
""fullscreenenter"",""1"",""7471""
","
",,,,,,,,,,,,"[{""stimulus"":""run_exp/static/images/task_images/rocket-01.jpg"",""time"":0.20000000298023224},{""stimulus"":""run_exp/static/images/task_images/rocket-02.jpg"",""time"":1116.2999999970198},{""stimulus"":""run_exp/static/images/task_images/rocket-03.jpg"",""time"":2229.7999999970198},{""stimulus"":""run_exp/static/images/task_images/rocket-04.jpg"",""time"":3340},{""stimulus"":""run_exp/static/images/task_images/rocket-05.jpg"",""time"":4453.79999999702},{""stimulus"":""run_exp/static/images/task_images/rocket-06.jpg"",""time"":5567.5},{""stimulus"":""run_exp/static/images/task_images/rocket-07.jpg"",""time"":6672.20000000298},{""stimulus"":""run_exp/static/images/task_images/rocket-08.jpg"",""time"":7780.29999999702},{""stimulus"":""run_exp/static/images/task_images/rocket-09.jpg"",""time"":8895.29999999702}]",[],0,,,,,,,,,,,,,,
instruc_alien_greet,15,138511,0.0-7.0-6.0,"""event"",""trial"",""time""
""blur"",""1"",""3637""
""focus"",""1"",""7087""
""fullscreenenter"",""1"",""7471""
""blur"",""2"",""13834""
""focus"",""2"",""18040""
""blur"",""12"",""83000""
""focus"",""12"",""90639""
""blur"",""14"",""109560""
""focus"",""16"",""140483""
","""event"",""trial"",""time""
""blur"",""1"",""3637""
""blur"",""2"",""13834""
""blur"",""12"",""83000""
""blur"",""14"",""109560""
","""event"",""trial"",""time""
""focus"",""1"",""7087""
""focus"",""2"",""18040""
""focus"",""12"",""90639""
""focus"",""16"",""140483""
","""event"",""trial"",""time""
""fullscreenenter"",""1"",""7471""
","
",,null,run_exp/static/audio/clip_6_alien.m4a,null,"<p>When you arrive at a new planet, the alien who owns the treasure mine on that planet will greet you!</p><p>The better an alien takes care of their mine the easier it is to dig for gems. Some aliens take better care of their mine than others. So, you won’t get exactly the same amount of gems on each planet.</p><p>What the alien looks like does not tell you anything about how many gems there are on the planet.</p><br><p><img src=""run_exp/static/images/task_images/aliens/instructions_aliens/planet/alien_planet-1.jpg""  height=""600"" width=""auto""></p>",,,,,,,,,,,,,,,,,,,,,,,
instruc_alien_greet,16,141340,0.0-7.0-7.0,"""event"",""trial"",""time""
""blur"",""1"",""3637""
""focus"",""1"",""7087""
""fullscreenenter"",""1"",""7471""
""blur"",""2"",""13834""
""focus"",""2"",""18040""
""blur"",""12"",""83000""
""focus"",""12"",""90639""
""blur"",""14"",""109560""
""focus"",""16"",""140483""
","""event"",""trial"",""time""
""blur"",""1"",""3637""
""blur"",""2"",""13834""
""blur"",""12"",""83000""
""blur"",""14"",""109560""
","""event"",""trial"",""time""
""focus"",""1"",""7087""
""focus"",""2"",""18040""
""focus"",""12"",""90639""
""focus"",""16"",""140483""
","""event"",""trial"",""time""
""fullscreenenter"",""1"",""7471""
","
",,2826.9,"<p>When you arrive at a new planet, the alien who owns the treasure mine on that planet will greet you!</p><p>The better an alien takes care of their mine the easier it is to dig for gems. Some aliens take better care of their mine than others. So, you won’t get exactly the same amount of gems on each planet.</p><p>What the alien looks like does not tell you anything about how many gems there are on the planet.</p><br><p><img src=""run_exp/static/images/task_images/aliens/instructions_aliens/planet/alien_planet-1.jpg""  height=""600"" width=""auto""></p>",,,,,,,1,,,,,,,,,,,,,,,,,,
html-keyboard-response,17,141398,0.0-7.0-8.0,"""event"",""trial"",""time""
""blur"",""1"",""3637""
""focus"",""1"",""7087""
""fullscreenenter"",""1"",""7471""
""blur"",""2"",""13834""
""focus"",""2"",""18040""
""blur"",""12"",""83000""
""focus"",""12"",""90639""
""blur"",""14"",""109560""
""focus"",""16"",""140483""
","""event"",""trial"",""time""
""blur"",""1"",""3637""
""blur"",""2"",""13834""
""blur"",""12"",""83000""
""blur"",""14"",""109560""
","""event"",""trial"",""time""
""focus"",""1"",""7087""
""focus"",""2"",""18040""
""focus"",""12"",""90639""
""focus"",""16"",""140483""
","""event"",""trial"",""time""
""fullscreenenter"",""1"",""7471""
","
",,57,"<p>When you arrive at a new planet, the alien who owns the treasure mine on that planet will greet you!</p><p>The better an alien takes care of their mine the easier it is to dig for gems. Some aliens take better care of their mine than others. So, you won’t get exactly the same amount of gems on each planet.</p><p>What the alien looks like does not tell you anything about how many gems there are on the planet.</p><br><p><img src=""run_exp/static/images/task_images/aliens/instructions_aliens/planet/alien_planet-1.jpg""  height=""600"" width=""auto""></p><button class=""jspsych-html-btn-unchosen""><img src=""run_exp/static/images/task_images/planet-01.jpg"" height=""50""></button><button class=""jspsych-html-btn-chosen""><img src=""run_exp/static/images/task_images/planet-02.jpg"" height=""50""></button><p><b>[press the space bar to lock in your answer]<b><br></p>",32,,,,,,,,,,,,,,,,,,,,,,,,
time_out,18,152463,0.0-8.0-0.0,"""event"",""trial"",""time""
""blur"",""1"",""3637""
""focus"",""1"",""7087""
""fullscreenenter"",""1"",""7471""
""blur"",""2"",""13834""
""focus"",""2"",""18040""
""blur"",""12"",""83000""
""focus"",""12"",""90639""
""blur"",""14"",""109560""
""focus"",""16"",""140483""
","""event"",""trial"",""time""
""blur"",""1"",""3637""
""blur"",""2"",""13834""
""blur"",""12"",""83000""
""blur"",""14"",""109560""
","""event"",""trial"",""time""
""focus"",""1"",""7087""
""focus"",""2"",""18040""
""focus"",""12"",""90639""
""focus"",""16"",""140483""
","""event"",""trial"",""time""
""fullscreenenter"",""1"",""7471""
","
",,null,run_exp/static/audio/clip_7_timeout.m4a,null,"<p>If you don't make your choice fast enough, you’ll have to wait a few seconds before you can make another one.</p><p>You can’t dig for more gems or travel to new planets. You just have to sit and wait.</p><br><p><img src='run_exp/static/images/task_images/time_out.jpg'  height='600' width='auto'></p>",,,,,,,,,,,,,,,,,,,,,,,
time_out,19,154282,0.0-8.0-1.0,"""event"",""trial"",""time""
""blur"",""1"",""3637""
""focus"",""1"",""7087""
""fullscreenenter"",""1"",""7471""
""blur"",""2"",""13834""
""focus"",""2"",""18040""
""blur"",""12"",""83000""
""focus"",""12"",""90639""
""blur"",""14"",""109560""
""focus"",""16"",""140483""
","""event"",""trial"",""time""
""blur"",""1"",""3637""
""blur"",""2"",""13834""
""blur"",""12"",""83000""
""blur"",""14"",""109560""
","""event"",""trial"",""time""
""focus"",""1"",""7087""
""focus"",""2"",""18040""
""focus"",""12"",""90639""
""focus"",""16"",""140483""
","""event"",""trial"",""time""
""fullscreenenter"",""1"",""7471""
","
",,1816.4,"<p>If you don't make your choice fast enough, you’ll have to wait a few seconds before you can make another one.</p><p>You can’t dig for more gems or travel to new planets. You just have to sit and wait.</p><br><p><img src='run_exp/static/images/task_images/time_out.jpg'  height='600' width='auto'></p>",,,,,,,1,,,,,,,,,,,,,,,,,,
html-keyboard-response,20,154318,0.0-8.0-2.0,"""event"",""trial"",""time""
""blur"",""1"",""3637""
""focus"",""1"",""7087""
""fullscreenenter"",""1"",""7471""
""blur"",""2"",""13834""
""focus"",""2"",""18040""
""blur"",""12"",""83000""
""focus"",""12"",""90639""
""blur"",""14"",""109560""
""focus"",""16"",""140483""
","""event"",""trial"",""time""
""blur"",""1"",""3637""
""blur"",""2"",""13834""
""blur"",""12"",""83000""
""blur"",""14"",""109560""
","""event"",""trial"",""time""
""focus"",""1"",""7087""
""focus"",""2"",""18040""
""focus"",""12"",""90639""
""focus"",""16"",""140483""
","""event"",""trial"",""time""
""fullscreenenter"",""1"",""7471""
","
",,35.2,"<p>If you don't make your choice fast enough, you’ll have to wait a few seconds before you can make another one.</p><p>You can’t dig for more gems or travel to new planets. You just have to sit and wait.</p><br><p><img src='run_exp/static/images/task_images/time_out.jpg'  height='600' width='auto'></p><button class=""jspsych-html-btn-unchosen""><img src=""run_exp/static/images/task_images/planet-01.jpg"" height=""50""></button><button class=""jspsych-html-btn-chosen""><img src=""run_exp/static/images/task_images/planet-02.jpg"" height=""50""></button><p><b>[press the space bar to lock in your answer]<b><br></p>",32,,,,,,,,,,,,,,,,,,,,,,,,
instruc_break,21,169977,0.0-9.0-0.0,"""event"",""trial"",""time""
""blur"",""1"",""3637""
""focus"",""1"",""7087""
""fullscreenenter"",""1"",""7471""
""blur"",""2"",""13834""
""focus"",""2"",""18040""
""blur"",""12"",""83000""
""focus"",""12"",""90639""
""blur"",""14"",""109560""
""focus"",""16"",""140483""
","""event"",""trial"",""time""
""blur"",""1"",""3637""
""blur"",""2"",""13834""
""blur"",""12"",""83000""
""blur"",""14"",""109560""
","""event"",""trial"",""time""
""focus"",""1"",""7087""
""focus"",""2"",""18040""
""focus"",""12"",""90639""
""focus"",""16"",""140483""
","""event"",""trial"",""time""
""fullscreenenter"",""1"",""7471""
","
",,null,run_exp/static/audio/clip_8_break.m4a,null,"<p> After digging and traveling for a while, you’ll be able to take a break at home base. </p><p>The game will last 20 minutes no matter what.</p><p>You will visit home base every 5 minutes, so, you will visit home base three times during the game.</p><br><p><img src='run_exp/static/images/task_images/home_base.jpg' height='600' width='auto'></p>",,,,,,,,,,,,,,,,,,,,,,,
instruc_break,22,170886,0.0-9.0-1.0,"""event"",""trial"",""time""
""blur"",""1"",""3637""
""focus"",""1"",""7087""
""fullscreenenter"",""1"",""7471""
""blur"",""2"",""13834""
""focus"",""2"",""18040""
""blur"",""12"",""83000""
""focus"",""12"",""90639""
""blur"",""14"",""109560""
""focus"",""16"",""140483""
","""event"",""trial"",""time""
""blur"",""1"",""3637""
""blur"",""2"",""13834""
""blur"",""12"",""83000""
""blur"",""14"",""109560""
","""event"",""trial"",""time""
""focus"",""1"",""7087""
""focus"",""2"",""18040""
""focus"",""12"",""90639""
""focus"",""16"",""140483""
","""event"",""trial"",""time""
""fullscreenenter"",""1"",""7471""
","
",,906.2,"<p> After digging and traveling for a while, you’ll be able to take a break at home base. </p><p>The game will last 20 minutes no matter what.</p><p>You will visit home base every 5 minutes, so, you will visit home base three times during the game.</p><br><p><img src='run_exp/static/images/task_images/home_base.jpg' height='600' width='auto'></p>",,,,,,,1,,,,,,,,,,,,,,,,,,
html-keyboard-response,23,170969,0.0-9.0-2.0,"""event"",""trial"",""time""
""blur"",""1"",""3637""
""focus"",""1"",""7087""
""fullscreenenter"",""1"",""7471""
""blur"",""2"",""13834""
""focus"",""2"",""18040""
""blur"",""12"",""83000""
""focus"",""12"",""90639""
""blur"",""14"",""109560""
""focus"",""16"",""140483""
","""event"",""trial"",""time""
""blur"",""1"",""3637""
""blur"",""2"",""13834""
""blur"",""12"",""83000""
""blur"",""14"",""109560""
","""event"",""trial"",""time""
""focus"",""1"",""7087""
""focus"",""2"",""18040""
""focus"",""12"",""90639""
""focus"",""16"",""140483""
","""event"",""trial"",""time""
""fullscreenenter"",""1"",""7471""
","
",,81.19999999,"<p> After digging and traveling for a while, you’ll be able to take a break at home base. </p><p>The game will last 20 minutes no matter what.</p><p>You will visit home base every 5 minutes, so, you will visit home base three times during the game.</p><br><p><img src='run_exp/static/images/task_images/home_base.jpg' height='600' width='auto'></p><button class=""jspsych-html-btn-unchosen""><img src=""run_exp/static/images/task_images/planet-01.jpg"" height=""50""></button><button class=""jspsych-html-btn-chosen""><img src=""run_exp/static/images/task_images/planet-02.jpg"" height=""50""></button><p><b>[press the space bar to lock in your answer]<b><br></p>",32,,,,,,,,,,,,,,,,,,,,,,,,
instruc_prac_game,24,181071,0.0-10.0-0.0,"""event"",""trial"",""time""
""blur"",""1"",""3637""
""focus"",""1"",""7087""
""fullscreenenter"",""1"",""7471""
""blur"",""2"",""13834""
""focus"",""2"",""18040""
""blur"",""12"",""83000""
""focus"",""12"",""90639""
""blur"",""14"",""109560""
""focus"",""16"",""140483""
","""event"",""trial"",""time""
""blur"",""1"",""3637""
""blur"",""2"",""13834""
""blur"",""12"",""83000""
""blur"",""14"",""109560""
","""event"",""trial"",""time""
""focus"",""1"",""7087""
""focus"",""2"",""18040""
""focus"",""12"",""90639""
""focus"",""16"",""140483""
","""event"",""trial"",""time""
""fullscreenenter"",""1"",""7471""
","
",,null,run_exp/static/audio/clip_9_practice.m4a,null,"<p> Are you ready to play a practice game? </p> <p>In this practice game, you'll be digging up barrels of gems. But, in the real game, you'll be digging up the gems themselves. </p>",,,,,,,,,,,,,,,,,,,,,,,
html-button-response,25,183460,0.0-10.0-1.0,"""event"",""trial"",""time""
""blur"",""1"",""3637""
""focus"",""1"",""7087""
""fullscreenenter"",""1"",""7471""
""blur"",""2"",""13834""
""focus"",""2"",""18040""
""blur"",""12"",""83000""
""focus"",""12"",""90639""
""blur"",""14"",""109560""
""focus"",""16"",""140483""
","""event"",""trial"",""time""
""blur"",""1"",""3637""
""blur"",""2"",""13834""
""blur"",""12"",""83000""
""blur"",""14"",""109560""
","""event"",""trial"",""time""
""focus"",""1"",""7087""
""focus"",""2"",""18040""
""focus"",""12"",""90639""
""focus"",""16"",""140483""
","""event"",""trial"",""time""
""fullscreenenter"",""1"",""7471""
","
",,2387.9,"<p> Are you ready to play a practice game? </p> <p>In this practice game, you'll be digging up barrels of gems. But, in the real game, you'll be digging up the gems themselves. </p>",,,,,,,0,,,,,,,,,,,,,,,,,,
alien_welcome_prac,26,188467,0.0-11.0-0.0,"""event"",""trial"",""time""
""blur"",""1"",""3637""
""focus"",""1"",""7087""
""fullscreenenter"",""1"",""7471""
""blur"",""2"",""13834""
""focus"",""2"",""18040""
""blur"",""12"",""83000""
""focus"",""12"",""90639""
""blur"",""14"",""109560""
""focus"",""16"",""140483""
","""event"",""trial"",""time""
""blur"",""1"",""3637""
""blur"",""2"",""13834""
""blur"",""12"",""83000""
""blur"",""14"",""109560""
","""event"",""trial"",""time""
""focus"",""1"",""7087""
""focus"",""2"",""18040""
""focus"",""12"",""90639""
""focus"",""16"",""140483""
","""event"",""trial"",""time""
""fullscreenenter"",""1"",""7471""
","
",,null,run_exp/static/images/task_images/aliens/practice_aliens/planet/alien_planet-5.jpg,null,,,,,,,,,,,,,,,,,,,,,,,,
land_prac,27,188969,0.0-11.0-1.0,"""event"",""trial"",""time""
""blur"",""1"",""3637""
""focus"",""1"",""7087""
""fullscreenenter"",""1"",""7471""
""blur"",""2"",""13834""
""focus"",""2"",""18040""
""blur"",""12"",""83000""
""focus"",""12"",""90639""
""blur"",""14"",""109560""
""focus"",""16"",""140483""
","""event"",""trial"",""time""
""blur"",""1"",""3637""
""blur"",""2"",""13834""
""blur"",""12"",""83000""
""blur"",""14"",""109560""
","""event"",""trial"",""time""
""focus"",""1"",""7087""
""focus"",""2"",""18040""
""focus"",""12"",""90639""
""focus"",""16"",""140483""
","""event"",""trial"",""time""
""fullscreenenter"",""1"",""7471""
","
",,null,run_exp/static/images/task_images/land.jpg,null,,,,,,,85,,,0,,,,,,,,,,,,,,
dig_prac,28,190979,0.0-11.0-2.0,"""event"",""trial"",""time""
""blur"",""1"",""3637""
""focus"",""1"",""7087""
""fullscreenenter"",""1"",""7471""
""blur"",""2"",""13834""
""focus"",""2"",""18040""
""blur"",""12"",""83000""
""focus"",""12"",""90639""
""blur"",""14"",""109560""
""focus"",""16"",""140483""
","""event"",""trial"",""time""
""blur"",""1"",""3637""
""blur"",""2"",""13834""
""blur"",""12"",""83000""
""blur"",""14"",""109560""
","""event"",""trial"",""time""
""focus"",""1"",""7087""
""focus"",""2"",""18040""
""focus"",""12"",""90639""
""focus"",""16"",""140483""
","""event"",""trial"",""time""
""fullscreenenter"",""1"",""7471""
","
",,,,,,,,,,,,"[{""stimulus"":""run_exp/static/images/task_images/dig.jpg"",""time"":0.29999999701976776},{""stimulus"":""run_exp/static/images/task_images/land.jpg"",""time"":669.1999999880791},{""stimulus"":""run_exp/static/images/task_images/dig.jpg"",""time"":1341.5}]",[],,,,,,,,,,,,,,,
harvest_prac,29,191983,0.0-11.0-3.0,"""event"",""trial"",""time""
""blur"",""1"",""3637""
""focus"",""1"",""7087""
""fullscreenenter"",""1"",""7471""
""blur"",""2"",""13834""
""focus"",""2"",""18040""
""blur"",""12"",""83000""
""focus"",""12"",""90639""
""blur"",""14"",""109560""
""focus"",""16"",""140483""
","""event"",""trial"",""time""
""blur"",""1"",""3637""
""blur"",""2"",""13834""
""blur"",""12"",""83000""
""blur"",""14"",""109560""
","""event"",""trial"",""time""
""focus"",""1"",""7087""
""focus"",""2"",""18040""
""focus"",""12"",""90639""
""focus"",""16"",""140483""
","""event"",""trial"",""time""
""fullscreenenter"",""1"",""7471""
","
",,null,run_exp/static/images/task_images/barrel_text.jpg,null,,,,,,,,,,,,,,,,,,,,,,,,
decision_prac,30,192444,0.0-11.0-4.0,"""event"",""trial"",""time""
""blur"",""1"",""3637""
""focus"",""1"",""7087""
""fullscreenenter"",""1"",""7471""
""blur"",""2"",""13834""
""focus"",""2"",""18040""
""blur"",""12"",""83000""
""focus"",""12"",""90639""
""blur"",""14"",""109560""
""focus"",""16"",""140483""
","""event"",""trial"",""time""
""blur"",""1"",""3637""
""blur"",""2"",""13834""
""blur"",""12"",""83000""
""blur"",""14"",""109560""
","""event"",""trial"",""time""
""focus"",""1"",""7087""
""focus"",""2"",""18040""
""focus"",""12"",""90639""
""focus"",""16"",""140483""
","""event"",""trial"",""time""
""fullscreenenter"",""1"",""7471""
","
",,458.8,run_exp/static/images/task_images/land.jpg,65,,,,,,,,,,,1,,,,,,,,,,,,,
dig_prac,31,194457,0.0-12.0-0.0,"""event"",""trial"",""time""
""blur"",""1"",""3637""
""focus"",""1"",""7087""
""fullscreenenter"",""1"",""7471""
""blur"",""2"",""13834""
""focus"",""2"",""18040""
""blur"",""12"",""83000""
""focus"",""12"",""90639""
""blur"",""14"",""109560""
""focus"",""16"",""140483""
","""event"",""trial"",""time""
""blur"",""1"",""3637""
""blur"",""2"",""13834""
""blur"",""12"",""83000""
""blur"",""14"",""109560""
","""event"",""trial"",""time""
""focus"",""1"",""7087""
""focus"",""2"",""18040""
""focus"",""12"",""90639""
""focus"",""16"",""140483""
","""event"",""trial"",""time""
""fullscreenenter"",""1"",""7471""
","
",,,,,,,,,,,,"[{""stimulus"":""run_exp/static/images/task_images/dig.jpg"",""time"":0.20000000298023224},{""stimulus"":""run_exp/static/images/task_images/land.jpg"",""time"":672.5},{""stimulus"":""run_exp/static/images/task_images/dig.jpg"",""time"":1337.7999999970198}]",[],,,,,,,,,,,,,,,
harvest_prac,32,195468,0.0-12.0-1.0,"""event"",""trial"",""time""
""blur"",""1"",""3637""
""focus"",""1"",""7087""
""fullscreenenter"",""1"",""7471""
""blur"",""2"",""13834""
""focus"",""2"",""18040""
""blur"",""12"",""83000""
""focus"",""12"",""90639""
""blur"",""14"",""109560""
""focus"",""16"",""140483""
","""event"",""trial"",""time""
""blur"",""1"",""3637""
""blur"",""2"",""13834""
""blur"",""12"",""83000""
""blur"",""14"",""109560""
","""event"",""trial"",""time""
""focus"",""1"",""7087""
""focus"",""2"",""18040""
""focus"",""12"",""90639""
""focus"",""16"",""140483""
","""event"",""trial"",""time""
""fullscreenenter"",""1"",""7471""
","
",,null,run_exp/static/images/task_images/barrel_text.jpg,null,,,,,,,,,,,,,,,,,,,,,,,,
decision_prac,33,195942,0.0-12.0-2.0,"""event"",""trial"",""time""
""blur"",""1"",""3637""
""focus"",""1"",""7087""
""fullscreenenter"",""1"",""7471""
""blur"",""2"",""13834""
""focus"",""2"",""18040""
""blur"",""12"",""83000""
""focus"",""12"",""90639""
""blur"",""14"",""109560""
""focus"",""16"",""140483""
","""event"",""trial"",""time""
""blur"",""1"",""3637""
""blur"",""2"",""13834""
""blur"",""12"",""83000""
""blur"",""14"",""109560""
","""event"",""trial"",""time""
""focus"",""1"",""7087""
""focus"",""2"",""18040""
""focus"",""12"",""90639""
""focus"",""16"",""140483""
","""event"",""trial"",""time""
""fullscreenenter"",""1"",""7471""
","
",,472.2,run_exp/static/images/task_images/land.jpg,65,,,,,,,,,,,2,,,,,,,,,,,,,
dig_prac,34,197952,0.0-13.0-0.0,"""event"",""trial"",""time""
""blur"",""1"",""3637""
""focus"",""1"",""7087""
""fullscreenenter"",""1"",""7471""
""blur"",""2"",""13834""
""focus"",""2"",""18040""
""blur"",""12"",""83000""
""focus"",""12"",""90639""
""blur"",""14"",""109560""
""focus"",""16"",""140483""
","""event"",""trial"",""time""
""blur"",""1"",""3637""
""blur"",""2"",""13834""
""blur"",""12"",""83000""
""blur"",""14"",""109560""
","""event"",""trial"",""time""
""focus"",""1"",""7087""
""focus"",""2"",""18040""
""focus"",""12"",""90639""
""focus"",""16"",""140483""
","""event"",""trial"",""time""
""fullscreenenter"",""1"",""7471""
","
",,,,,,,,,,,,"[{""stimulus"":""run_exp/static/images/task_images/dig.jpg"",""time"":0.20000000298023224},{""stimulus"":""run_exp/static/images/task_images/land.jpg"",""time"":671.2000000029802},{""stimulus"":""run_exp/static/images/task_images/dig.jpg"",""time"":1335.2999999970198}]",[],,,,,,,,,,,,,,,
harvest_prac,35,198961,0.0-13.0-1.0,"""event"",""trial"",""time""
""blur"",""1"",""3637""
""focus"",""1"",""7087""
""fullscreenenter"",""1"",""7471""
""blur"",""2"",""13834""
""focus"",""2"",""18040""
""blur"",""12"",""83000""
""focus"",""12"",""90639""
""blur"",""14"",""109560""
""focus"",""16"",""140483""
","""event"",""trial"",""time""
""blur"",""1"",""3637""
""blur"",""2"",""13834""
""blur"",""12"",""83000""
""blur"",""14"",""109560""
","""event"",""trial"",""time""
""focus"",""1"",""7087""
""focus"",""2"",""18040""
""focus"",""12"",""90639""
""focus"",""16"",""140483""
","""event"",""trial"",""time""
""fullscreenenter"",""1"",""7471""
","
",,null,run_exp/static/images/task_images/barrel_text.jpg,null,,,,,,,,,,,,,,,,,,,,,,,,
decision_prac,36,199229,0.0-13.0-2.0,"""event"",""trial"",""time""
""blur"",""1"",""3637""
""focus"",""1"",""7087""
""fullscreenenter"",""1"",""7471""
""blur"",""2"",""13834""
""focus"",""2"",""18040""
""blur"",""12"",""83000""
""focus"",""12"",""90639""
""blur"",""14"",""109560""
""focus"",""16"",""140483""
","""event"",""trial"",""time""
""blur"",""1"",""3637""
""blur"",""2"",""13834""
""blur"",""12"",""83000""
""blur"",""14"",""109560""
","""event"",""trial"",""time""
""focus"",""1"",""7087""
""focus"",""2"",""18040""
""focus"",""12"",""90639""
""focus"",""16"",""140483""
","""event"",""trial"",""time""
""fullscreenenter"",""1"",""7471""
","
",,266.1,run_exp/static/images/task_images/land.jpg,65,,,,,,,,,,,3,,,,,,,,,,,,,
dig_prac,37,201242,0.0-14.0-0.0,"""event"",""trial"",""time""
""blur"",""1"",""3637""
""focus"",""1"",""7087""
""fullscreenenter"",""1"",""7471""
""blur"",""2"",""13834""
""focus"",""2"",""18040""
""blur"",""12"",""83000""
""focus"",""12"",""90639""
""blur"",""14"",""109560""
""focus"",""16"",""140483""
","""event"",""trial"",""time""
""blur"",""1"",""3637""
""blur"",""2"",""13834""
""blur"",""12"",""83000""
""blur"",""14"",""109560""
","""event"",""trial"",""time""
""focus"",""1"",""7087""
""focus"",""2"",""18040""
""focus"",""12"",""90639""
""focus"",""16"",""140483""
","""event"",""trial"",""time""
""fullscreenenter"",""1"",""7471""
","
",,,,,,,,,,,,"[{""stimulus"":""run_exp/static/images/task_images/dig.jpg"",""time"":0.20000000298023224},{""stimulus"":""run_exp/static/images/task_images/land.jpg"",""time"":672.2000000029802},{""stimulus"":""run_exp/static/images/task_images/dig.jpg"",""time"":1336.7000000029802}]",[],,,,,,,,,,,,,,,
harvest_prac,38,202251,0.0-14.0-1.0,"""event"",""trial"",""time""
""blur"",""1"",""3637""
""focus"",""1"",""7087""
""fullscreenenter"",""1"",""7471""
""blur"",""2"",""13834""
""focus"",""2"",""18040""
""blur"",""12"",""83000""
""focus"",""12"",""90639""
""blur"",""14"",""109560""
""focus"",""16"",""140483""
","""event"",""trial"",""time""
""blur"",""1"",""3637""
""blur"",""2"",""13834""
""blur"",""12"",""83000""
""blur"",""14"",""109560""
","""event"",""trial"",""time""
""focus"",""1"",""7087""
""focus"",""2"",""18040""
""focus"",""12"",""90639""
""focus"",""16"",""140483""
","""event"",""trial"",""time""
""fullscreenenter"",""1"",""7471""
","
",,null,run_exp/static/images/task_images/barrel_text.jpg,null,,,,,,,,,,,,,,,,,,,,,,,,
decision_prac,39,202371,0.0-14.0-2.0,"""event"",""trial"",""time""
""blur"",""1"",""3637""
""focus"",""1"",""7087""
""fullscreenenter"",""1"",""7471""
""blur"",""2"",""13834""
""focus"",""2"",""18040""
""blur"",""12"",""83000""
""focus"",""12"",""90639""
""blur"",""14"",""109560""
""focus"",""16"",""140483""
","""event"",""trial"",""time""
""blur"",""1"",""3637""
""blur"",""2"",""13834""
""blur"",""12"",""83000""
""blur"",""14"",""109560""
","""event"",""trial"",""time""
""focus"",""1"",""7087""
""focus"",""2"",""18040""
""focus"",""12"",""90639""
""focus"",""16"",""140483""
","""event"",""trial"",""time""
""fullscreenenter"",""1"",""7471""
","
",,118.7,run_exp/static/images/task_images/land.jpg,65,,,,,,,,,,,4,,,,,,,,,,,,,
dig_prac,40,204377,0.0-15.0-0.0,"""event"",""trial"",""time""
""blur"",""1"",""3637""
""focus"",""1"",""7087""
""fullscreenenter"",""1"",""7471""
""blur"",""2"",""13834""
""focus"",""2"",""18040""
""blur"",""12"",""83000""
""focus"",""12"",""90639""
""blur"",""14"",""109560""
""focus"",""16"",""140483""
","""event"",""trial"",""time""
""blur"",""1"",""3637""
""blur"",""2"",""13834""
""blur"",""12"",""83000""
""blur"",""14"",""109560""
","""event"",""trial"",""time""
""focus"",""1"",""7087""
""focus"",""2"",""18040""
""focus"",""12"",""90639""
""focus"",""16"",""140483""
","""event"",""trial"",""time""
""fullscreenenter"",""1"",""7471""
","
",,,,,,,,,,,,"[{""stimulus"":""run_exp/static/images/task_images/dig.jpg"",""time"":0.20000000298023224},{""stimulus"":""run_exp/static/images/task_images/land.jpg"",""time"":677.7999999970198},{""stimulus"":""run_exp/static/images/task_images/dig.jpg"",""time"":1338.5999999940395}]",[],,,,,,,,,,,,,,,
harvest_prac,41,205384,0.0-15.0-1.0,"""event"",""trial"",""time""
""blur"",""1"",""3637""
""focus"",""1"",""7087""
""fullscreenenter"",""1"",""7471""
""blur"",""2"",""13834""
""focus"",""2"",""18040""
""blur"",""12"",""83000""
""focus"",""12"",""90639""
""blur"",""14"",""109560""
""focus"",""16"",""140483""
","""event"",""trial"",""time""
""blur"",""1"",""3637""
""blur"",""2"",""13834""
""blur"",""12"",""83000""
""blur"",""14"",""109560""
","""event"",""trial"",""time""
""focus"",""1"",""7087""
""focus"",""2"",""18040""
""focus"",""12"",""90639""
""focus"",""16"",""140483""
","""event"",""trial"",""time""
""fullscreenenter"",""1"",""7471""
","
",,null,run_exp/static/images/task_images/barrel_text.jpg,null,,,,,,,,,,,,,,,,,,,,,,,,
decision_prac,42,205627,0.0-15.0-2.0,"""event"",""trial"",""time""
""blur"",""1"",""3637""
""focus"",""1"",""7087""
""fullscreenenter"",""1"",""7471""
""blur"",""2"",""13834""
""focus"",""2"",""18040""
""blur"",""12"",""83000""
""focus"",""12"",""90639""
""blur"",""14"",""109560""
""focus"",""16"",""140483""
","""event"",""trial"",""time""
""blur"",""1"",""3637""
""blur"",""2"",""13834""
""blur"",""12"",""83000""
""blur"",""14"",""109560""
","""event"",""trial"",""time""
""focus"",""1"",""7087""
""focus"",""2"",""18040""
""focus"",""12"",""90639""
""focus"",""16"",""140483""
","""event"",""trial"",""time""
""fullscreenenter"",""1"",""7471""
","
",,241.8,run_exp/static/images/task_images/land.jpg,65,,,,,,,,,,,,1,,,,,,,,,,,,
quiz_instruc,43,208734,0.0-16.0-0.0,"""event"",""trial"",""time""
""blur"",""1"",""3637""
""focus"",""1"",""7087""
""fullscreenenter"",""1"",""7471""
""blur"",""2"",""13834""
""focus"",""2"",""18040""
""blur"",""12"",""83000""
""focus"",""12"",""90639""
""blur"",""14"",""109560""
""focus"",""16"",""140483""
","""event"",""trial"",""time""
""blur"",""1"",""3637""
""blur"",""2"",""13834""
""blur"",""12"",""83000""
""blur"",""14"",""109560""
","""event"",""trial"",""time""
""focus"",""1"",""7087""
""focus"",""2"",""18040""
""focus"",""12"",""90639""
""focus"",""16"",""140483""
","""event"",""trial"",""time""
""fullscreenenter"",""1"",""7471""
","
",,3104.1,run_exp/static/audio/clip_10_quiz.m4a,,,,,,,0,,,,,,,,,,,,,,,,,,
instruc_repeat,44,251492,0.0-16.0-1.0,"""event"",""trial"",""time""
""blur"",""1"",""3637""
""focus"",""1"",""7087""
""fullscreenenter"",""1"",""7471""
""blur"",""2"",""13834""
""focus"",""2"",""18040""
""blur"",""12"",""83000""
""focus"",""12"",""90639""
""blur"",""14"",""109560""
""focus"",""16"",""140483""
","""event"",""trial"",""time""
""blur"",""1"",""3637""
""blur"",""2"",""13834""
""blur"",""12"",""83000""
""blur"",""14"",""109560""
","""event"",""trial"",""time""
""focus"",""1"",""7087""
""focus"",""2"",""18040""
""focus"",""12"",""90639""
""focus"",""16"",""140483""
","""event"",""trial"",""time""
""fullscreenenter"",""1"",""7471""
","
",,null,"<p> Are you ready to play a practice game? </p> <p>In this practice game, you'll be digging up barrels of gems. But, in the real game, you'll be digging up the gems themselves. </p>",null,"<p>In this game, your goal is to collect as many gems as you can. That’s how you will win bonus money. </p> <p>The entire game will last 20 minutes no matter how many gems you collect or how many planets you visit. </p><p>To stay on a planet and dig again, press the letter A on your keyboard. To leave for a new planet, press the letter L.</p><p>The more you dig on a planet, the fewer gems you’ll get with each dig which is why you might consider leaving for a new planet. </p><p>When you arrive at a new planet, you’ll be greeted by an alien. What the alien looks like does not tell you anything about how much treasure is on the planet. </p>",,,,,,,,,,,,,,,,,,,,,,,
instruc_repeat_continue,45,252818,0.0-16.0-2.0,"""event"",""trial"",""time""
""blur"",""1"",""3637""
""focus"",""1"",""7087""
""fullscreenenter"",""1"",""7471""
""blur"",""2"",""13834""
""focus"",""2"",""18040""
""blur"",""12"",""83000""
""focus"",""12"",""90639""
""blur"",""14"",""109560""
""focus"",""16"",""140483""
","""event"",""trial"",""time""
""blur"",""1"",""3637""
""blur"",""2"",""13834""
""blur"",""12"",""83000""
""blur"",""14"",""109560""
","""event"",""trial"",""time""
""focus"",""1"",""7087""
""focus"",""2"",""18040""
""focus"",""12"",""90639""
""focus"",""16"",""140483""
","""event"",""trial"",""time""
""fullscreenenter"",""1"",""7471""
","
",,1325.1,"<p> Are you ready to play a practice game? </p> <p>In this practice game, you'll be digging up barrels of gems. But, in the real game, you'll be digging up the gems themselves. </p>",,,,,,,0,,,,,,,,,,,,,,,,,,
quiz_q_1_ask,46,255221,0.0-16.0-3.0,"""event"",""trial"",""time""
""blur"",""1"",""3637""
""focus"",""1"",""7087""
""fullscreenenter"",""1"",""7471""
""blur"",""2"",""13834""
""focus"",""2"",""18040""
""blur"",""12"",""83000""
""focus"",""12"",""90639""
""blur"",""14"",""109560""
""focus"",""16"",""140483""
","""event"",""trial"",""time""
""blur"",""1"",""3637""
""blur"",""2"",""13834""
""blur"",""12"",""83000""
""blur"",""14"",""109560""
","""event"",""trial"",""time""
""focus"",""1"",""7087""
""focus"",""2"",""18040""
""focus"",""12"",""90639""
""focus"",""16"",""140483""
","""event"",""trial"",""time""
""fullscreenenter"",""1"",""7471""
","
",,2401.1,run_exp/static/audio/clip_11_q1_ask.m4a,,,,,,,2,,,,,,,,,,,,,,,,,,
quiz_q_1_fb_correct,47,259065,0.0-17.0-0.0,"""event"",""trial"",""time""
""blur"",""1"",""3637""
""focus"",""1"",""7087""
""fullscreenenter"",""1"",""7471""
""blur"",""2"",""13834""
""focus"",""2"",""18040""
""blur"",""12"",""83000""
""focus"",""12"",""90639""
""blur"",""14"",""109560""
""focus"",""16"",""140483""
","""event"",""trial"",""time""
""blur"",""1"",""3637""
""blur"",""2"",""13834""
""blur"",""12"",""83000""
""blur"",""14"",""109560""
","""event"",""trial"",""time""
""focus"",""1"",""7087""
""focus"",""2"",""18040""
""focus"",""12"",""90639""
""focus"",""16"",""140483""
","""event"",""trial"",""time""
""fullscreenenter"",""1"",""7471""
","
",,null,run_exp/static/audio/clip_12_q1_correct.m4a,null,<p>That’s correct. You win extra money by collecting more gems.</p>,,,,,,,,,,,,,,,,,,,,,,,
quiz_q_2_ask,48,260610,0.0-17.0-1.0,"""event"",""trial"",""time""
""blur"",""1"",""3637""
""focus"",""1"",""7087""
""fullscreenenter"",""1"",""7471""
""blur"",""2"",""13834""
""focus"",""2"",""18040""
""blur"",""12"",""83000""
""focus"",""12"",""90639""
""blur"",""14"",""109560""
""focus"",""16"",""140483""
","""event"",""trial"",""time""
""blur"",""1"",""3637""
""blur"",""2"",""13834""
""blur"",""12"",""83000""
""blur"",""14"",""109560""
","""event"",""trial"",""time""
""focus"",""1"",""7087""
""focus"",""2"",""18040""
""focus"",""12"",""90639""
""focus"",""16"",""140483""
","""event"",""trial"",""time""
""fullscreenenter"",""1"",""7471""
","
",,1543.4,run_exp/static/audio/clip_14_q2_ask.m4a,,,,,,,1,,,,,,,,,,,,,,,,,,
quiz_q_2_fb_correct,49,264612,0.0-18.0-0.0,"""event"",""trial"",""time""
""blur"",""1"",""3637""
""focus"",""1"",""7087""
""fullscreenenter"",""1"",""7471""
""blur"",""2"",""13834""
""focus"",""2"",""18040""
""blur"",""12"",""83000""
""focus"",""12"",""90639""
""blur"",""14"",""109560""
""focus"",""16"",""140483""
","""event"",""trial"",""time""
""blur"",""1"",""3637""
""blur"",""2"",""13834""
""blur"",""12"",""83000""
""blur"",""14"",""109560""
","""event"",""trial"",""time""
""focus"",""1"",""7087""
""focus"",""2"",""18040""
""focus"",""12"",""90639""
""focus"",""16"",""140483""
","""event"",""trial"",""time""
""fullscreenenter"",""1"",""7471""
","
",,null,run_exp/static/audio/clip_15_q2_correct.m4a,null,<p>That’s correct. The experiment is 20 minutes no matter what.</p>,,,,,,,,,,,,,,,,,,,,,,,
quiz_q_3_ask,50,266670,0.0-18.0-1.0,"""event"",""trial"",""time""
""blur"",""1"",""3637""
""focus"",""1"",""7087""
""fullscreenenter"",""1"",""7471""
""blur"",""2"",""13834""
""focus"",""2"",""18040""
""blur"",""12"",""83000""
""focus"",""12"",""90639""
""blur"",""14"",""109560""
""focus"",""16"",""140483""
","""event"",""trial"",""time""
""blur"",""1"",""3637""
""blur"",""2"",""13834""
""blur"",""12"",""83000""
""blur"",""14"",""109560""
","""event"",""trial"",""time""
""focus"",""1"",""7087""
""focus"",""2"",""18040""
""focus"",""12"",""90639""
""focus"",""16"",""140483""
","""event"",""trial"",""time""
""fullscreenenter"",""1"",""7471""
","
",,2057.1,run_exp/static/audio/clip_17_q3_ask.m4a,,,,,,,1,,,,,,,,,,,,,,,,,,
quiz_q_3_fb_correct,51,270649,0.0-19.0-0.0,"""event"",""trial"",""time""
""blur"",""1"",""3637""
""focus"",""1"",""7087""
""fullscreenenter"",""1"",""7471""
""blur"",""2"",""13834""
""focus"",""2"",""18040""
""blur"",""12"",""83000""
""focus"",""12"",""90639""
""blur"",""14"",""109560""
""focus"",""16"",""140483""
","""event"",""trial"",""time""
""blur"",""1"",""3637""
""blur"",""2"",""13834""
""blur"",""12"",""83000""
""blur"",""14"",""109560""
","""event"",""trial"",""time""
""focus"",""1"",""7087""
""focus"",""2"",""18040""
""focus"",""12"",""90639""
""focus"",""16"",""140483""
","""event"",""trial"",""time""
""fullscreenenter"",""1"",""7471""
","
",,null,run_exp/static/audio/clip_18_q3_correct.m4a,null,<p> That’s correct. You press the letter L to travel to a new planet.</p>,,,,,,,,,,,,,,,,,,,,,,,
quiz_q_4_ask,52,272996,0.0-19.0-1.0,"""event"",""trial"",""time""
""blur"",""1"",""3637""
""focus"",""1"",""7087""
""fullscreenenter"",""1"",""7471""
""blur"",""2"",""13834""
""focus"",""2"",""18040""
""blur"",""12"",""83000""
""focus"",""12"",""90639""
""blur"",""14"",""109560""
""focus"",""16"",""140483""
","""event"",""trial"",""time""
""blur"",""1"",""3637""
""blur"",""2"",""13834""
""blur"",""12"",""83000""
""blur"",""14"",""109560""
","""event"",""trial"",""time""
""focus"",""1"",""7087""
""focus"",""2"",""18040""
""focus"",""12"",""90639""
""focus"",""16"",""140483""
","""event"",""trial"",""time""
""fullscreenenter"",""1"",""7471""
","
",,2344.9,run_exp/static/audio/clip_20_q4_ask.m4a,,,,,,,0,,,,,,,,,,,,,,,,,,
quiz_q_4_fb_correct,53,278308,0.0-20.0-0.0,"""event"",""trial"",""time""
""blur"",""1"",""3637""
""focus"",""1"",""7087""
""fullscreenenter"",""1"",""7471""
""blur"",""2"",""13834""
""focus"",""2"",""18040""
""blur"",""12"",""83000""
""focus"",""12"",""90639""
""blur"",""14"",""109560""
""focus"",""16"",""140483""
","""event"",""trial"",""time""
""blur"",""1"",""3637""
""blur"",""2"",""13834""
""blur"",""12"",""83000""
""blur"",""14"",""109560""
","""event"",""trial"",""time""
""focus"",""1"",""7087""
""focus"",""2"",""18040""
""focus"",""12"",""90639""
""focus"",""16"",""140483""
","""event"",""trial"",""time""
""fullscreenenter"",""1"",""7471""
","
",,null,run_exp/static/audio/clip_21_q4_correct.m4a,null,<p> That’s correct. The more you dig on a planet the fewer gems you’ll get with each dig. </p>,,,,,,,,,,,,,,,,,,,,,,,
quiz_q_5_ask,54,280011,0.0-20.0-1.0,"""event"",""trial"",""time""
""blur"",""1"",""3637""
""focus"",""1"",""7087""
""fullscreenenter"",""1"",""7471""
""blur"",""2"",""13834""
""focus"",""2"",""18040""
""blur"",""12"",""83000""
""focus"",""12"",""90639""
""blur"",""14"",""109560""
""focus"",""16"",""140483""
","""event"",""trial"",""time""
""blur"",""1"",""3637""
""blur"",""2"",""13834""
""blur"",""12"",""83000""
""blur"",""14"",""109560""
","""event"",""trial"",""time""
""focus"",""1"",""7087""
""focus"",""2"",""18040""
""focus"",""12"",""90639""
""focus"",""16"",""140483""
","""event"",""trial"",""time""
""fullscreenenter"",""1"",""7471""
","
",,1701.6,run_exp/static/audio/clip_23_q5_ask.m4a,,,,,,,1,,,,,,,,,,,,,,,,,,
quiz_q_5_fb_correct,55,285006,0.0-21.0-0.0,"""event"",""trial"",""time""
""blur"",""1"",""3637""
""focus"",""1"",""7087""
""fullscreenenter"",""1"",""7471""
""blur"",""2"",""13834""
""focus"",""2"",""18040""
""blur"",""12"",""83000""
""focus"",""12"",""90639""
""blur"",""14"",""109560""
""focus"",""16"",""140483""
","""event"",""trial"",""time""
""blur"",""1"",""3637""
""blur"",""2"",""13834""
""blur"",""12"",""83000""
""blur"",""14"",""109560""
","""event"",""trial"",""time""
""focus"",""1"",""7087""
""focus"",""2"",""18040""
""focus"",""12"",""90639""
""focus"",""16"",""140483""
","""event"",""trial"",""time""
""fullscreenenter"",""1"",""7471""
","
",,null,run_exp/static/audio/clip_24_q5_correct.m4a,null,<p> That’s correct. The alien tells you nothing about how much treasure is on the planet.</p>,,,,,,,,,,,,,,,,,,,,,,,
quiz_correct,56,288463,0.0-22.0-0.0,"""event"",""trial"",""time""
""blur"",""1"",""3637""
""focus"",""1"",""7087""
""fullscreenenter"",""1"",""7471""
""blur"",""2"",""13834""
""focus"",""2"",""18040""
""blur"",""12"",""83000""
""focus"",""12"",""90639""
""blur"",""14"",""109560""
""focus"",""16"",""140483""
","""event"",""trial"",""time""
""blur"",""1"",""3637""
""blur"",""2"",""13834""
""blur"",""12"",""83000""
""blur"",""14"",""109560""
","""event"",""trial"",""time""
""focus"",""1"",""7087""
""focus"",""2"",""18040""
""focus"",""12"",""90639""
""focus"",""16"",""140483""
","""event"",""trial"",""time""
""fullscreenenter"",""1"",""7471""
","
",,null,run_exp/static/audio/clip_26_correct_quiz.m4a,null,,,,,,,,,,,,,,,,,,,,,,,,
quiz_correct_continue,57,289410,0.0-22.0-1.0,"""event"",""trial"",""time""
""blur"",""1"",""3637""
""focus"",""1"",""7087""
""fullscreenenter"",""1"",""7471""
""blur"",""2"",""13834""
""focus"",""2"",""18040""
""blur"",""12"",""83000""
""focus"",""12"",""90639""
""blur"",""14"",""109560""
""focus"",""16"",""140483""
","""event"",""trial"",""time""
""blur"",""1"",""3637""
""blur"",""2"",""13834""
""blur"",""12"",""83000""
""blur"",""14"",""109560""
","""event"",""trial"",""time""
""focus"",""1"",""7087""
""focus"",""2"",""18040""
""focus"",""12"",""90639""
""focus"",""16"",""140483""
","""event"",""trial"",""time""
""fullscreenenter"",""1"",""7471""
","
",,945.3,<p>Good job! You're now ready to move on to the real game!</p>,,,,,,,0,,,,,,,,,,,,,,,,,,
audio-keyboard-response,58,299513,0.0-22.0-2.0,"""event"",""trial"",""time""
""blur"",""1"",""3637""
""focus"",""1"",""7087""
""fullscreenenter"",""1"",""7471""
""blur"",""2"",""13834""
""focus"",""2"",""18040""
""blur"",""12"",""83000""
""focus"",""12"",""90639""
""blur"",""14"",""109560""
""focus"",""16"",""140483""
","""event"",""trial"",""time""
""blur"",""1"",""3637""
""blur"",""2"",""13834""
""blur"",""12"",""83000""
""blur"",""14"",""109560""
","""event"",""trial"",""time""
""focus"",""1"",""7087""
""focus"",""2"",""18040""
""focus"",""12"",""90639""
""focus"",""16"",""140483""
","""event"",""trial"",""time""
""fullscreenenter"",""1"",""7471""
","
",,null,run_exp/static/audio/clip_28_real_game.m4a,null,,,,,,,,,,,,,,,,,,,,,,,,
instruc_begin_exp_contine,59,300231,0.0-22.0-3.0,"""event"",""trial"",""time""
""blur"",""1"",""3637""
""focus"",""1"",""7087""
""fullscreenenter"",""1"",""7471""
""blur"",""2"",""13834""
""focus"",""2"",""18040""
""blur"",""12"",""83000""
""focus"",""12"",""90639""
""blur"",""14"",""109560""
""focus"",""16"",""140483""
","""event"",""trial"",""time""
""blur"",""1"",""3637""
""blur"",""2"",""13834""
""blur"",""12"",""83000""
""blur"",""14"",""109560""
","""event"",""trial"",""time""
""focus"",""1"",""7087""
""focus"",""2"",""18040""
""focus"",""12"",""90639""
""focus"",""16"",""140483""
","""event"",""trial"",""time""
""fullscreenenter"",""1"",""7471""
","
",,717.8,"<p>Now that you know how  to dig for space treasure and travel to new planets,you can start exploring! </p><p>Do you want to go over the instructions again or get started with the real game?</p>",,,,,,,1,,,,,,1,,,,,,,,,,,,
alien_welcome,60,305242,0.0-23.0-0.0,"""event"",""trial"",""time""
""blur"",""1"",""3637""
""focus"",""1"",""7087""
""fullscreenenter"",""1"",""7471""
""blur"",""2"",""13834""
""focus"",""2"",""18040""
""blur"",""12"",""83000""
""focus"",""12"",""90639""
""blur"",""14"",""109560""
""focus"",""16"",""140483""
","""event"",""trial"",""time""
""blur"",""1"",""3637""
""blur"",""2"",""13834""
""blur"",""12"",""83000""
""blur"",""14"",""109560""
","""event"",""trial"",""time""
""focus"",""1"",""7087""
""focus"",""2"",""18040""
""focus"",""12"",""90639""
""focus"",""16"",""140483""
","""event"",""trial"",""time""
""fullscreenenter"",""1"",""7471""
","
",,null,run_exp/static/images/task_images/aliens/old_aliens/planet/alien_planet-51.jpg,null,,,,,,,,,,,,,51,"51,17,53,42,60,36,80,43,9,62,4,1,50,8,29,26,18,74,20,24,32,56,34,41,47,10,27,44,63,15,21,58,28,2,57,13,3,77,78,48,38,61,76",,,,,,,,,,
land,61,305746,0.0-23.0-1.0,"""event"",""trial"",""time""
""blur"",""1"",""3637""
""focus"",""1"",""7087""
""fullscreenenter"",""1"",""7471""
""blur"",""2"",""13834""
""focus"",""2"",""18040""
""blur"",""12"",""83000""
""focus"",""12"",""90639""
""blur"",""14"",""109560""
""focus"",""16"",""140483""
","""event"",""trial"",""time""
""blur"",""1"",""3637""
""blur"",""2"",""13834""
""blur"",""12"",""83000""
""blur"",""14"",""109560""
","""event"",""trial"",""time""
""focus"",""1"",""7087""
""focus"",""2"",""18040""
""focus"",""12"",""90639""
""focus"",""16"",""140483""
","""event"",""trial"",""time""
""fullscreenenter"",""1"",""7471""
","
",,null,run_exp/static/images/task_images/land.jpg,null,,,,,,,98,,,1,,,,,,,,,,,,,,
dig,62,307756,0.0-23.0-2.0,"""event"",""trial"",""time""
""blur"",""1"",""3637""
""focus"",""1"",""7087""
""fullscreenenter"",""1"",""7471""
""blur"",""2"",""13834""
""focus"",""2"",""18040""
""blur"",""12"",""83000""
""focus"",""12"",""90639""
""blur"",""14"",""109560""
""focus"",""16"",""140483""
","""event"",""trial"",""time""
""blur"",""1"",""3637""
""blur"",""2"",""13834""
""blur"",""12"",""83000""
""blur"",""14"",""109560""
","""event"",""trial"",""time""
""focus"",""1"",""7087""
""focus"",""2"",""18040""
""focus"",""12"",""90639""
""focus"",""16"",""140483""
","""event"",""trial"",""time""
""fullscreenenter"",""1"",""7471""
","
",,,,,,,,,,,,"[{""stimulus"":""run_exp/static/images/task_images/dig.jpg"",""time"":0.20000000298023224},{""stimulus"":""run_exp/static/images/task_images/land.jpg"",""time"":671.6000000089407},{""stimulus"":""run_exp/static/images/task_images/dig.jpg"",""time"":1338.6000000089407}]",[],1,,,,,,,,,,,,,,
harvest,63,308766,0.0-23.0-3.0,"""event"",""trial"",""time""
""blur"",""1"",""3637""
""focus"",""1"",""7087""
""fullscreenenter"",""1"",""7471""
""blur"",""2"",""13834""
""focus"",""2"",""18040""
""blur"",""12"",""83000""
""focus"",""12"",""90639""
""blur"",""14"",""109560""
""focus"",""16"",""140483""
","""event"",""trial"",""time""
""blur"",""1"",""3637""
""blur"",""2"",""13834""
""blur"",""12"",""83000""
""blur"",""14"",""109560""
","""event"",""trial"",""time""
""focus"",""1"",""7087""
""focus"",""2"",""18040""
""focus"",""12"",""90639""
""focus"",""16"",""140483""
","""event"",""trial"",""time""
""fullscreenenter"",""1"",""7471""
","
",,null,run_exp/static/images/task_images/gems/98.jpg,null,,,,,,,19,,,1,,,,,98,0.194066177,0.193877551,,,,,,,
decision,64,309097,0.0-23.0-4.0,"""event"",""trial"",""time""
""blur"",""1"",""3637""
""focus"",""1"",""7087""
""fullscreenenter"",""1"",""7471""
""blur"",""2"",""13834""
""focus"",""2"",""18040""
""blur"",""12"",""83000""
""focus"",""12"",""90639""
""blur"",""14"",""109560""
""focus"",""16"",""140483""
","""event"",""trial"",""time""
""blur"",""1"",""3637""
""blur"",""2"",""13834""
""blur"",""12"",""83000""
""blur"",""14"",""109560""
","""event"",""trial"",""time""
""focus"",""1"",""7087""
""focus"",""2"",""18040""
""focus"",""12"",""90639""
""focus"",""16"",""140483""
","""event"",""trial"",""time""
""fullscreenenter"",""1"",""7471""
","
",,328.6,run_exp/static/images/task_images/land.jpg,65,,,,,,,19,,,1,,,,,,,,8864,1,0,FALSE,,,
dig,65,311779,0.0-24.0-0.0,"""event"",""trial"",""time""
""blur"",""1"",""3637""
""focus"",""1"",""7087""
""fullscreenenter"",""1"",""7471""
""blur"",""2"",""13834""
""focus"",""2"",""18040""
""blur"",""12"",""83000""
""focus"",""12"",""90639""
""blur"",""14"",""109560""
""focus"",""16"",""140483""
","""event"",""trial"",""time""
""blur"",""1"",""3637""
""blur"",""2"",""13834""
""blur"",""12"",""83000""
""blur"",""14"",""109560""
","""event"",""trial"",""time""
""focus"",""1"",""7087""
""focus"",""2"",""18040""
""focus"",""12"",""90639""
""focus"",""16"",""140483""
","""event"",""trial"",""time""
""fullscreenenter"",""1"",""7471""
","
",,,,,,,,,,,,"[{""stimulus"":""run_exp/static/images/task_images/dig.jpg"",""time"":0.29999999701976776},{""stimulus"":""run_exp/static/images/task_images/land.jpg"",""time"":895.5},{""stimulus"":""run_exp/static/images/task_images/dig.jpg"",""time"":1785.7999999970198}]",[],1,,,,,,,,,,,,,,
harvest,66,312786,0.0-24.0-1.0,"""event"",""trial"",""time""
""blur"",""1"",""3637""
""focus"",""1"",""7087""
""fullscreenenter"",""1"",""7471""
""blur"",""2"",""13834""
""focus"",""2"",""18040""
""blur"",""12"",""83000""
""focus"",""12"",""90639""
""blur"",""14"",""109560""
""focus"",""16"",""140483""
","""event"",""trial"",""time""
""blur"",""1"",""3637""
""blur"",""2"",""13834""
""blur"",""12"",""83000""
""blur"",""14"",""109560""
","""event"",""trial"",""time""
""focus"",""1"",""7087""
""focus"",""2"",""18040""
""focus"",""12"",""90639""
""focus"",""16"",""140483""
","""event"",""trial"",""time""
""fullscreenenter"",""1"",""7471""
","
",,null,run_exp/static/images/task_images/gems/19.jpg,null,,,,,,,5,,,1,,,,,19,0.259193148,0.263157895,,,,,,,
decision,67,313546,0.0-24.0-2.0,"""event"",""trial"",""time""
""blur"",""1"",""3637""
""focus"",""1"",""7087""
""fullscreenenter"",""1"",""7471""
""blur"",""2"",""13834""
""focus"",""2"",""18040""
""blur"",""12"",""83000""
""focus"",""12"",""90639""
""blur"",""14"",""109560""
""focus"",""16"",""140483""
","""event"",""trial"",""time""
""blur"",""1"",""3637""
""blur"",""2"",""13834""
""blur"",""12"",""83000""
""blur"",""14"",""109560""
","""event"",""trial"",""time""
""focus"",""1"",""7087""
""focus"",""2"",""18040""
""focus"",""12"",""90639""
""focus"",""16"",""140483""
","""event"",""trial"",""time""
""fullscreenenter"",""1"",""7471""
","
",,758.3,run_exp/static/images/task_images/land.jpg,65,,,,,,,5,,,1,,,,,,,,13313,1,1,FALSE,,,
dig,68,315796,0.0-25.0-0.0,"""event"",""trial"",""time""
""blur"",""1"",""3637""
""focus"",""1"",""7087""
""fullscreenenter"",""1"",""7471""
""blur"",""2"",""13834""
""focus"",""2"",""18040""
""blur"",""12"",""83000""
""focus"",""12"",""90639""
""blur"",""14"",""109560""
""focus"",""16"",""140483""
","""event"",""trial"",""time""
""blur"",""1"",""3637""
""blur"",""2"",""13834""
""blur"",""12"",""83000""
""blur"",""14"",""109560""
","""event"",""trial"",""time""
""focus"",""1"",""7087""
""focus"",""2"",""18040""
""focus"",""12"",""90639""
""focus"",""16"",""140483""
","""event"",""trial"",""time""
""fullscreenenter"",""1"",""7471""
","
",,,,,,,,,,,,"[{""stimulus"":""run_exp/static/images/task_images/dig.jpg"",""time"":0.20000000298023224},{""stimulus"":""run_exp/static/images/task_images/land.jpg"",""time"":752.9000000059605},{""stimulus"":""run_exp/static/images/task_images/dig.jpg"",""time"":1502.7999999970198}]",[],1,,,,,,,,,,,,,,
harvest,69,316805,0.0-25.0-1.0,"""event"",""trial"",""time""
""blur"",""1"",""3637""
""focus"",""1"",""7087""
""fullscreenenter"",""1"",""7471""
""blur"",""2"",""13834""
""focus"",""2"",""18040""
""blur"",""12"",""83000""
""focus"",""12"",""90639""
""blur"",""14"",""109560""
""focus"",""16"",""140483""
","""event"",""trial"",""time""
""blur"",""1"",""3637""
""blur"",""2"",""13834""
""blur"",""12"",""83000""
""blur"",""14"",""109560""
","""event"",""trial"",""time""
""focus"",""1"",""7087""
""focus"",""2"",""18040""
""focus"",""12"",""90639""
""focus"",""16"",""140483""
","""event"",""trial"",""time""
""fullscreenenter"",""1"",""7471""
","
",,null,run_exp/static/images/task_images/gems/5.jpg,null,,,,,,,1,,,1,,,,,5,0.156093941,0.2,,,,,,,
decision,70,317377,0.0-25.0-2.0,"""event"",""trial"",""time""
""blur"",""1"",""3637""
""focus"",""1"",""7087""
""fullscreenenter"",""1"",""7471""
""blur"",""2"",""13834""
""focus"",""2"",""18040""
""blur"",""12"",""83000""
""focus"",""12"",""90639""
""blur"",""14"",""109560""
""focus"",""16"",""140483""
","""event"",""trial"",""time""
""blur"",""1"",""3637""
""blur"",""2"",""13834""
""blur"",""12"",""83000""
""blur"",""14"",""109560""
","""event"",""trial"",""time""
""focus"",""1"",""7087""
""focus"",""2"",""18040""
""focus"",""12"",""90639""
""focus"",""16"",""140483""
","""event"",""trial"",""time""
""fullscreenenter"",""1"",""7471""
","
",,570.7,run_exp/static/images/task_images/land.jpg,76,,,,,,,1,,,1,,,,,,,,17144,1,2,TRUE,,,
travel,71,326812,0.0-26.0-0.0,"""event"",""trial"",""time""
""blur"",""1"",""3637""
""focus"",""1"",""7087""
""fullscreenenter"",""1"",""7471""
""blur"",""2"",""13834""
""focus"",""2"",""18040""
""blur"",""12"",""83000""
""focus"",""12"",""90639""
""blur"",""14"",""109560""
""focus"",""16"",""140483""
","""event"",""trial"",""time""
""blur"",""1"",""3637""
""blur"",""2"",""13834""
""blur"",""12"",""83000""
""blur"",""14"",""109560""
","""event"",""trial"",""time""
""focus"",""1"",""7087""
""focus"",""2"",""18040""
""focus"",""12"",""90639""
""focus"",""16"",""140483""
","""event"",""trial"",""time""
""fullscreenenter"",""1"",""7471""
","
",,,,,,,,,,,,"[{""stimulus"":""run_exp/static/images/task_images/rocket-01.jpg"",""time"":0.10000000894069672},{""stimulus"":""run_exp/static/images/task_images/rocket-02.jpg"",""time"":1056.2000000029802},{""stimulus"":""run_exp/static/images/task_images/rocket-03.jpg"",""time"":2104.9000000059605},{""stimulus"":""run_exp/static/images/task_images/rocket-04.jpg"",""time"":3144.7000000029802},{""stimulus"":""run_exp/static/images/task_images/rocket-05.jpg"",""time"":4192.100000008941},{""stimulus"":""run_exp/static/images/task_images/rocket-06.jpg"",""time"":5239.20000000298},{""stimulus"":""run_exp/static/images/task_images/rocket-07.jpg"",""time"":6287.20000000298},{""stimulus"":""run_exp/static/images/task_images/rocket-08.jpg"",""time"":7336.9000000059605},{""stimulus"":""run_exp/static/images/task_images/rocket-09.jpg"",""time"":8387.10000000894}]",[],1,,,,,,,,,,,,,,
alien_welcome,72,331821,0.0-26.0-1.0,"""event"",""trial"",""time""
""blur"",""1"",""3637""
""focus"",""1"",""7087""
""fullscreenenter"",""1"",""7471""
""blur"",""2"",""13834""
""focus"",""2"",""18040""
""blur"",""12"",""83000""
""focus"",""12"",""90639""
""blur"",""14"",""109560""
""focus"",""16"",""140483""
","""event"",""trial"",""time""
""blur"",""1"",""3637""
""blur"",""2"",""13834""
""blur"",""12"",""83000""
""blur"",""14"",""109560""
","""event"",""trial"",""time""
""focus"",""1"",""7087""
""focus"",""2"",""18040""
""focus"",""12"",""90639""
""focus"",""16"",""140483""
","""event"",""trial"",""time""
""fullscreenenter"",""1"",""7471""
","
",,null,run_exp/static/images/task_images/aliens/old_aliens/planet/alien_planet-17.jpg,null,,,,,,,,,,,,,17,"51,17,53,42,60,36,80,43,9,62,4,1,50,8,29,26,18,74,20,24,32,56,34,41,47,10,27,44,63,15,21,58,28,2,57,13,3,77,78,48,38,61,76",,,,,,,,,,
land,73,332323,0.0-26.0-2.0,"""event"",""trial"",""time""
""blur"",""1"",""3637""
""focus"",""1"",""7087""
""fullscreenenter"",""1"",""7471""
""blur"",""2"",""13834""
""focus"",""2"",""18040""
""blur"",""12"",""83000""
""focus"",""12"",""90639""
""blur"",""14"",""109560""
""focus"",""16"",""140483""
","""event"",""trial"",""time""
""blur"",""1"",""3637""
""blur"",""2"",""13834""
""blur"",""12"",""83000""
""blur"",""14"",""109560""
","""event"",""trial"",""time""
""focus"",""1"",""7087""
""focus"",""2"",""18040""
""focus"",""12"",""90639""
""focus"",""16"",""140483""
","""event"",""trial"",""time""
""fullscreenenter"",""1"",""7471""
","
",,null,run_exp/static/images/task_images/land.jpg,null,,,,,,,101,,,2,,,,,,,,,,,,,,
dig,74,334333,0.0-26.0-3.0,"""event"",""trial"",""time""
""blur"",""1"",""3637""
""focus"",""1"",""7087""
""fullscreenenter"",""1"",""7471""
""blur"",""2"",""13834""
""focus"",""2"",""18040""
""blur"",""12"",""83000""
""focus"",""12"",""90639""
""blur"",""14"",""109560""
""focus"",""16"",""140483""
","""event"",""trial"",""time""
""blur"",""1"",""3637""
""blur"",""2"",""13834""
""blur"",""12"",""83000""
""blur"",""14"",""109560""
","""event"",""trial"",""time""
""focus"",""1"",""7087""
""focus"",""2"",""18040""
""focus"",""12"",""90639""
""focus"",""16"",""140483""
","""event"",""trial"",""time""
""fullscreenenter"",""1"",""7471""
","
",,,,,,,,,,,,"[{""stimulus"":""run_exp/static/images/task_images/dig.jpg"",""time"":0.4000000059604645},{""stimulus"":""run_exp/static/images/task_images/land.jpg"",""time"":674.5},{""stimulus"":""run_exp/static/images/task_images/dig.jpg"",""time"":1342.1000000089407}]",[],2,,,,,,,,,,,,,,
harvest,75,335339,0.0-26.0-4.0,"""event"",""trial"",""time""
""blur"",""1"",""3637""
""focus"",""1"",""7087""
""fullscreenenter"",""1"",""7471""
""blur"",""2"",""13834""
""focus"",""2"",""18040""
""blur"",""12"",""83000""
""focus"",""12"",""90639""
""blur"",""14"",""109560""
""focus"",""16"",""140483""
","""event"",""trial"",""time""
""blur"",""1"",""3637""
""blur"",""2"",""13834""
""blur"",""12"",""83000""
""blur"",""14"",""109560""
","""event"",""trial"",""time""
""focus"",""1"",""7087""
""focus"",""2"",""18040""
""focus"",""12"",""90639""
""focus"",""16"",""140483""
","""event"",""trial"",""time""
""fullscreenenter"",""1"",""7471""
","
",,null,run_exp/static/images/task_images/gems/101.jpg,null,,,,,,,28,,,2,,,,,101,0.279307811,0.277227723,,,,,,,
decision,76,335593,0.0-26.0-5.0,"""event"",""trial"",""time""
""blur"",""1"",""3637""
""focus"",""1"",""7087""
""fullscreenenter"",""1"",""7471""
""blur"",""2"",""13834""
""focus"",""2"",""18040""
""blur"",""12"",""83000""
""focus"",""12"",""90639""
""blur"",""14"",""109560""
""focus"",""16"",""140483""
","""event"",""trial"",""time""
""blur"",""1"",""3637""
""blur"",""2"",""13834""
""blur"",""12"",""83000""
""blur"",""14"",""109560""
","""event"",""trial"",""time""
""focus"",""1"",""7087""
""focus"",""2"",""18040""
""focus"",""12"",""90639""
""focus"",""16"",""140483""
","""event"",""trial"",""time""
""fullscreenenter"",""1"",""7471""
","
",,252.7,run_exp/static/images/task_images/land.jpg,65,,,,,,,28,,,2,,,,,,,,35360,1,0,FALSE,,,
dig,77,338349,0.0-27.0-0.0,"""event"",""trial"",""time""
""blur"",""1"",""3637""
""focus"",""1"",""7087""
""fullscreenenter"",""1"",""7471""
""blur"",""2"",""13834""
""focus"",""2"",""18040""
""blur"",""12"",""83000""
""focus"",""12"",""90639""
""blur"",""14"",""109560""
""focus"",""16"",""140483""
","""event"",""trial"",""time""
""blur"",""1"",""3637""
""blur"",""2"",""13834""
""blur"",""12"",""83000""
""blur"",""14"",""109560""
","""event"",""trial"",""time""
""focus"",""1"",""7087""
""focus"",""2"",""18040""
""focus"",""12"",""90639""
""focus"",""16"",""140483""
","""event"",""trial"",""time""
""fullscreenenter"",""1"",""7471""
","
",,,,,,,,,,,,"[{""stimulus"":""run_exp/static/images/task_images/dig.jpg"",""time"":0.20000000298023224},{""stimulus"":""run_exp/static/images/task_images/land.jpg"",""time"":921.2999999970198},{""stimulus"":""run_exp/static/images/task_images/dig.jpg"",""time"":1834.5999999940395}]",[],2,,,,,,,,,,,,,,
harvest,78,339356,0.0-27.0-1.0,"""event"",""trial"",""time""
""blur"",""1"",""3637""
""focus"",""1"",""7087""
""fullscreenenter"",""1"",""7471""
""blur"",""2"",""13834""
""focus"",""2"",""18040""
""blur"",""12"",""83000""
""focus"",""12"",""90639""
""blur"",""14"",""109560""
""focus"",""16"",""140483""
","""event"",""trial"",""time""
""blur"",""1"",""3637""
""blur"",""2"",""13834""
""blur"",""12"",""83000""
""blur"",""14"",""109560""
","""event"",""trial"",""time""
""focus"",""1"",""7087""
""focus"",""2"",""18040""
""focus"",""12"",""90639""
""focus"",""16"",""140483""
","""event"",""trial"",""time""
""fullscreenenter"",""1"",""7471""
","
",,null,run_exp/static/images/task_images/gems/28.jpg,null,,,,,,,7,,,2,,,,,28,0.249905249,0.25,,,,,,,
decision,79,339621,0.0-27.0-2.0,"""event"",""trial"",""time""
""blur"",""1"",""3637""
""focus"",""1"",""7087""
""fullscreenenter"",""1"",""7471""
""blur"",""2"",""13834""
""focus"",""2"",""18040""
""blur"",""12"",""83000""
""focus"",""12"",""90639""
""blur"",""14"",""109560""
""focus"",""16"",""140483""
","""event"",""trial"",""time""
""blur"",""1"",""3637""
""blur"",""2"",""13834""
""blur"",""12"",""83000""
""blur"",""14"",""109560""
","""event"",""trial"",""time""
""focus"",""1"",""7087""
""focus"",""2"",""18040""
""focus"",""12"",""90639""
""focus"",""16"",""140483""
","""event"",""trial"",""time""
""fullscreenenter"",""1"",""7471""
","
",,264.2,run_exp/static/images/task_images/land.jpg,76,,,,,,,7,,,2,,,,,,,,39388,1,1,TRUE,,,
travel,80,349356,0.0-28.0-0.0,"""event"",""trial"",""time""
""blur"",""1"",""3637""
""focus"",""1"",""7087""
""fullscreenenter"",""1"",""7471""
""blur"",""2"",""13834""
""focus"",""2"",""18040""
""blur"",""12"",""83000""
""focus"",""12"",""90639""
""blur"",""14"",""109560""
""focus"",""16"",""140483""
","""event"",""trial"",""time""
""blur"",""1"",""3637""
""blur"",""2"",""13834""
""blur"",""12"",""83000""
""blur"",""14"",""109560""
","""event"",""trial"",""time""
""focus"",""1"",""7087""
""focus"",""2"",""18040""
""focus"",""12"",""90639""
""focus"",""16"",""140483""
","""event"",""trial"",""time""
""fullscreenenter"",""1"",""7471""
","
",,,,,,,,,,,,"[{""stimulus"":""run_exp/static/images/task_images/rocket-01.jpg"",""time"":0.20000000298023224},{""stimulus"":""run_exp/static/images/task_images/rocket-02.jpg"",""time"":1083.5},{""stimulus"":""run_exp/static/images/task_images/rocket-03.jpg"",""time"":2165.5},{""stimulus"":""run_exp/static/images/task_images/rocket-04.jpg"",""time"":3255.7999999970198},{""stimulus"":""run_exp/static/images/task_images/rocket-05.jpg"",""time"":4331.5999999940395},{""stimulus"":""run_exp/static/images/task_images/rocket-06.jpg"",""time"":5411.79999999702},{""stimulus"":""run_exp/static/images/task_images/rocket-07.jpg"",""time"":6492.0999999940395},{""stimulus"":""run_exp/static/images/task_images/rocket-08.jpg"",""time"":7572.5},{""stimulus"":""run_exp/static/images/task_images/rocket-09.jpg"",""time"":8652.89999999106}]",[],2,,,,,,,,,,,,,,
alien_welcome,81,354365,0.0-28.0-1.0,"""event"",""trial"",""time""
""blur"",""1"",""3637""
""focus"",""1"",""7087""
""fullscreenenter"",""1"",""7471""
""blur"",""2"",""13834""
""focus"",""2"",""18040""
""blur"",""12"",""83000""
""focus"",""12"",""90639""
""blur"",""14"",""109560""
""focus"",""16"",""140483""
","""event"",""trial"",""time""
""blur"",""1"",""3637""
""blur"",""2"",""13834""
""blur"",""12"",""83000""
""blur"",""14"",""109560""
","""event"",""trial"",""time""
""focus"",""1"",""7087""
""focus"",""2"",""18040""
""focus"",""12"",""90639""
""focus"",""16"",""140483""
","""event"",""trial"",""time""
""fullscreenenter"",""1"",""7471""
","
",,null,run_exp/static/images/task_images/aliens/old_aliens/planet/alien_planet-53.jpg,null,,,,,,,,,,,,,53,"51,17,53,42,60,36,80,43,9,62,4,1,50,8,29,26,18,74,20,24,32,56,34,41,47,10,27,44,63,15,21,58,28,2,57,13,3,77,78,48,38,61,76",,,,,,,,,,
land,82,354868,0.0-28.0-2.0,"""event"",""trial"",""time""
""blur"",""1"",""3637""
""focus"",""1"",""7087""
""fullscreenenter"",""1"",""7471""
""blur"",""2"",""13834""
""focus"",""2"",""18040""
""blur"",""12"",""83000""
""focus"",""12"",""90639""
""blur"",""14"",""109560""
""focus"",""16"",""140483""
","""event"",""trial"",""time""
""blur"",""1"",""3637""
""blur"",""2"",""13834""
""blur"",""12"",""83000""
""blur"",""14"",""109560""
","""event"",""trial"",""time""
""focus"",""1"",""7087""
""focus"",""2"",""18040""
""focus"",""12"",""90639""
""focus"",""16"",""140483""
","""event"",""trial"",""time""
""fullscreenenter"",""1"",""7471""
","
",,null,run_exp/static/images/task_images/land.jpg,null,,,,,,,94,,,3,,,,,,,,,,,,,,
dig,83,356876,0.0-28.0-3.0,"""event"",""trial"",""time""
""blur"",""1"",""3637""
""focus"",""1"",""7087""
""fullscreenenter"",""1"",""7471""
""blur"",""2"",""13834""
""focus"",""2"",""18040""
""blur"",""12"",""83000""
""focus"",""12"",""90639""
""blur"",""14"",""109560""
""focus"",""16"",""140483""
","""event"",""trial"",""time""
""blur"",""1"",""3637""
""blur"",""2"",""13834""
""blur"",""12"",""83000""
""blur"",""14"",""109560""
","""event"",""trial"",""time""
""focus"",""1"",""7087""
""focus"",""2"",""18040""
""focus"",""12"",""90639""
""focus"",""16"",""140483""
","""event"",""trial"",""time""
""fullscreenenter"",""1"",""7471""
","
",,,,,,,,,,,,"[{""stimulus"":""run_exp/static/images/task_images/dig.jpg"",""time"":0.29999999701976776},{""stimulus"":""run_exp/static/images/task_images/land.jpg"",""time"":670},{""stimulus"":""run_exp/static/images/task_images/dig.jpg"",""time"":1342}]",[],3,,,,,,,,,,,,,,
harvest,84,357885,0.0-28.0-4.0,"""event"",""trial"",""time""
""blur"",""1"",""3637""
""focus"",""1"",""7087""
""fullscreenenter"",""1"",""7471""
""blur"",""2"",""13834""
""focus"",""2"",""18040""
""blur"",""12"",""83000""
""focus"",""12"",""90639""
""blur"",""14"",""109560""
""focus"",""16"",""140483""
","""event"",""trial"",""time""
""blur"",""1"",""3637""
""blur"",""2"",""13834""
""blur"",""12"",""83000""
""blur"",""14"",""109560""
","""event"",""trial"",""time""
""focus"",""1"",""7087""
""focus"",""2"",""18040""
""focus"",""12"",""90639""
""focus"",""16"",""140483""
","""event"",""trial"",""time""
""fullscreenenter"",""1"",""7471""
","
",,null,run_exp/static/images/task_images/gems/94.jpg,null,,,,,,,41,,,3,,,,,94,0.440354932,0.436170213,,,,,,,
decision,85,358191,0.0-28.0-5.0,"""event"",""trial"",""time""
""blur"",""1"",""3637""
""focus"",""1"",""7087""
""fullscreenenter"",""1"",""7471""
""blur"",""2"",""13834""
""focus"",""2"",""18040""
""blur"",""12"",""83000""
""focus"",""12"",""90639""
""blur"",""14"",""109560""
""focus"",""16"",""140483""
","""event"",""trial"",""time""
""blur"",""1"",""3637""
""blur"",""2"",""13834""
""blur"",""12"",""83000""
""blur"",""14"",""109560""
","""event"",""trial"",""time""
""focus"",""1"",""7087""
""focus"",""2"",""18040""
""focus"",""12"",""90639""
""focus"",""16"",""140483""
","""event"",""trial"",""time""
""fullscreenenter"",""1"",""7471""
","
",,304.2,run_exp/static/images/task_images/land.jpg,65,,,,,,,41,,,3,,,,,,,,57958,1,0,FALSE,,,
dig,86,360893,0.0-29.0-0.0,"""event"",""trial"",""time""
""blur"",""1"",""3637""
""focus"",""1"",""7087""
""fullscreenenter"",""1"",""7471""
""blur"",""2"",""13834""
""focus"",""2"",""18040""
""blur"",""12"",""83000""
""focus"",""12"",""90639""
""blur"",""14"",""109560""
""focus"",""16"",""140483""
","""event"",""trial"",""time""
""blur"",""1"",""3637""
""blur"",""2"",""13834""
""blur"",""12"",""83000""
""blur"",""14"",""109560""
","""event"",""trial"",""time""
""focus"",""1"",""7087""
""focus"",""2"",""18040""
""focus"",""12"",""90639""
""focus"",""16"",""140483""
","""event"",""trial"",""time""
""fullscreenenter"",""1"",""7471""
","
",,,,,,,,,,,,"[{""stimulus"":""run_exp/static/images/task_images/dig.jpg"",""time"":0.09999999403953552},{""stimulus"":""run_exp/static/images/task_images/land.jpg"",""time"":898.7999999970198},{""stimulus"":""run_exp/static/images/task_images/dig.jpg"",""time"":1805.0999999940395}]",[],3,,,,,,,,,,,,,,
harvest,87,361901,0.0-29.0-1.0,"""event"",""trial"",""time""
""blur"",""1"",""3637""
""focus"",""1"",""7087""
""fullscreenenter"",""1"",""7471""
""blur"",""2"",""13834""
""focus"",""2"",""18040""
""blur"",""12"",""83000""
""focus"",""12"",""90639""
""blur"",""14"",""109560""
""focus"",""16"",""140483""
","""event"",""trial"",""time""
""blur"",""1"",""3637""
""blur"",""2"",""13834""
""blur"",""12"",""83000""
""blur"",""14"",""109560""
","""event"",""trial"",""time""
""focus"",""1"",""7087""
""focus"",""2"",""18040""
""focus"",""12"",""90639""
""focus"",""16"",""140483""
","""event"",""trial"",""time""
""fullscreenenter"",""1"",""7471""
","
",,null,run_exp/static/images/task_images/gems/41.jpg,null,,,,,,,18,,,3,,,,,41,0.436952017,0.43902439,,,,,,,
decision,88,362411,0.0-29.0-2.0,"""event"",""trial"",""time""
""blur"",""1"",""3637""
""focus"",""1"",""7087""
""fullscreenenter"",""1"",""7471""
""blur"",""2"",""13834""
""focus"",""2"",""18040""
""blur"",""12"",""83000""
""focus"",""12"",""90639""
""blur"",""14"",""109560""
""focus"",""16"",""140483""
","""event"",""trial"",""time""
""blur"",""1"",""3637""
""blur"",""2"",""13834""
""blur"",""12"",""83000""
""blur"",""14"",""109560""
","""event"",""trial"",""time""
""focus"",""1"",""7087""
""focus"",""2"",""18040""
""focus"",""12"",""90639""
""focus"",""16"",""140483""
","""event"",""trial"",""time""
""fullscreenenter"",""1"",""7471""
","
",,508.6,run_exp/static/images/task_images/land.jpg,65,,,,,,,18,,,3,,,,,,,,62178,1,1,FALSE,,,
dig,89,364911,0.0-30.0-0.0,"""event"",""trial"",""time""
""blur"",""1"",""3637""
""focus"",""1"",""7087""
""fullscreenenter"",""1"",""7471""
""blur"",""2"",""13834""
""focus"",""2"",""18040""
""blur"",""12"",""83000""
""focus"",""12"",""90639""
""blur"",""14"",""109560""
""focus"",""16"",""140483""
","""event"",""trial"",""time""
""blur"",""1"",""3637""
""blur"",""2"",""13834""
""blur"",""12"",""83000""
""blur"",""14"",""109560""
","""event"",""trial"",""time""
""focus"",""1"",""7087""
""focus"",""2"",""18040""
""focus"",""12"",""90639""
""focus"",""16"",""140483""
","""event"",""trial"",""time""
""fullscreenenter"",""1"",""7471""
","
",,,,,,,,,,,,"[{""stimulus"":""run_exp/static/images/task_images/dig.jpg"",""time"":0.09999999403953552},{""stimulus"":""run_exp/static/images/task_images/land.jpg"",""time"":839.6999999880791},{""stimulus"":""run_exp/static/images/task_images/dig.jpg"",""time"":1667.199999988079}]",[],3,,,,,,,,,,,,,,
harvest,90,365920,0.0-30.0-1.0,"""event"",""trial"",""time""
""blur"",""1"",""3637""
""focus"",""1"",""7087""
""fullscreenenter"",""1"",""7471""
""blur"",""2"",""13834""
""focus"",""2"",""18040""
""blur"",""12"",""83000""
""focus"",""12"",""90639""
""blur"",""14"",""109560""
""focus"",""16"",""140483""
","""event"",""trial"",""time""
""blur"",""1"",""3637""
""blur"",""2"",""13834""
""blur"",""12"",""83000""
""blur"",""14"",""109560""
","""event"",""trial"",""time""
""focus"",""1"",""7087""
""focus"",""2"",""18040""
""focus"",""12"",""90639""
""focus"",""16"",""140483""
","""event"",""trial"",""time""
""fullscreenenter"",""1"",""7471""
","
",,null,run_exp/static/images/task_images/gems/18.jpg,null,,,,,,,7,,,3,,,,,18,0.390757975,0.388888889,,,,,,,
decision,91,365991,0.0-30.0-2.0,"""event"",""trial"",""time""
""blur"",""1"",""3637""
""focus"",""1"",""7087""
""fullscreenenter"",""1"",""7471""
""blur"",""2"",""13834""
""focus"",""2"",""18040""
""blur"",""12"",""83000""
""focus"",""12"",""90639""
""blur"",""14"",""109560""
""focus"",""16"",""140483""
","""event"",""trial"",""time""
""blur"",""1"",""3637""
""blur"",""2"",""13834""
""blur"",""12"",""83000""
""blur"",""14"",""109560""
","""event"",""trial"",""time""
""focus"",""1"",""7087""
""focus"",""2"",""18040""
""focus"",""12"",""90639""
""focus"",""16"",""140483""
","""event"",""trial"",""time""
""fullscreenenter"",""1"",""7471""
","
",,69.80000001,run_exp/static/images/task_images/land.jpg,76,,,,,,,7,,,3,,,,,,,,65758,1,2,TRUE,,,
travel,92,375928,0.0-31.0-0.0,"""event"",""trial"",""time""
""blur"",""1"",""3637""
""focus"",""1"",""7087""
""fullscreenenter"",""1"",""7471""
""blur"",""2"",""13834""
""focus"",""2"",""18040""
""blur"",""12"",""83000""
""focus"",""12"",""90639""
""blur"",""14"",""109560""
""focus"",""16"",""140483""
","""event"",""trial"",""time""
""blur"",""1"",""3637""
""blur"",""2"",""13834""
""blur"",""12"",""83000""
""blur"",""14"",""109560""
","""event"",""trial"",""time""
""focus"",""1"",""7087""
""focus"",""2"",""18040""
""focus"",""12"",""90639""
""focus"",""16"",""140483""
","""event"",""trial"",""time""
""fullscreenenter"",""1"",""7471""
","
",,,,,,,,,,,,"[{""stimulus"":""run_exp/static/images/task_images/rocket-01.jpg"",""time"":0.09999999403953552},{""stimulus"":""run_exp/static/images/task_images/rocket-02.jpg"",""time"":1114},{""stimulus"":""run_exp/static/images/task_images/rocket-03.jpg"",""time"":2210.7000000029802},{""stimulus"":""run_exp/static/images/task_images/rocket-04.jpg"",""time"":3314.0999999940395},{""stimulus"":""run_exp/static/images/task_images/rocket-05.jpg"",""time"":4419.70000000298},{""stimulus"":""run_exp/static/images/task_images/rocket-06.jpg"",""time"":5526},{""stimulus"":""run_exp/static/images/task_images/rocket-07.jpg"",""time"":6626.0999999940395},{""stimulus"":""run_exp/static/images/task_images/rocket-08.jpg"",""time"":7725.399999991059},{""stimulus"":""run_exp/static/images/task_images/rocket-09.jpg"",""time"":8826.79999999702}]",[],3,,,,,,,,,,,,,,
alien_welcome,93,380936,0.0-31.0-1.0,"""event"",""trial"",""time""
""blur"",""1"",""3637""
""focus"",""1"",""7087""
""fullscreenenter"",""1"",""7471""
""blur"",""2"",""13834""
""focus"",""2"",""18040""
""blur"",""12"",""83000""
""focus"",""12"",""90639""
""blur"",""14"",""109560""
""focus"",""16"",""140483""
","""event"",""trial"",""time""
""blur"",""1"",""3637""
""blur"",""2"",""13834""
""blur"",""12"",""83000""
""blur"",""14"",""109560""
","""event"",""trial"",""time""
""focus"",""1"",""7087""
""focus"",""2"",""18040""
""focus"",""12"",""90639""
""focus"",""16"",""140483""
","""event"",""trial"",""time""
""fullscreenenter"",""1"",""7471""
","
",,null,run_exp/static/images/task_images/aliens/old_aliens/planet/alien_planet-42.jpg,null,,,,,,,,,,,,,42,"51,17,53,42,60,36,80,43,9,62,4,1,50,8,29,26,18,74,20,24,32,56,34,41,47,10,27,44,63,15,21,58,28,2,57,13,3,77,78,48,38,61,76",,,,,,,,,,
land,94,381448,0.0-31.0-2.0,"""event"",""trial"",""time""
""blur"",""1"",""3637""
""focus"",""1"",""7087""
""fullscreenenter"",""1"",""7471""
""blur"",""2"",""13834""
""focus"",""2"",""18040""
""blur"",""12"",""83000""
""focus"",""12"",""90639""
""blur"",""14"",""109560""
""focus"",""16"",""140483""
","""event"",""trial"",""time""
""blur"",""1"",""3637""
""blur"",""2"",""13834""
""blur"",""12"",""83000""
""blur"",""14"",""109560""
","""event"",""trial"",""time""
""focus"",""1"",""7087""
""focus"",""2"",""18040""
""focus"",""12"",""90639""
""focus"",""16"",""140483""
","""event"",""trial"",""time""
""fullscreenenter"",""1"",""7471""
","
",,null,run_exp/static/images/task_images/land.jpg,null,,,,,,,106,,,4,,,,,,,,,,,,,,
dig,95,383453,0.0-31.0-3.0,"""event"",""trial"",""time""
""blur"",""1"",""3637""
""focus"",""1"",""7087""
""fullscreenenter"",""1"",""7471""
""blur"",""2"",""13834""
""focus"",""2"",""18040""
""blur"",""12"",""83000""
""focus"",""12"",""90639""
""blur"",""14"",""109560""
""focus"",""16"",""140483""
","""event"",""trial"",""time""
""blur"",""1"",""3637""
""blur"",""2"",""13834""
""blur"",""12"",""83000""
""blur"",""14"",""109560""
","""event"",""trial"",""time""
""focus"",""1"",""7087""
""focus"",""2"",""18040""
""focus"",""12"",""90639""
""focus"",""16"",""140483""
","""event"",""trial"",""time""
""fullscreenenter"",""1"",""7471""
","
",,,,,,,,,,,,"[{""stimulus"":""run_exp/static/images/task_images/dig.jpg"",""time"":0.19999998807907104},{""stimulus"":""run_exp/static/images/task_images/land.jpg"",""time"":675.3999999910593},{""stimulus"":""run_exp/static/images/task_images/dig.jpg"",""time"":1339.5999999940395}]",[],4,,,,,,,,,,,,,,
harvest,96,384462,0.0-31.0-4.0,"""event"",""trial"",""time""
""blur"",""1"",""3637""
""focus"",""1"",""7087""
""fullscreenenter"",""1"",""7471""
""blur"",""2"",""13834""
""focus"",""2"",""18040""
""blur"",""12"",""83000""
""focus"",""12"",""90639""
""blur"",""14"",""109560""
""focus"",""16"",""140483""
","""event"",""trial"",""time""
""blur"",""1"",""3637""
""blur"",""2"",""13834""
""blur"",""12"",""83000""
""blur"",""14"",""109560""
","""event"",""trial"",""time""
""focus"",""1"",""7087""
""focus"",""2"",""18040""
""focus"",""12"",""90639""
""focus"",""16"",""140483""
","""event"",""trial"",""time""
""fullscreenenter"",""1"",""7471""
","
",,null,run_exp/static/images/task_images/gems/106.jpg,null,,,,,,,55,,,4,,,,,106,0.522935166,0.518867925,,,,,,,
decision,97,384578,0.0-31.0-5.0,"""event"",""trial"",""time""
""blur"",""1"",""3637""
""focus"",""1"",""7087""
""fullscreenenter"",""1"",""7471""
""blur"",""2"",""13834""
""focus"",""2"",""18040""
""blur"",""12"",""83000""
""focus"",""12"",""90639""
""blur"",""14"",""109560""
""focus"",""16"",""140483""
","""event"",""trial"",""time""
""blur"",""1"",""3637""
""blur"",""2"",""13834""
""blur"",""12"",""83000""
""blur"",""14"",""109560""
","""event"",""trial"",""time""
""focus"",""1"",""7087""
""focus"",""2"",""18040""
""focus"",""12"",""90639""
""focus"",""16"",""140483""
","""event"",""trial"",""time""
""fullscreenenter"",""1"",""7471""
","
",,113.9,run_exp/static/images/task_images/land.jpg,65,,,,,,,55,,,4,,,,,,,,84345,1,0,FALSE,,,
dig,98,387477,0.0-32.0-0.0,"""event"",""trial"",""time""
""blur"",""1"",""3637""
""focus"",""1"",""7087""
""fullscreenenter"",""1"",""7471""
""blur"",""2"",""13834""
""focus"",""2"",""18040""
""blur"",""12"",""83000""
""focus"",""12"",""90639""
""blur"",""14"",""109560""
""focus"",""16"",""140483""
","""event"",""trial"",""time""
""blur"",""1"",""3637""
""blur"",""2"",""13834""
""blur"",""12"",""83000""
""blur"",""14"",""109560""
","""event"",""trial"",""time""
""focus"",""1"",""7087""
""focus"",""2"",""18040""
""focus"",""12"",""90639""
""focus"",""16"",""140483""
","""event"",""trial"",""time""
""fullscreenenter"",""1"",""7471""
","
",,,,,,,,,,,,"[{""stimulus"":""run_exp/static/images/task_images/dig.jpg"",""time"":0.29999999701976776},{""stimulus"":""run_exp/static/images/task_images/land.jpg"",""time"":971.7000000029802},{""stimulus"":""run_exp/static/images/task_images/dig.jpg"",""time"":1939.4000000059605}]",[],4,,,,,,,,,,,,,,
harvest,99,388485,0.0-32.0-1.0,"""event"",""trial"",""time""
""blur"",""1"",""3637""
""focus"",""1"",""7087""
""fullscreenenter"",""1"",""7471""
""blur"",""2"",""13834""
""focus"",""2"",""18040""
""blur"",""12"",""83000""
""focus"",""12"",""90639""
""blur"",""14"",""109560""
""focus"",""16"",""140483""
","""event"",""trial"",""time""
""blur"",""1"",""3637""
""blur"",""2"",""13834""
""blur"",""12"",""83000""
""blur"",""14"",""109560""
","""event"",""trial"",""time""
""focus"",""1"",""7087""
""focus"",""2"",""18040""
""focus"",""12"",""90639""
""focus"",""16"",""140483""
","""event"",""trial"",""time""
""fullscreenenter"",""1"",""7471""
","
",,null,run_exp/static/images/task_images/gems/55.jpg,null,,,,,,,33,,,4,,,,,55,0.592919208,0.6,,,,,,,
decision,100,388860,0.0-32.0-2.0,"""event"",""trial"",""time""
""blur"",""1"",""3637""
""focus"",""1"",""7087""
""fullscreenenter"",""1"",""7471""
""blur"",""2"",""13834""
""focus"",""2"",""18040""
""blur"",""12"",""83000""
""focus"",""12"",""90639""
""blur"",""14"",""109560""
""focus"",""16"",""140483""
","""event"",""trial"",""time""
""blur"",""1"",""3637""
""blur"",""2"",""13834""
""blur"",""12"",""83000""
""blur"",""14"",""109560""
","""event"",""trial"",""time""
""focus"",""1"",""7087""
""focus"",""2"",""18040""
""focus"",""12"",""90639""
""focus"",""16"",""140483""
","""event"",""trial"",""time""
""fullscreenenter"",""1"",""7471""
","
",,373.9,run_exp/static/images/task_images/land.jpg,65,,,,,,,33,,,4,,,,,,,,88628,1,1,FALSE,,,
dig,101,391495,0.0-33.0-0.0,"""event"",""trial"",""time""
""blur"",""1"",""3637""
""focus"",""1"",""7087""
""fullscreenenter"",""1"",""7471""
""blur"",""2"",""13834""
""focus"",""2"",""18040""
""blur"",""12"",""83000""
""focus"",""12"",""90639""
""blur"",""14"",""109560""
""focus"",""16"",""140483""
","""event"",""trial"",""time""
""blur"",""1"",""3637""
""blur"",""2"",""13834""
""blur"",""12"",""83000""
""blur"",""14"",""109560""
","""event"",""trial"",""time""
""focus"",""1"",""7087""
""focus"",""2"",""18040""
""focus"",""12"",""90639""
""focus"",""16"",""140483""
","""event"",""trial"",""time""
""fullscreenenter"",""1"",""7471""
","
",,,,,,,,,,,,"[{""stimulus"":""run_exp/static/images/task_images/dig.jpg"",""time"":0.20000000298023224},{""stimulus"":""run_exp/static/images/task_images/land.jpg"",""time"":882.6000000089407},{""stimulus"":""run_exp/static/images/task_images/dig.jpg"",""time"":1776.800000011921}]",[],4,,,,,,,,,,,,,,
harvest,102,392502,0.0-33.0-1.0,"""event"",""trial"",""time""
""blur"",""1"",""3637""
""focus"",""1"",""7087""
""fullscreenenter"",""1"",""7471""
""blur"",""2"",""13834""
""focus"",""2"",""18040""
""blur"",""12"",""83000""
""focus"",""12"",""90639""
""blur"",""14"",""109560""
""focus"",""16"",""140483""
","""event"",""trial"",""time""
""blur"",""1"",""3637""
""blur"",""2"",""13834""
""blur"",""12"",""83000""
""blur"",""14"",""109560""
","""event"",""trial"",""time""
""focus"",""1"",""7087""
""focus"",""2"",""18040""
""focus"",""12"",""90639""
""focus"",""16"",""140483""
","""event"",""trial"",""time""
""fullscreenenter"",""1"",""7471""
","
",,null,run_exp/static/images/task_images/gems/33.jpg,null,,,,,,,13,,,4,,,,,33,0.379311511,0.393939394,,,,,,,
decision,103,393119,0.0-33.0-2.0,"""event"",""trial"",""time""
""blur"",""1"",""3637""
""focus"",""1"",""7087""
""fullscreenenter"",""1"",""7471""
""blur"",""2"",""13834""
""focus"",""2"",""18040""
""blur"",""12"",""83000""
""focus"",""12"",""90639""
""blur"",""14"",""109560""
""focus"",""16"",""140483""
","""event"",""trial"",""time""
""blur"",""1"",""3637""
""blur"",""2"",""13834""
""blur"",""12"",""83000""
""blur"",""14"",""109560""
","""event"",""trial"",""time""
""focus"",""1"",""7087""
""focus"",""2"",""18040""
""focus"",""12"",""90639""
""focus"",""16"",""140483""
","""event"",""trial"",""time""
""fullscreenenter"",""1"",""7471""
","
",,615.2,run_exp/static/images/task_images/land.jpg,76,,,,,,,13,,,4,,,,,,,,92886,1,2,TRUE,,,
travel,104,402501,0.0-34.0-0.0,"""event"",""trial"",""time""
""blur"",""1"",""3637""
""focus"",""1"",""7087""
""fullscreenenter"",""1"",""7471""
""blur"",""2"",""13834""
""focus"",""2"",""18040""
""blur"",""12"",""83000""
""focus"",""12"",""90639""
""blur"",""14"",""109560""
""focus"",""16"",""140483""
","""event"",""trial"",""time""
""blur"",""1"",""3637""
""blur"",""2"",""13834""
""blur"",""12"",""83000""
""blur"",""14"",""109560""
","""event"",""trial"",""time""
""focus"",""1"",""7087""
""focus"",""2"",""18040""
""focus"",""12"",""90639""
""focus"",""16"",""140483""
","""event"",""trial"",""time""
""fullscreenenter"",""1"",""7471""
","
",,,,,,,,,,,,"[{""stimulus"":""run_exp/static/images/task_images/rocket-01.jpg"",""time"":0.20000000298023224},{""stimulus"":""run_exp/static/images/task_images/rocket-02.jpg"",""time"":1047.1000000089407},{""stimulus"":""run_exp/static/images/task_images/rocket-03.jpg"",""time"":2092.7000000029802},{""stimulus"":""run_exp/static/images/task_images/rocket-04.jpg"",""time"":3131.6000000089407},{""stimulus"":""run_exp/static/images/task_images/rocket-05.jpg"",""time"":4173.9000000059605},{""stimulus"":""run_exp/static/images/task_images/rocket-06.jpg"",""time"":5213.4000000059605},{""stimulus"":""run_exp/static/images/task_images/rocket-07.jpg"",""time"":6260.100000008941},{""stimulus"":""run_exp/static/images/task_images/rocket-08.jpg"",""time"":7304.70000000298},{""stimulus"":""run_exp/static/images/task_images/rocket-09.jpg"",""time"":8340}]",[],4,,,,,,,,,,,,,,
alien_welcome,105,407510,0.0-34.0-1.0,"""event"",""trial"",""time""
""blur"",""1"",""3637""
""focus"",""1"",""7087""
""fullscreenenter"",""1"",""7471""
""blur"",""2"",""13834""
""focus"",""2"",""18040""
""blur"",""12"",""83000""
""focus"",""12"",""90639""
""blur"",""14"",""109560""
""focus"",""16"",""140483""
","""event"",""trial"",""time""
""blur"",""1"",""3637""
""blur"",""2"",""13834""
""blur"",""12"",""83000""
""blur"",""14"",""109560""
","""event"",""trial"",""time""
""focus"",""1"",""7087""
""focus"",""2"",""18040""
""focus"",""12"",""90639""
""focus"",""16"",""140483""
","""event"",""trial"",""time""
""fullscreenenter"",""1"",""7471""
","
",,null,run_exp/static/images/task_images/aliens/old_aliens/planet/alien_planet-60.jpg,null,,,,,,,,,,,,,60,"51,17,53,42,60,36,80,43,9,62,4,1,50,8,29,26,18,74,20,24,32,56,34,41,47,10,27,44,63,15,21,58,28,2,57,13,3,77,78,48,38,61,76",,,,,,,,,,
land,106,408017,0.0-34.0-2.0,"""event"",""trial"",""time""
""blur"",""1"",""3637""
""focus"",""1"",""7087""
""fullscreenenter"",""1"",""7471""
""blur"",""2"",""13834""
""focus"",""2"",""18040""
""blur"",""12"",""83000""
""focus"",""12"",""90639""
""blur"",""14"",""109560""
""focus"",""16"",""140483""
","""event"",""trial"",""time""
""blur"",""1"",""3637""
""blur"",""2"",""13834""
""blur"",""12"",""83000""
""blur"",""14"",""109560""
","""event"",""trial"",""time""
""focus"",""1"",""7087""
""focus"",""2"",""18040""
""focus"",""12"",""90639""
""focus"",""16"",""140483""
","""event"",""trial"",""time""
""fullscreenenter"",""1"",""7471""
","
",,null,run_exp/static/images/task_images/land.jpg,null,,,,,,,104,,,5,,,,,,,,,,,,,,
dig,107,410021,0.0-34.0-3.0,"""event"",""trial"",""time""
""blur"",""1"",""3637""
""focus"",""1"",""7087""
""fullscreenenter"",""1"",""7471""
""blur"",""2"",""13834""
""focus"",""2"",""18040""
""blur"",""12"",""83000""
""focus"",""12"",""90639""
""blur"",""14"",""109560""
""focus"",""16"",""140483""
","""event"",""trial"",""time""
""blur"",""1"",""3637""
""blur"",""2"",""13834""
""blur"",""12"",""83000""
""blur"",""14"",""109560""
","""event"",""trial"",""time""
""focus"",""1"",""7087""
""focus"",""2"",""18040""
""focus"",""12"",""90639""
""focus"",""16"",""140483""
","""event"",""trial"",""time""
""fullscreenenter"",""1"",""7471""
","
",,,,,,,,,,,,"[{""stimulus"":""run_exp/static/images/task_images/dig.jpg"",""time"":0.20000000298023224},{""stimulus"":""run_exp/static/images/task_images/land.jpg"",""time"":675.9000000059605},{""stimulus"":""run_exp/static/images/task_images/dig.jpg"",""time"":1340.2000000029802}]",[],5,,,,,,,,,,,,,,
harvest,108,411031,0.0-34.0-4.0,"""event"",""trial"",""time""
""blur"",""1"",""3637""
""focus"",""1"",""7087""
""fullscreenenter"",""1"",""7471""
""blur"",""2"",""13834""
""focus"",""2"",""18040""
""blur"",""12"",""83000""
""focus"",""12"",""90639""
""blur"",""14"",""109560""
""focus"",""16"",""140483""
","""event"",""trial"",""time""
""blur"",""1"",""3637""
""blur"",""2"",""13834""
""blur"",""12"",""83000""
""blur"",""14"",""109560""
","""event"",""trial"",""time""
""focus"",""1"",""7087""
""focus"",""2"",""18040""
""focus"",""12"",""90639""
""focus"",""16"",""140483""
","""event"",""trial"",""time""
""fullscreenenter"",""1"",""7471""
","
",,null,run_exp/static/images/task_images/gems/104.jpg,null,,,,,,,62,,,5,,,,,104,0.600055445,0.596153846,,,,,,,
decision,109,411151,0.0-34.0-5.0,"""event"",""trial"",""time""
""blur"",""1"",""3637""
""focus"",""1"",""7087""
""fullscreenenter"",""1"",""7471""
""blur"",""2"",""13834""
""focus"",""2"",""18040""
""blur"",""12"",""83000""
""focus"",""12"",""90639""
""blur"",""14"",""109560""
""focus"",""16"",""140483""
","""event"",""trial"",""time""
""blur"",""1"",""3637""
""blur"",""2"",""13834""
""blur"",""12"",""83000""
""blur"",""14"",""109560""
","""event"",""trial"",""time""
""focus"",""1"",""7087""
""focus"",""2"",""18040""
""focus"",""12"",""90639""
""focus"",""16"",""140483""
","""event"",""trial"",""time""
""fullscreenenter"",""1"",""7471""
","
",,119.4,run_exp/static/images/task_images/land.jpg,65,,,,,,,62,,,5,,,,,,,,110918,1,0,FALSE,,,
dig,110,414037,0.0-35.0-0.0,"""event"",""trial"",""time""
""blur"",""1"",""3637""
""focus"",""1"",""7087""
""fullscreenenter"",""1"",""7471""
""blur"",""2"",""13834""
""focus"",""2"",""18040""
""blur"",""12"",""83000""
""focus"",""12"",""90639""
""blur"",""14"",""109560""
""focus"",""16"",""140483""
","""event"",""trial"",""time""
""blur"",""1"",""3637""
""blur"",""2"",""13834""
""blur"",""12"",""83000""
""blur"",""14"",""109560""
","""event"",""trial"",""time""
""focus"",""1"",""7087""
""focus"",""2"",""18040""
""focus"",""12"",""90639""
""focus"",""16"",""140483""
","""event"",""trial"",""time""
""fullscreenenter"",""1"",""7471""
","
",,,,,,,,,,,,"[{""stimulus"":""run_exp/static/images/task_images/dig.jpg"",""time"":0.10000000894069672},{""stimulus"":""run_exp/static/images/task_images/land.jpg"",""time"":964},{""stimulus"":""run_exp/static/images/task_images/dig.jpg"",""time"":1924.800000011921}]",[],5,,,,,,,,,,,,,,
harvest,111,415046,0.0-35.0-1.0,"""event"",""trial"",""time""
""blur"",""1"",""3637""
""focus"",""1"",""7087""
""fullscreenenter"",""1"",""7471""
""blur"",""2"",""13834""
""focus"",""2"",""18040""
""blur"",""12"",""83000""
""focus"",""12"",""90639""
""blur"",""14"",""109560""
""focus"",""16"",""140483""
","""event"",""trial"",""time""
""blur"",""1"",""3637""
""blur"",""2"",""13834""
""blur"",""12"",""83000""
""blur"",""14"",""109560""
","""event"",""trial"",""time""
""focus"",""1"",""7087""
""focus"",""2"",""18040""
""focus"",""12"",""90639""
""focus"",""16"",""140483""
","""event"",""trial"",""time""
""fullscreenenter"",""1"",""7471""
","
",,null,run_exp/static/images/task_images/gems/62.jpg,null,,,,,,,34,,,5,,,,,62,0.540921072,0.548387097,,,,,,,
decision,112,415232,0.0-35.0-2.0,"""event"",""trial"",""time""
""blur"",""1"",""3637""
""focus"",""1"",""7087""
""fullscreenenter"",""1"",""7471""
""blur"",""2"",""13834""
""focus"",""2"",""18040""
