trial_type,trial_index,time_elapsed,internal_node_id,interactions,blur_events,focus_events,fullscreenenter_events,fullscreenexit_events,success,rt,stimulus,key_press,prompt,subject_id,participant_id,age,gender,button_pressed,next_reward,animation_sequence,responses,planet,curr_prac_trial,n_prac_rounds,alien,aliens,reward_received,decay_rate_actual,decay_rate_exp,time_in_block,block_num,prt,last_trial_on_planet,button_html,bonus,num_failures
pavlovia,0,2,0.0-0.0,"""event"",""trial"",""time""
""fullscreenenter"",""1"",""1383""
","
","
","""event"",""trial"",""time""
""fullscreenenter"",""1"",""1383""
","
",,,,,,,,,,,,,,,,,,,,,,,,,,,,
fullscreen,1,2357,0.0-1.0,"""event"",""trial"",""time""
""fullscreenenter"",""1"",""1383""
","
","
","""event"",""trial"",""time""
""fullscreenenter"",""1"",""1383""
","
",TRUE,,,,,,,,,,,,,,,,,,,,,,,,,,,
instruc_welcome,2,12275,0.0-2.0,"""event"",""trial"",""time""
""fullscreenenter"",""1"",""1383""
","
","
","""event"",""trial"",""time""
""fullscreenenter"",""1"",""1383""
","
",,null,run_exp/static/audio/clip_1_welcome.m4a,null,"<p>Howdy! In this experiment, you’ll be an explorer traveling through space to collect space treasure.</p><p>Your mission is to collect as much treasure as possible.</p><br><br><p><img src='run_exp/static/images/task_images/opening_img-01.jpg' height='300' width='auto'></p>",9243,1272,20.38,Female,,,,,,,,,,,,,,,,,,,
audio-keyboard-response,3,29063,0.0-3.0,"""event"",""trial"",""time""
""fullscreenenter"",""1"",""1383""
","
","
","""event"",""trial"",""time""
""fullscreenenter"",""1"",""1383""
","
",,null,run_exp/static/audio/clip_2_move.m4a,null,,,,,,,,,,,,,,,,,,,,,,,,
welcome_dec,4,29719,0.0-4.0,"""event"",""trial"",""time""
""fullscreenenter"",""1"",""1383""
","
","
","""event"",""trial"",""time""
""fullscreenenter"",""1"",""1383""
","
",,652.1000001,"<p>Howdy! In this experiment, you’ll be an explorer traveling through space to collect space treasure.</p><p>Your mission is to collect as much treasure as possible.</p><br><br><p><img src='run_exp/static/images/task_images/opening_img-01.jpg' height='300' width='auto'></p>",,,,,,,1,,,,,,,,,,,,,,,,,,
html-keyboard-response,5,30457,0.0-5.0,"""event"",""trial"",""time""
""fullscreenenter"",""1"",""1383""
","
","
","""event"",""trial"",""time""
""fullscreenenter"",""1"",""1383""
","
",,735.4000001,"<p>Howdy! In this experiment, you’ll be an explorer traveling through space to collect space treasure.</p><p>Your mission is to collect as much treasure as possible.</p><br><br><p><img src='run_exp/static/images/task_images/opening_img-01.jpg' height='300' width='auto'></p><button class=""jspsych-html-btn-unchosen""><img src=""run_exp/static/images/task_images/planet-01.jpg"" height=""50""></button><button class=""jspsych-html-btn-chosen""><img src=""run_exp/static/images/task_images/planet-02.jpg"" height=""50""></button><p><b>[press the space bar to lock in your answer]<b><br></p>",32,,,,,,,,,,,,,,,,,,,,,,,,
instruc_goal,6,40689,0.0-6.0-0.0,"""event"",""trial"",""time""
""fullscreenenter"",""1"",""1383""
","
","
","""event"",""trial"",""time""
""fullscreenenter"",""1"",""1383""
","
",,null,run_exp/static/audio/clip_3_goal.m4a,null,"<p> As a space explorer, you’ll visit different planets to dig for space treasure, these pink gems.</p> <p> The more treasure you dig up, the more bonus money you’ll win! </p><br><br><p><img src='run_exp/static/images/task_images/pink_gem.jpg' height='300' width='auto'></p>",,,,,,,,,,,,,,,,,,,,,,,
instruc_goal,7,42715,0.0-6.0-1.0,"""event"",""trial"",""time""
""fullscreenenter"",""1"",""1383""
","
","
","""event"",""trial"",""time""
""fullscreenenter"",""1"",""1383""
","
",,2023.1,"<p> As a space explorer, you’ll visit different planets to dig for space treasure, these pink gems.</p> <p> The more treasure you dig up, the more bonus money you’ll win! </p><br><br><p><img src='run_exp/static/images/task_images/pink_gem.jpg' height='300' width='auto'></p>",,,,,,,1,,,,,,,,,,,,,,,,,,
html-keyboard-response,8,42974,0.0-6.0-2.0,"""event"",""trial"",""time""
""fullscreenenter"",""1"",""1383""
","
","
","""event"",""trial"",""time""
""fullscreenenter"",""1"",""1383""
","
",,256,"<p> As a space explorer, you’ll visit different planets to dig for space treasure, these pink gems.</p> <p> The more treasure you dig up, the more bonus money you’ll win! </p><br><br><p><img src='run_exp/static/images/task_images/pink_gem.jpg' height='300' width='auto'></p><button class=""jspsych-html-btn-unchosen""><img src=""run_exp/static/images/task_images/planet-01.jpg"" height=""50""></button><button class=""jspsych-html-btn-chosen""><img src=""run_exp/static/images/task_images/planet-02.jpg"" height=""50""></button><p><b>[press the space bar to lock in your answer]<b><br></p>",32,,,,,,,,,,,,,,,,,,,,,,,,
instruc_dig,9,59163,0.0-7.0-0.0,"""event"",""trial"",""time""
""fullscreenenter"",""1"",""1383""
","
","
","""event"",""trial"",""time""
""fullscreenenter"",""1"",""1383""
","
",,null,run_exp/static/audio/clip_4_dig.m4a,null,,,,,,,100,,,,,,,,,,,,,,,,,
instruc_dig_try,10,59431,0.0-7.0-1.0,"""event"",""trial"",""time""
""fullscreenenter"",""1"",""1383""
","
","
","""event"",""trial"",""time""
""fullscreenenter"",""1"",""1383""
","
",,264.8999999,"<p> When you’ve arrived at a new planet, you will dig once. </p> <p>Then, you get to decide if you want to stay on the planet and dig again or travel to a new planet and dig there.</p> <p> To stay and dig, press the letter <strong>‘A’</strong> on your keyboard. Try pressing it now! </p><p><img src='run_exp/static/images/task_images/land.jpg'  height='700' width='auto'></p>",65,"<p> When you’ve arrived at a new planet, you will dig once. </p> <p>Then, you get to decide if you want to stay on the planet and dig again or travel to a new planet and dig there.</p> <p> To stay and dig, press the letter <strong>‘A’</strong> on your keyboard. Try pressing it now! </p><p><img src='run_exp/static/images/task_images/land.jpg'  height='700' width='auto'></p>",,,,,,100,,,,,,,,,,,,,,,,,
dig_prac,11,61450,0.0-7.0-2.0,"""event"",""trial"",""time""
""fullscreenenter"",""1"",""1383""
","
","
","""event"",""trial"",""time""
""fullscreenenter"",""1"",""1383""
","
",,,,,,,,,,,,"[{""stimulus"":""run_exp/static/images/task_images/dig.jpg"",""time"":0.39999985694885254},{""stimulus"":""run_exp/static/images/task_images/land.jpg"",""time"":674.5},{""stimulus"":""run_exp/static/images/task_images/dig.jpg"",""time"":1342}]",[],,,,,,,,,,,,,,,
instruc_travel,12,97860,0.0-7.0-3.0,"""event"",""trial"",""time""
""fullscreenenter"",""1"",""1383""
","
","
","""event"",""trial"",""time""
""fullscreenenter"",""1"",""1383""
","
",,null,run_exp/static/audio/clip_5_travel.m4a,null,"<p>Every time you dig up gems, there are less gems on the planet, so the more you dig on a planet the fewer gems you’ll get with each dig.</p><p>When gems are running low, you may want to travel to a new planet. </p> <p>  Planets are very far apart in this galaxy, so it will take some time to travel between them. </p> <br><p>There are lots and lots of planets for you to visit, so you won’t be able to return to any planets you’ve seen before. </p><br><p>To leave this planet and travel to a new one, press the letter <strong>‘L’</strong> on your keyboard. Try pressing it now! </p><p><img src='run_exp/static/images/task_images/rocket-01.jpg'  height='600' width='auto'></p>",,,,,,,,,,,,,,,,,,,,,,,
instruc_travel_try,13,100065,0.0-7.0-4.0,"""event"",""trial"",""time""
""fullscreenenter"",""1"",""1383""
","
","
","""event"",""trial"",""time""
""fullscreenenter"",""1"",""1383""
","
",,2202.8,"<p>Every time you dig up gems, there are less gems on the planet, so the more you dig on a planet the fewer gems you’ll get with each dig.</p><p>When gems are running low, you may want to travel to a new planet. </p> <p>  Planets are very far apart in this galaxy, so it will take some time to travel between them. </p> <br><p>There are lots and lots of planets for you to visit, so you won’t be able to return to any planets you’ve seen before. </p><br><p>To leave this planet and travel to a new one, press the letter <strong>‘L’</strong> on your keyboard. Try pressing it now! </p><p><img src='run_exp/static/images/task_images/rocket-01.jpg'  height='600' width='auto'></p>",76,"<p>Every time you dig up gems, there are less gems on the planet, so the more you dig on a planet the fewer gems you’ll get with each dig.</p><p>When gems are running low, you may want to travel to a new planet. </p> <p>  Planets are very far apart in this galaxy, so it will take some time to travel between them. </p> <br><p>There are lots and lots of planets for you to visit, so you won’t be able to return to any planets you’ve seen before. </p><br><p>To leave this planet and travel to a new one, press the letter <strong>‘L’</strong> on your keyboard. Try pressing it now! </p><p><img src='run_exp/static/images/task_images/rocket-01.jpg'  height='600' width='auto'></p>",,,,,,,,,,,,,,,,,,,,,,,
travel_prac,14,110069,0.0-7.0-5.0,"""event"",""trial"",""time""
""fullscreenenter"",""1"",""1383""
","
","
","""event"",""trial"",""time""
""fullscreenenter"",""1"",""1383""
","
",,,,,,,,,,,,"[{""stimulus"":""run_exp/static/images/task_images/rocket-01.jpg"",""time"":0.3000001907348633},{""stimulus"":""run_exp/static/images/task_images/rocket-02.jpg"",""time"":1117.4000000953674},{""stimulus"":""run_exp/static/images/task_images/rocket-03.jpg"",""time"":2226.4000000953674},{""stimulus"":""run_exp/static/images/task_images/rocket-04.jpg"",""time"":3338.800000190735},{""stimulus"":""run_exp/static/images/task_images/rocket-05.jpg"",""time"":4454.900000095367},{""stimulus"":""run_exp/static/images/task_images/rocket-06.jpg"",""time"":5566.600000143051},{""stimulus"":""run_exp/static/images/task_images/rocket-07.jpg"",""time"":6675.900000095367},{""stimulus"":""run_exp/static/images/task_images/rocket-08.jpg"",""time"":7787.400000095367},{""stimulus"":""run_exp/static/images/task_images/rocket-09.jpg"",""time"":8894.900000095367}]",[],0,,,,,,,,,,,,,,
instruc_alien_greet,15,137454,0.0-7.0-6.0,"""event"",""trial"",""time""
""fullscreenenter"",""1"",""1383""
","
","
","""event"",""trial"",""time""
""fullscreenenter"",""1"",""1383""
","
",,null,run_exp/static/audio/clip_6_alien.m4a,null,"<p>When you arrive at a new planet, the alien who owns the treasure mine on that planet will greet you!</p><p>The better an alien takes care of their mine the easier it is to dig for gems. Some aliens take better care of their mine than others. So, you won’t get exactly the same amount of gems on each planet.</p><p>What the alien looks like does not tell you anything about how many gems there are on the planet.</p><br><p><img src=""run_exp/static/images/task_images/aliens/instructions_aliens/planet/alien_planet-1.jpg""  height=""600"" width=""auto""></p>",,,,,,,,,,,,,,,,,,,,,,,
instruc_alien_greet,16,141616,0.0-7.0-7.0,"""event"",""trial"",""time""
""fullscreenenter"",""1"",""1383""
","
","
","""event"",""trial"",""time""
""fullscreenenter"",""1"",""1383""
","
",,4160.5,"<p>When you arrive at a new planet, the alien who owns the treasure mine on that planet will greet you!</p><p>The better an alien takes care of their mine the easier it is to dig for gems. Some aliens take better care of their mine than others. So, you won’t get exactly the same amount of gems on each planet.</p><p>What the alien looks like does not tell you anything about how many gems there are on the planet.</p><br><p><img src=""run_exp/static/images/task_images/aliens/instructions_aliens/planet/alien_planet-1.jpg""  height=""600"" width=""auto""></p>",,,,,,,1,,,,,,,,,,,,,,,,,,
html-keyboard-response,17,143479,0.0-7.0-8.0,"""event"",""trial"",""time""
""fullscreenenter"",""1"",""1383""
","
","
","""event"",""trial"",""time""
""fullscreenenter"",""1"",""1383""
","
",,1860.9,"<p>When you arrive at a new planet, the alien who owns the treasure mine on that planet will greet you!</p><p>The better an alien takes care of their mine the easier it is to dig for gems. Some aliens take better care of their mine than others. So, you won’t get exactly the same amount of gems on each planet.</p><p>What the alien looks like does not tell you anything about how many gems there are on the planet.</p><br><p><img src=""run_exp/static/images/task_images/aliens/instructions_aliens/planet/alien_planet-1.jpg""  height=""600"" width=""auto""></p><button class=""jspsych-html-btn-unchosen""><img src=""run_exp/static/images/task_images/planet-01.jpg"" height=""50""></button><button class=""jspsych-html-btn-chosen""><img src=""run_exp/static/images/task_images/planet-02.jpg"" height=""50""></button><p><b>[press the space bar to lock in your answer]<b><br></p>",32,,,,,,,,,,,,,,,,,,,,,,,,
time_out,18,154733,0.0-8.0-0.0,"""event"",""trial"",""time""
""fullscreenenter"",""1"",""1383""
","
","
","""event"",""trial"",""time""
""fullscreenenter"",""1"",""1383""
","
",,null,run_exp/static/audio/clip_7_timeout.m4a,null,"<p>If you don't make your choice fast enough, you’ll have to wait a few seconds before you can make another one.</p><p>You can’t dig for more gems or travel to new planets. You just have to sit and wait.</p><br><p><img src='run_exp/static/images/task_images/time_out.jpg'  height='600' width='auto'></p>",,,,,,,,,,,,,,,,,,,,,,,
time_out,19,156169,0.0-8.0-1.0,"""event"",""trial"",""time""
""fullscreenenter"",""1"",""1383""
","
","
","""event"",""trial"",""time""
""fullscreenenter"",""1"",""1383""
","
",,1432,"<p>If you don't make your choice fast enough, you’ll have to wait a few seconds before you can make another one.</p><p>You can’t dig for more gems or travel to new planets. You just have to sit and wait.</p><br><p><img src='run_exp/static/images/task_images/time_out.jpg'  height='600' width='auto'></p>",,,,,,,1,,,,,,,,,,,,,,,,,,
html-keyboard-response,20,156462,0.0-8.0-2.0,"""event"",""trial"",""time""
""fullscreenenter"",""1"",""1383""
","
","
","""event"",""trial"",""time""
""fullscreenenter"",""1"",""1383""
","
",,291.8,"<p>If you don't make your choice fast enough, you’ll have to wait a few seconds before you can make another one.</p><p>You can’t dig for more gems or travel to new planets. You just have to sit and wait.</p><br><p><img src='run_exp/static/images/task_images/time_out.jpg'  height='600' width='auto'></p><button class=""jspsych-html-btn-unchosen""><img src=""run_exp/static/images/task_images/planet-01.jpg"" height=""50""></button><button class=""jspsych-html-btn-chosen""><img src=""run_exp/static/images/task_images/planet-02.jpg"" height=""50""></button><p><b>[press the space bar to lock in your answer]<b><br></p>",32,,,,,,,,,,,,,,,,,,,,,,,,
instruc_break,21,172311,0.0-9.0-0.0,"""event"",""trial"",""time""
""fullscreenenter"",""1"",""1383""
","
","
","""event"",""trial"",""time""
""fullscreenenter"",""1"",""1383""
","
",,null,run_exp/static/audio/clip_8_break.m4a,null,"<p> After digging and traveling for a while, you’ll be able to take a break at home base. </p><p>The game will last 20 minutes no matter what.</p><p>You will visit home base every 5 minutes, so, you will visit home base three times during the game.</p><br><p><img src='run_exp/static/images/task_images/home_base.jpg' height='600' width='auto'></p>",,,,,,,,,,,,,,,,,,,,,,,
instruc_break,22,174239,0.0-9.0-1.0,"""event"",""trial"",""time""
""fullscreenenter"",""1"",""1383""
","
","
","""event"",""trial"",""time""
""fullscreenenter"",""1"",""1383""
","
",,1924.1,"<p> After digging and traveling for a while, you’ll be able to take a break at home base. </p><p>The game will last 20 minutes no matter what.</p><p>You will visit home base every 5 minutes, so, you will visit home base three times during the game.</p><br><p><img src='run_exp/static/images/task_images/home_base.jpg' height='600' width='auto'></p>",,,,,,,1,,,,,,,,,,,,,,,,,,
html-keyboard-response,23,174507,0.0-9.0-2.0,"""event"",""trial"",""time""
""fullscreenenter"",""1"",""1383""
","
","
","""event"",""trial"",""time""
""fullscreenenter"",""1"",""1383""
","
",,266.5,"<p> After digging and traveling for a while, you’ll be able to take a break at home base. </p><p>The game will last 20 minutes no matter what.</p><p>You will visit home base every 5 minutes, so, you will visit home base three times during the game.</p><br><p><img src='run_exp/static/images/task_images/home_base.jpg' height='600' width='auto'></p><button class=""jspsych-html-btn-unchosen""><img src=""run_exp/static/images/task_images/planet-01.jpg"" height=""50""></button><button class=""jspsych-html-btn-chosen""><img src=""run_exp/static/images/task_images/planet-02.jpg"" height=""50""></button><p><b>[press the space bar to lock in your answer]<b><br></p>",32,,,,,,,,,,,,,,,,,,,,,,,,
instruc_prac_game,24,184812,0.0-10.0-0.0,"""event"",""trial"",""time""
""fullscreenenter"",""1"",""1383""
","
","
","""event"",""trial"",""time""
""fullscreenenter"",""1"",""1383""
","
",,null,run_exp/static/audio/clip_9_practice.m4a,null,"<p> Are you ready to play a practice game? </p> <p>In this practice game, you'll be digging up barrels of gems. But, in the real game, you'll be digging up the gems themselves. </p>",,,,,,,,,,,,,,,,,,,,,,,
html-button-response,25,186149,0.0-10.0-1.0,"""event"",""trial"",""time""
""fullscreenenter"",""1"",""1383""
","
","
","""event"",""trial"",""time""
""fullscreenenter"",""1"",""1383""
","
",,1334.6,"<p> Are you ready to play a practice game? </p> <p>In this practice game, you'll be digging up barrels of gems. But, in the real game, you'll be digging up the gems themselves. </p>",,,,,,,0,,,,,,,,,,,,,,,,,,
alien_welcome_prac,26,191157,0.0-11.0-0.0,"""event"",""trial"",""time""
""fullscreenenter"",""1"",""1383""
","
","
","""event"",""trial"",""time""
""fullscreenenter"",""1"",""1383""
","
",,null,run_exp/static/images/task_images/aliens/practice_aliens/planet/alien_planet-5.jpg,null,,,,,,,,,,,,,,,,,,,,,,,,
land_prac,27,191666,0.0-11.0-1.0,"""event"",""trial"",""time""
""fullscreenenter"",""1"",""1383""
","
","
","""event"",""trial"",""time""
""fullscreenenter"",""1"",""1383""
","
",,null,run_exp/static/images/task_images/land.jpg,null,,,,,,,96,,,0,,,,,,,,,,,,,,
dig_prac,28,193678,0.0-11.0-2.0,"""event"",""trial"",""time""
""fullscreenenter"",""1"",""1383""
","
","
","""event"",""trial"",""time""
""fullscreenenter"",""1"",""1383""
","
",,,,,,,,,,,,"[{""stimulus"":""run_exp/static/images/task_images/dig.jpg"",""time"":0.5},{""stimulus"":""run_exp/static/images/task_images/land.jpg"",""time"":677.5},{""stimulus"":""run_exp/static/images/task_images/dig.jpg"",""time"":1342.5999999046326}]",[],,,,,,,,,,,,,,,
harvest_prac,29,194682,0.0-11.0-3.0,"""event"",""trial"",""time""
""fullscreenenter"",""1"",""1383""
","
","
","""event"",""trial"",""time""
""fullscreenenter"",""1"",""1383""
","
",,null,run_exp/static/images/task_images/barrel_text.jpg,null,,,,,,,,,,,,,,,,,,,,,,,,
decision_prac,30,197360,0.0-11.0-4.0,"""event"",""trial"",""time""
""fullscreenenter"",""1"",""1383""
","
","
","""event"",""trial"",""time""
""fullscreenenter"",""1"",""1383""
","
",,2677.3,run_exp/static/images/task_images/land.jpg,65,,,,,,,,,,,1,,,,,,,,,,,,,
dig_prac,31,199374,0.0-12.0-0.0,"""event"",""trial"",""time""
""fullscreenenter"",""1"",""1383""
","
","
","""event"",""trial"",""time""
""fullscreenenter"",""1"",""1383""
","
",,,,,,,,,,,,"[{""stimulus"":""run_exp/static/images/task_images/dig.jpg"",""time"":0.39999985694885254},{""stimulus"":""run_exp/static/images/task_images/land.jpg"",""time"":678.5},{""stimulus"":""run_exp/static/images/task_images/dig.jpg"",""time"":1344.2000000476837}]",[],,,,,,,,,,,,,,,
harvest_prac,32,200378,0.0-12.0-1.0,"""event"",""trial"",""time""
""fullscreenenter"",""1"",""1383""
","
","
","""event"",""trial"",""time""
""fullscreenenter"",""1"",""1383""
","
",,null,run_exp/static/images/task_images/barrel_text.jpg,null,,,,,,,,,,,,,,,,,,,,,,,,
decision_prac,33,201903,0.0-12.0-2.0,"""event"",""trial"",""time""
""fullscreenenter"",""1"",""1383""
","
","
","""event"",""trial"",""time""
""fullscreenenter"",""1"",""1383""
","
",,1523,run_exp/static/images/task_images/land.jpg,65,,,,,,,,,,,2,,,,,,,,,,,,,
dig_prac,34,203918,0.0-13.0-0.0,"""event"",""trial"",""time""
""fullscreenenter"",""1"",""1383""
","
","
","""event"",""trial"",""time""
""fullscreenenter"",""1"",""1383""
","
",,,,,,,,,,,,"[{""stimulus"":""run_exp/static/images/task_images/dig.jpg"",""time"":0.2999999523162842},{""stimulus"":""run_exp/static/images/task_images/land.jpg"",""time"":674.2000000476837},{""stimulus"":""run_exp/static/images/task_images/dig.jpg"",""time"":1341.8999998569489}]",[],,,,,,,,,,,,,,,
harvest_prac,35,204921,0.0-13.0-1.0,"""event"",""trial"",""time""
""fullscreenenter"",""1"",""1383""
","
","
","""event"",""trial"",""time""
""fullscreenenter"",""1"",""1383""
","
",,null,run_exp/static/images/task_images/barrel_text.jpg,null,,,,,,,,,,,,,,,,,,,,,,,,
decision_prac,36,206601,0.0-13.0-2.0,"""event"",""trial"",""time""
""fullscreenenter"",""1"",""1383""
","
","
","""event"",""trial"",""time""
""fullscreenenter"",""1"",""1383""
","
",,1677.8,run_exp/static/images/task_images/land.jpg,76,,,,,,,,,,,3,,,,,,,,,,,,,
travel,37,214929,0.0-14.0-0.0,"""event"",""trial"",""time""
""fullscreenenter"",""1"",""1383""
","
","
","""event"",""trial"",""time""
""fullscreenenter"",""1"",""1383""
","
",,,,,,,,,,,,"[{""stimulus"":""run_exp/static/images/task_images/rocket-01.jpg"",""time"":0.09999990463256836},{""stimulus"":""run_exp/static/images/task_images/rocket-02.jpg"",""time"":933},{""stimulus"":""run_exp/static/images/task_images/rocket-03.jpg"",""time"":1855.9000000953674},{""stimulus"":""run_exp/static/images/task_images/rocket-04.jpg"",""time"":2783},{""stimulus"":""run_exp/static/images/task_images/rocket-05.jpg"",""time"":3703.9000000953674},{""stimulus"":""run_exp/static/images/task_images/rocket-06.jpg"",""time"":4631.900000095367},{""stimulus"":""run_exp/static/images/task_images/rocket-07.jpg"",""time"":5551.900000095367},{""stimulus"":""run_exp/static/images/task_images/rocket-08.jpg"",""time"":6479.900000095367},{""stimulus"":""run_exp/static/images/task_images/rocket-09.jpg"",""time"":7395.700000047684}]",[],0,,,,,,,,,,,,,,
alien_welcome_prac,38,219939,0.0-14.0-1.0,"""event"",""trial"",""time""
""fullscreenenter"",""1"",""1383""
","
","
","""event"",""trial"",""time""
""fullscreenenter"",""1"",""1383""
","
",,null,run_exp/static/images/task_images/aliens/practice_aliens/planet/alien_planet-4.jpg,null,,,,,,,,,,,,,,,,,,,,,,,,
land_prac,39,220449,0.0-14.0-2.0,"""event"",""trial"",""time""
""fullscreenenter"",""1"",""1383""
","
","
","""event"",""trial"",""time""
""fullscreenenter"",""1"",""1383""
","
",,null,run_exp/static/images/task_images/land.jpg,null,,,,,,,95,,,0,,,,,,,,,,,,,,
dig_prac,40,222458,0.0-14.0-3.0,"""event"",""trial"",""time""
""fullscreenenter"",""1"",""1383""
","
","
","""event"",""trial"",""time""
""fullscreenenter"",""1"",""1383""
","
",,,,,,,,,,,,"[{""stimulus"":""run_exp/static/images/task_images/dig.jpg"",""time"":0.5999999046325684},{""stimulus"":""run_exp/static/images/task_images/land.jpg"",""time"":670.0999999046326},{""stimulus"":""run_exp/static/images/task_images/dig.jpg"",""time"":1337.7999999523163}]",[],,,,,,,,,,,,,,,
harvest_prac,41,223469,0.0-14.0-4.0,"""event"",""trial"",""time""
""fullscreenenter"",""1"",""1383""
","
","
","""event"",""trial"",""time""
""fullscreenenter"",""1"",""1383""
","
",,null,run_exp/static/images/task_images/barrel_text.jpg,null,,,,,,,,,,,,,,,,,,,,,,,,
decision_prac,42,224475,0.0-14.0-5.0,"""event"",""trial"",""time""
""fullscreenenter"",""1"",""1383""
","
","
","""event"",""trial"",""time""
""fullscreenenter"",""1"",""1383""
","
",,1004.3,run_exp/static/images/task_images/land.jpg,65,,,,,,,,,,,4,,,,,,,,,,,,,
dig_prac,43,226481,0.0-15.0-0.0,"""event"",""trial"",""time""
""fullscreenenter"",""1"",""1383""
","
","
","""event"",""trial"",""time""
""fullscreenenter"",""1"",""1383""
","
",,,,,,,,,,,,"[{""stimulus"":""run_exp/static/images/task_images/dig.jpg"",""time"":0.10000014305114746},{""stimulus"":""run_exp/static/images/task_images/land.jpg"",""time"":680.2000000476837},{""stimulus"":""run_exp/static/images/task_images/dig.jpg"",""time"":1340.1000001430511}]",[],,,,,,,,,,,,,,,
harvest_prac,44,227488,0.0-15.0-1.0,"""event"",""trial"",""time""
""fullscreenenter"",""1"",""1383""
","
","
","""event"",""trial"",""time""
""fullscreenenter"",""1"",""1383""
","
",,null,run_exp/static/images/task_images/barrel_text.jpg,null,,,,,,,,,,,,,,,,,,,,,,,,
decision_prac,45,228280,0.0-15.0-2.0,"""event"",""trial"",""time""
""fullscreenenter"",""1"",""1383""
","
","
","""event"",""trial"",""time""
""fullscreenenter"",""1"",""1383""
","
",,789.5999999,run_exp/static/images/task_images/land.jpg,65,,,,,,,,,,,,1,,,,,,,,,,,,
quiz_instruc,46,231385,0.0-16.0-0.0,"""event"",""trial"",""time""
""fullscreenenter"",""1"",""1383""
","
","
","""event"",""trial"",""time""
""fullscreenenter"",""1"",""1383""
","
",,3101.5,run_exp/static/audio/clip_10_quiz.m4a,,,,,,,0,,,,,,,,,,,,,,,,,,
instruc_repeat,47,274399,0.0-16.0-1.0,"""event"",""trial"",""time""
""fullscreenenter"",""1"",""1383""
","
","
","""event"",""trial"",""time""
""fullscreenenter"",""1"",""1383""
","
",,null,"<p> Are you ready to play a practice game? </p> <p>In this practice game, you'll be digging up barrels of gems. But, in the real game, you'll be digging up the gems themselves. </p>",null,"<p>In this game, your goal is to collect as many gems as you can. That’s how you will win bonus money. </p> <p>The entire game will last 20 minutes no matter how many gems you collect or how many planets you visit. </p><p>To stay on a planet and dig again, press the letter A on your keyboard. To leave for a new planet, press the letter L.</p><p>The more you dig on a planet, the fewer gems you’ll get with each dig which is why you might consider leaving for a new planet. </p><p>When you arrive at a new planet, you’ll be greeted by an alien. What the alien looks like does not tell you anything about how much treasure is on the planet. </p>",,,,,,,,,,,,,,,,,,,,,,,
instruc_repeat_continue,48,275906,0.0-16.0-2.0,"""event"",""trial"",""time""
""fullscreenenter"",""1"",""1383""
","
","
","""event"",""trial"",""time""
""fullscreenenter"",""1"",""1383""
","
",,1496.9,"<p> Are you ready to play a practice game? </p> <p>In this practice game, you'll be digging up barrels of gems. But, in the real game, you'll be digging up the gems themselves. </p>",,,,,,,0,,,,,,,,,,,,,,,,,,
quiz_q_1_ask,49,278516,0.0-16.0-3.0,"""event"",""trial"",""time""
""fullscreenenter"",""1"",""1383""
","
","
","""event"",""trial"",""time""
""fullscreenenter"",""1"",""1383""
","
",,2606.5,run_exp/static/audio/clip_11_q1_ask.m4a,,,,,,,2,,,,,,,,,,,,,,,,,,
quiz_q_1_fb_correct,50,282549,0.0-17.0-0.0,"""event"",""trial"",""time""
""fullscreenenter"",""1"",""1383""
","
","
","""event"",""trial"",""time""
""fullscreenenter"",""1"",""1383""
","
",,null,run_exp/static/audio/clip_12_q1_correct.m4a,null,<p>That’s correct. You win extra money by collecting more gems.</p>,,,,,,,,,,,,,,,,,,,,,,,
quiz_q_2_ask,51,284439,0.0-17.0-1.0,"""event"",""trial"",""time""
""fullscreenenter"",""1"",""1383""
","
","
","""event"",""trial"",""time""
""fullscreenenter"",""1"",""1383""
","
",,1888.8,run_exp/static/audio/clip_14_q2_ask.m4a,,,,,,,1,,,,,,,,,,,,,,,,,,
quiz_q_2_fb_correct,52,288608,0.0-18.0-0.0,"""event"",""trial"",""time""
""fullscreenenter"",""1"",""1383""
","
","
","""event"",""trial"",""time""
""fullscreenenter"",""1"",""1383""
","
",,null,run_exp/static/audio/clip_15_q2_correct.m4a,null,<p>That’s correct. The experiment is 20 minutes no matter what.</p>,,,,,,,,,,,,,,,,,,,,,,,
quiz_q_3_ask,53,290997,0.0-18.0-1.0,"""event"",""trial"",""time""
""fullscreenenter"",""1"",""1383""
","
","
","""event"",""trial"",""time""
""fullscreenenter"",""1"",""1383""
","
",,2386.8,run_exp/static/audio/clip_17_q3_ask.m4a,,,,,,,1,,,,,,,,,,,,,,,,,,
quiz_q_3_fb_correct,54,295136,0.0-19.0-0.0,"""event"",""trial"",""time""
""fullscreenenter"",""1"",""1383""
","
","
","""event"",""trial"",""time""
""fullscreenenter"",""1"",""1383""
","
",,null,run_exp/static/audio/clip_18_q3_correct.m4a,null,<p> That’s correct. You press the letter L to travel to a new planet.</p>,,,,,,,,,,,,,,,,,,,,,,,
quiz_q_4_ask,55,298775,0.0-19.0-1.0,"""event"",""trial"",""time""
""fullscreenenter"",""1"",""1383""
","
","
","""event"",""trial"",""time""
""fullscreenenter"",""1"",""1383""
","
",,3637.2,run_exp/static/audio/clip_20_q4_ask.m4a,,,,,,,0,,,,,,,,,,,,,,,,,,
quiz_q_4_fb_correct,56,304266,0.0-20.0-0.0,"""event"",""trial"",""time""
""fullscreenenter"",""1"",""1383""
","
","
","""event"",""trial"",""time""
""fullscreenenter"",""1"",""1383""
","
",,null,run_exp/static/audio/clip_21_q4_correct.m4a,null,<p> That’s correct. The more you dig on a planet the fewer gems you’ll get with each dig. </p>,,,,,,,,,,,,,,,,,,,,,,,
quiz_q_5_ask,57,306817,0.0-20.0-1.0,"""event"",""trial"",""time""
""fullscreenenter"",""1"",""1383""
","
","
","""event"",""trial"",""time""
""fullscreenenter"",""1"",""1383""
","
",,2548.5,run_exp/static/audio/clip_23_q5_ask.m4a,,,,,,,1,,,,,,,,,,,,,,,,,,
quiz_q_5_fb_correct,58,312010,0.0-21.0-0.0,"""event"",""trial"",""time""
""fullscreenenter"",""1"",""1383""
","
","
","""event"",""trial"",""time""
""fullscreenenter"",""1"",""1383""
","
",,null,run_exp/static/audio/clip_24_q5_correct.m4a,null,<p> That’s correct. The alien tells you nothing about how much treasure is on the planet.</p>,,,,,,,,,,,,,,,,,,,,,,,
quiz_correct,59,315636,0.0-22.0-0.0,"""event"",""trial"",""time""
""fullscreenenter"",""1"",""1383""
","
","
","""event"",""trial"",""time""
""fullscreenenter"",""1"",""1383""
","
",,null,run_exp/static/audio/clip_26_correct_quiz.m4a,null,,,,,,,,,,,,,,,,,,,,,,,,
quiz_correct_continue,60,316760,0.0-22.0-1.0,"""event"",""trial"",""time""
""fullscreenenter"",""1"",""1383""
","
","
","""event"",""trial"",""time""
""fullscreenenter"",""1"",""1383""
","
",,1121.2,<p>Good job! You're now ready to move on to the real game!</p>,,,,,,,0,,,,,,,,,,,,,,,,,,
audio-keyboard-response,61,327050,0.0-22.0-2.0,"""event"",""trial"",""time""
""fullscreenenter"",""1"",""1383""
","
","
","""event"",""trial"",""time""
""fullscreenenter"",""1"",""1383""
","
",,null,run_exp/static/audio/clip_28_real_game.m4a,null,,,,,,,,,,,,,,,,,,,,,,,,
instruc_begin_exp_contine,62,328390,0.0-22.0-3.0,"""event"",""trial"",""time""
""fullscreenenter"",""1"",""1383""
","
","
","""event"",""trial"",""time""
""fullscreenenter"",""1"",""1383""
","
",,1338.8,"<p>Now that you know how  to dig for space treasure and travel to new planets,you can start exploring! </p><p>Do you want to go over the instructions again or get started with the real game?</p>",,,,,,,1,,,,,,1,,,,,,,,,,,,
alien_welcome,63,333401,0.0-23.0-0.0,"""event"",""trial"",""time""
""fullscreenenter"",""1"",""1383""
","
","
","""event"",""trial"",""time""
""fullscreenenter"",""1"",""1383""
","
",,null,run_exp/static/images/task_images/aliens/old_aliens/planet/alien_planet-49.jpg,null,,,,,,,,,,,,,49,"49,59,76,16,22,52,32,50,48,46,60,29,56,30,6,58,1,68,73,5,80,42,19,2,53,64,79,72,39,26,28,18",,,,,,,,,,
land,64,333909,0.0-23.0-1.0,"""event"",""trial"",""time""
""fullscreenenter"",""1"",""1383""
","
","
","""event"",""trial"",""time""
""fullscreenenter"",""1"",""1383""
","
",,null,run_exp/static/images/task_images/land.jpg,null,,,,,,,96,,,1,,,,,,,,,,,,,,
dig,65,335917,0.0-23.0-2.0,"""event"",""trial"",""time""
""fullscreenenter"",""1"",""1383""
","
","
","""event"",""trial"",""time""
""fullscreenenter"",""1"",""1383""
","
",,,,,,,,,,,,"[{""stimulus"":""run_exp/static/images/task_images/dig.jpg"",""time"":0.6000001430511475},{""stimulus"":""run_exp/static/images/task_images/land.jpg"",""time"":669.8000001907349},{""stimulus"":""run_exp/static/images/task_images/dig.jpg"",""time"":1337.9000000953674}]",[],1,,,,,,,,,,,,,,
harvest,66,336926,0.0-23.0-3.0,"""event"",""trial"",""time""
""fullscreenenter"",""1"",""1383""
","
","
","""event"",""trial"",""time""
""fullscreenenter"",""1"",""1383""
","
",,null,run_exp/static/images/task_images/gems/96.jpg,null,,,,,,,22,,,1,,,,,96,0.232048631,0.229166667,,,,,,,
decision,67,338365,0.0-23.0-4.0,"""event"",""trial"",""time""
""fullscreenenter"",""1"",""1383""
","
","
","""event"",""trial"",""time""
""fullscreenenter"",""1"",""1383""
","
",,1436,run_exp/static/images/task_images/land.jpg,65,,,,,,,22,,,1,,,,,,,,9973,1,0,FALSE,,,
dig,68,339940,0.0-24.0-0.0,"""event"",""trial"",""time""
""fullscreenenter"",""1"",""1383""
","
","
","""event"",""trial"",""time""
""fullscreenenter"",""1"",""1383""
","
",,,,,,,,,,,,"[{""stimulus"":""run_exp/static/images/task_images/dig.jpg"",""time"":0.09999990463256836},{""stimulus"":""run_exp/static/images/task_images/land.jpg"",""time"":528.7999999523163},{""stimulus"":""run_exp/static/images/task_images/dig.jpg"",""time"":1049}]",[],1,,,,,,,,,,,,,,
harvest,69,340953,0.0-24.0-1.0,"""event"",""trial"",""time""
""fullscreenenter"",""1"",""1383""
","
","
","""event"",""trial"",""time""
""fullscreenenter"",""1"",""1383""
","
",,null,run_exp/static/images/task_images/gems/22.jpg,null,,,,,,,6,,,1,,,,,22,0.277154975,0.272727273,,,,,,,
decision,70,342315,0.0-24.0-2.0,"""event"",""trial"",""time""
""fullscreenenter"",""1"",""1383""
","
","
","""event"",""trial"",""time""
""fullscreenenter"",""1"",""1383""
","
",,1360.1,run_exp/static/images/task_images/land.jpg,65,,,,,,,6,,,1,,,,,,,,13923,1,1,FALSE,,,
dig,71,343967,0.0-25.0-0.0,"""event"",""trial"",""time""
""fullscreenenter"",""1"",""1383""
","
","
","""event"",""trial"",""time""
""fullscreenenter"",""1"",""1383""
","
",,,,,,,,,,,,"[{""stimulus"":""run_exp/static/images/task_images/dig.jpg"",""time"":0.10000014305114746},{""stimulus"":""run_exp/static/images/task_images/land.jpg"",""time"":554.2000000476837},{""stimulus"":""run_exp/static/images/task_images/dig.jpg"",""time"":1099.5}]",[],1,,,,,,,,,,,,,,
harvest,72,344973,0.0-25.0-1.0,"""event"",""trial"",""time""
""fullscreenenter"",""1"",""1383""
","
","
","""event"",""trial"",""time""
""fullscreenenter"",""1"",""1383""
","
",,null,run_exp/static/images/task_images/gems/6.jpg,null,,,,,,,1,,,1,,,,,6,0.24112044,0.166666667,,,,,,,
decision,73,346126,0.0-25.0-2.0,"""event"",""trial"",""time""
""fullscreenenter"",""1"",""1383""
","
","
","""event"",""trial"",""time""
""fullscreenenter"",""1"",""1383""
","
",,1151.6,run_exp/static/images/task_images/land.jpg,76,,,,,,,1,,,1,,,,,,,,17734,1,2,TRUE,,,
travel,74,354982,0.0-26.0-0.0,"""event"",""trial"",""time""
""fullscreenenter"",""1"",""1383""
","
","
","""event"",""trial"",""time""
""fullscreenenter"",""1"",""1383""
","
",,,,,,,,,,,,"[{""stimulus"":""run_exp/static/images/task_images/rocket-01.jpg"",""time"":0.09999990463256836},{""stimulus"":""run_exp/static/images/task_images/rocket-02.jpg"",""time"":991.2999999523163},{""stimulus"":""run_exp/static/images/task_images/rocket-03.jpg"",""time"":1970.7999999523163},{""stimulus"":""run_exp/static/images/task_images/rocket-04.jpg"",""time"":2955.0999999046326},{""stimulus"":""run_exp/static/images/task_images/rocket-05.jpg"",""time"":3942.5999999046326},{""stimulus"":""run_exp/static/images/task_images/rocket-06.jpg"",""time"":4927.200000047684},{""stimulus"":""run_exp/static/images/task_images/rocket-07.jpg"",""time"":5909.299999952316},{""stimulus"":""run_exp/static/images/task_images/rocket-08.jpg"",""time"":6882.5},{""stimulus"":""run_exp/static/images/task_images/rocket-09.jpg"",""time"":7871}]",[],1,,,,,,,,,,,,,,
alien_welcome,75,359990,0.0-26.0-1.0,"""event"",""trial"",""time""
""fullscreenenter"",""1"",""1383""
","
","
","""event"",""trial"",""time""
""fullscreenenter"",""1"",""1383""
","
",,null,run_exp/static/images/task_images/aliens/old_aliens/planet/alien_planet-59.jpg,null,,,,,,,,,,,,,59,"49,59,76,16,22,52,32,50,48,46,60,29,56,30,6,58,1,68,73,5,80,42,19,2,53,64,79,72,39,26,28,18",,,,,,,,,,
land,76,360501,0.0-26.0-2.0,"""event"",""trial"",""time""
""fullscreenenter"",""1"",""1383""
","
","
","""event"",""trial"",""time""
""fullscreenenter"",""1"",""1383""
","
",,null,run_exp/static/images/task_images/land.jpg,null,,,,,,,98,,,2,,,,,,,,,,,,,,
dig,77,362513,0.0-26.0-3.0,"""event"",""trial"",""time""
""fullscreenenter"",""1"",""1383""
","
","
","""event"",""trial"",""time""
""fullscreenenter"",""1"",""1383""
","
",,,,,,,,,,,,"[{""stimulus"":""run_exp/static/images/task_images/dig.jpg"",""time"":0.5},{""stimulus"":""run_exp/static/images/task_images/land.jpg"",""time"":669.4000000953674},{""stimulus"":""run_exp/static/images/task_images/dig.jpg"",""time"":1337.2000000476837}]",[],2,,,,,,,,,,,,,,
harvest,78,363521,0.0-26.0-4.0,"""event"",""trial"",""time""
""fullscreenenter"",""1"",""1383""
","
","
","""event"",""trial"",""time""
""fullscreenenter"",""1"",""1383""
","
",,null,run_exp/static/images/task_images/gems/98.jpg,null,,,,,,,10,,,2,,,,,98,0.106795948,0.102040816,,,,,,,
decision,79,364044,0.0-26.0-5.0,"""event"",""trial"",""time""
""fullscreenenter"",""1"",""1383""
","
","
","""event"",""trial"",""time""
""fullscreenenter"",""1"",""1383""
","
",,521,run_exp/static/images/task_images/land.jpg,65,,,,,,,10,,,2,,,,,,,,35652,1,0,FALSE,,,
dig,80,366532,0.0-27.0-0.0,"""event"",""trial"",""time""
""fullscreenenter"",""1"",""1383""
","
","
","""event"",""trial"",""time""
""fullscreenenter"",""1"",""1383""
","
",,,,,,,,,,,,"[{""stimulus"":""run_exp/static/images/task_images/dig.jpg"",""time"":0.09999990463256836},{""stimulus"":""run_exp/static/images/task_images/land.jpg"",""time"":833.4000000953674},{""stimulus"":""run_exp/static/images/task_images/dig.jpg"",""time"":1664.5999999046326}]",[],2,,,,,,,,,,,,,,
harvest,81,367545,0.0-27.0-1.0,"""event"",""trial"",""time""
""fullscreenenter"",""1"",""1383""
","
","
","""event"",""trial"",""time""
""fullscreenenter"",""1"",""1383""
","
",,null,run_exp/static/images/task_images/gems/10.jpg,null,,,,,,,3,,,2,,,,,10,0.322302056,0.3,,,,,,,
decision,82,368043,0.0-27.0-2.0,"""event"",""trial"",""time""
""fullscreenenter"",""1"",""1383""
","
","
","""event"",""trial"",""time""
""fullscreenenter"",""1"",""1383""
","
",,495.7,run_exp/static/images/task_images/land.jpg,65,,,,,,,3,,,2,,,,,,,,39651,1,1,FALSE,,,
dig,83,370558,0.0-28.0-0.0,"""event"",""trial"",""time""
""fullscreenenter"",""1"",""1383""
","
","
","""event"",""trial"",""time""
""fullscreenenter"",""1"",""1383""
","
",,,,,,,,,,,,"[{""stimulus"":""run_exp/static/images/task_images/dig.jpg"",""time"":0.5999999046325684},{""stimulus"":""run_exp/static/images/task_images/land.jpg"",""time"":842.0999999046326},{""stimulus"":""run_exp/static/images/task_images/dig.jpg"",""time"":1677.5999999046326}]",[],2,,,,,,,,,,,,,,
harvest,84,371567,0.0-28.0-1.0,"""event"",""trial"",""time""
""fullscreenenter"",""1"",""1383""
","
","
","""event"",""trial"",""time""
""fullscreenenter"",""1"",""1383""
","
",,null,run_exp/static/images/task_images/gems/3.jpg,null,,,,,,,0,,,2,,,,,3,0.140613655,0,,,,,,,
decision,85,374572,0.0-28.0-2.0,"""event"",""trial"",""time""
""fullscreenenter"",""1"",""1383""
","
","
","""event"",""trial"",""time""
""fullscreenenter"",""1"",""1383""
","
",,null,run_exp/static/images/task_images/land.jpg,null,,,,,,,0,,,2,,,,,,,,46180,1,2,FALSE,,,
time_out,86,376585,0.0-29.0-0.0,"""event"",""trial"",""time""
""fullscreenenter"",""1"",""1383""
","
","
","""event"",""trial"",""time""
""fullscreenenter"",""1"",""1383""
","
",,null,run_exp/static/images/task_images/time_out.jpg,null,,,,,,,0,,,,,,,,,,,,,,,,,
decision,87,377491,0.0-29.0-1.0,"""event"",""trial"",""time""
""fullscreenenter"",""1"",""1383""
","
","
","""event"",""trial"",""time""
""fullscreenenter"",""1"",""1383""
","
",,904.8999999,run_exp/static/images/task_images/land.jpg,76,,,,,,,0,,,2,,,,,,,,49100,1,2,TRUE,,,
travel,88,386589,0.0-30.0-0.0,"""event"",""trial"",""time""
""fullscreenenter"",""1"",""1383""
","
","
","""event"",""trial"",""time""
""fullscreenenter"",""1"",""1383""
","
",,,,,,,,,,,,"[{""stimulus"":""run_exp/static/images/task_images/rocket-01.jpg"",""time"":0.10000014305114746},{""stimulus"":""run_exp/static/images/task_images/rocket-02.jpg"",""time"":1013.7000000476837},{""stimulus"":""run_exp/static/images/task_images/rocket-03.jpg"",""time"":2021.2000000476837},{""stimulus"":""run_exp/static/images/task_images/rocket-04.jpg"",""time"":3038.100000143051},{""stimulus"":""run_exp/static/images/task_images/rocket-05.jpg"",""time"":4044},{""stimulus"":""run_exp/static/images/task_images/rocket-06.jpg"",""time"":5057.200000047684},{""stimulus"":""run_exp/static/images/task_images/rocket-07.jpg"",""time"":6065.100000143051},{""stimulus"":""run_exp/static/images/task_images/rocket-08.jpg"",""time"":7076.400000095367},{""stimulus"":""run_exp/static/images/task_images/rocket-09.jpg"",""time"":8089.100000143051}]",[],2,,,,,,,,,,,,,,
alien_welcome,89,391600,0.0-30.0-1.0,"""event"",""trial"",""time""
""fullscreenenter"",""1"",""1383""
","
","
","""event"",""trial"",""time""
""fullscreenenter"",""1"",""1383""
","
",,null,run_exp/static/images/task_images/aliens/old_aliens/planet/alien_planet-76.jpg,null,,,,,,,,,,,,,76,"49,59,76,16,22,52,32,50,48,46,60,29,56,30,6,58,1,68,73,5,80,42,19,2,53,64,79,72,39,26,28,18",,,,,,,,,,
land,90,392108,0.0-30.0-2.0,"""event"",""trial"",""time""
""fullscreenenter"",""1"",""1383""
","
","
","""event"",""trial"",""time""
""fullscreenenter"",""1"",""1383""
","
",,null,run_exp/static/images/task_images/land.jpg,null,,,,,,,102,,,3,,,,,,,,,,,,,,
dig,91,394120,0.0-30.0-3.0,"""event"",""trial"",""time""
""fullscreenenter"",""1"",""1383""
","
","
","""event"",""trial"",""time""
""fullscreenenter"",""1"",""1383""
","
",,,,,,,,,,,,"[{""stimulus"":""run_exp/static/images/task_images/dig.jpg"",""time"":0.5},{""stimulus"":""run_exp/static/images/task_images/land.jpg"",""time"":674.7000000476837},{""stimulus"":""run_exp/static/images/task_images/dig.jpg"",""time"":1342.7999999523163}]",[],3,,,,,,,,,,,,,,
harvest,92,395124,0.0-30.0-4.0,"""event"",""trial"",""time""
""fullscreenenter"",""1"",""1383""
","
","
","""event"",""trial"",""time""
""fullscreenenter"",""1"",""1383""
","
",,null,run_exp/static/images/task_images/gems/102.jpg,null,,,,,,,50,,,3,,,,,102,0.489876532,0.490196078,,,,,,,
decision,93,395444,0.0-30.0-5.0,"""event"",""trial"",""time""
""fullscreenenter"",""1"",""1383""
","
","
","""event"",""trial"",""time""
""fullscreenenter"",""1"",""1383""
","
",,317.5,run_exp/static/images/task_images/land.jpg,65,,,,,,,50,,,3,,,,,,,,67052,1,0,FALSE,,,
dig,94,398136,0.0-31.0-0.0,"""event"",""trial"",""time""
""fullscreenenter"",""1"",""1383""
","
","
","""event"",""trial"",""time""
""fullscreenenter"",""1"",""1383""
","
",,,,,,,,,,,,"[{""stimulus"":""run_exp/static/images/task_images/dig.jpg"",""time"":0.20000004768371582},{""stimulus"":""run_exp/static/images/task_images/land.jpg"",""time"":900.7999999523163},{""stimulus"":""run_exp/static/images/task_images/dig.jpg"",""time"":1800.7000000476837}]",[],3,,,,,,,,,,,,,,
harvest,95,399139,0.0-31.0-1.0,"""event"",""trial"",""time""
""fullscreenenter"",""1"",""1383""
","
","
","""event"",""trial"",""time""
""fullscreenenter"",""1"",""1383""
","
",,null,run_exp/static/images/task_images/gems/50.jpg,null,,,,,,,28,,,3,,,,,50,0.565941854,0.56,,,,,,,
decision,96,400673,0.0-31.0-2.0,"""event"",""trial"",""time""
""fullscreenenter"",""1"",""1383""
","
","
","""event"",""trial"",""time""
""fullscreenenter"",""1"",""1383""
","
",,1531.6,run_exp/static/images/task_images/land.jpg,65,,,,,,,28,,,3,,,,,,,,72281,1,1,FALSE,,,
dig,97,402148,0.0-32.0-0.0,"""event"",""trial"",""time""
""fullscreenenter"",""1"",""1383""
","
","
","""event"",""trial"",""time""
""fullscreenenter"",""1"",""1383""
","
",,,,,,,,,,,,"[{""stimulus"":""run_exp/static/images/task_images/dig.jpg"",""time"":0.20000004768371582},{""stimulus"":""run_exp/static/images/task_images/land.jpg"",""time"":495.40000009536743},{""stimulus"":""run_exp/static/images/task_images/dig.jpg"",""time"":986.2999999523163}]",[],3,,,,,,,,,,,,,,
harvest,98,403160,0.0-32.0-1.0,"""event"",""trial"",""time""
""fullscreenenter"",""1"",""1383""
","
","
","""event"",""trial"",""time""
""fullscreenenter"",""1"",""1383""
","
",,null,run_exp/static/images/task_images/gems/28.jpg,null,,,,,,,16,,,3,,,,,28,0.574422104,0.571428571,,,,,,,
decision,99,403278,0.0-32.0-2.0,"""event"",""trial"",""time""
""fullscreenenter"",""1"",""1383""
","
","
","""event"",""trial"",""time""
""fullscreenenter"",""1"",""1383""
","
",,115.3,run_exp/static/images/task_images/land.jpg,65,,,,,,,16,,,3,,,,,,,,74886,1,2,FALSE,,,
dig,100,406171,0.0-33.0-0.0,"""event"",""trial"",""time""
""fullscreenenter"",""1"",""1383""
","
","
","""event"",""trial"",""time""
""fullscreenenter"",""1"",""1383""
","
",,,,,,,,,,,,"[{""stimulus"":""run_exp/static/images/task_images/dig.jpg"",""time"":0.20000004768371582},{""stimulus"":""run_exp/static/images/task_images/land.jpg"",""time"":972.2000000476837},{""stimulus"":""run_exp/static/images/task_images/dig.jpg"",""time"":1928.2000000476837}]",[],3,,,,,,,,,,,,,,
harvest,101,407183,0.0-33.0-1.0,"""event"",""trial"",""time""
""fullscreenenter"",""1"",""1383""
","
","
","""event"",""trial"",""time""
""fullscreenenter"",""1"",""1383""
","
",,null,run_exp/static/images/task_images/gems/16.jpg,null,,,,,,,7,,,3,,,,,16,0.433927276,0.4375,,,,,,,
decision,102,408101,0.0-33.0-2.0,"""event"",""trial"",""time""
""fullscreenenter"",""1"",""1383""
","
","
","""event"",""trial"",""time""
""fullscreenenter"",""1"",""1383""
","
",,915.4000001,run_exp/static/images/task_images/land.jpg,65,,,,,,,7,,,3,,,,,,,,79709,1,3,FALSE,,,
dig,103,410200,0.0-34.0-0.0,"""event"",""trial"",""time""
""fullscreenenter"",""1"",""1383""
","
","
","""event"",""trial"",""time""
""fullscreenenter"",""1"",""1383""
","
",,,,,,,,,,,,"[{""stimulus"":""run_exp/static/images/task_images/dig.jpg"",""time"":0.09999990463256836},{""stimulus"":""run_exp/static/images/task_images/land.jpg"",""time"":702.8999998569489},{""stimulus"":""run_exp/static/images/task_images/dig.jpg"",""time"":1399.0999999046326}]",[],3,,,,,,,,,,,,,,
harvest,104,411206,0.0-34.0-1.0,"""event"",""trial"",""time""
""fullscreenenter"",""1"",""1383""
","
","
","""event"",""trial"",""time""
""fullscreenenter"",""1"",""1383""
","
",,null,run_exp/static/images/task_images/gems/7.jpg,null,,,,,,,4,,,3,,,,,7,0.51123249,0.571428571,,,,,,,
decision,105,411962,0.0-34.0-2.0,"""event"",""trial"",""time""
""fullscreenenter"",""1"",""1383""
","
","
","""event"",""trial"",""time""
""fullscreenenter"",""1"",""1383""
","
",,753,run_exp/static/images/task_images/land.jpg,65,,,,,,,4,,,3,,,,,,,,83570,1,4,FALSE,,,
dig,106,414224,0.0-35.0-0.0,"""event"",""trial"",""time""
""fullscreenenter"",""1"",""1383""
","
","
","""event"",""trial"",""time""
""fullscreenenter"",""1"",""1383""
","
",,,,,,,,,,,,"[{""stimulus"":""run_exp/static/images/task_images/dig.jpg"",""time"":0.2999999523162842},{""stimulus"":""run_exp/static/images/task_images/land.jpg"",""time"":754.9000000953674},{""stimulus"":""run_exp/static/images/task_images/dig.jpg"",""time"":1511.6000001430511}]",[],3,,,,,,,,,,,,,,
harvest,107,415230,0.0-35.0-1.0,"""event"",""trial"",""time""
""fullscreenenter"",""1"",""1383""
","
","
","""event"",""trial"",""time""
""fullscreenenter"",""1"",""1383""
","
",,null,run_exp/static/images/task_images/gems/4.jpg,null,,,,,,,2,,,3,,,,,4,0.495548007,0.5,,,,,,,
decision,108,415372,0.0-35.0-2.0,"""event"",""trial"",""time""
""fullscreenenter"",""1"",""1383""
","
","
","""event"",""trial"",""time""
""fullscreenenter"",""1"",""1383""
","
",,139.6000001,run_exp/static/images/task_images/land.jpg,65,,,,,,,2,,,3,,,,,,,,86980,1,5,FALSE,,,
dig,109,418244,0.0-36.0-0.0,"""event"",""trial"",""time""
""fullscreenenter"",""1"",""1383""
","
","
","""event"",""trial"",""time""
""fullscreenenter"",""1"",""1383""
","
",,,,,,,,,,,,"[{""stimulus"":""run_exp/static/images/task_images/dig.jpg"",""time"":0},{""stimulus"":""run_exp/static/images/task_images/land.jpg"",""time"":959.0999999046326},{""stimulus"":""run_exp/static/images/task_images/dig.jpg"",""time"":1919.4000000953674}]",[],3,,,,,,,,,,,,,,
harvest,110,419252,0.0-36.0-1.0,"""event"",""trial"",""time""
""fullscreenenter"",""1"",""1383""
","
","
","""event"",""trial"",""time""
""fullscreenenter"",""1"",""1383""
","
",,null,run_exp/static/images/task_images/gems/2.jpg,null,,,,,,,1,,,3,,,,,2,0.489651505,0.5,,,,,,,
decision,111,419758,0.0-36.0-2.0,"""event"",""trial"",""time""
""fullscreenenter"",""1"",""1383""
","
","
","""event"",""trial"",""time""
""fullscreenenter"",""1"",""1383""
","
",,504.5,run_exp/static/images/task_images/land.jpg,76,,,,,,,1,,,3,,,,,,,,91367,1,6,TRUE,,,
travel,112,429260,0.0-37.0-0.0,"""event"",""trial"",""time""
""fullscreenenter"",""1"",""1383""
","
","
","""event"",""trial"",""time""
""fullscreenenter"",""1"",""1383""
","
",,,,,,,,,,,,"[{""stimulus"":""run_exp/static/images/task_images/rocket-01.jpg"",""time"":0.20000004768371582},{""stimulus"":""run_exp/static/images/task_images/rocket-02.jpg"",""time"":1060.5999999046326},{""stimulus"":""run_exp/static/images/task_images/rocket-03.jpg"",""time"":2113.0999999046326},{""stimulus"":""run_exp/static/images/task_images/rocket-04.jpg"",""time"":3173.5999999046326},{""stimulus"":""run_exp/static/images/task_images/rocket-05.jpg"",""time"":4227},{""stimulus"":""run_exp/static/images/task_images/rocket-06.jpg"",""time"":5281.700000047684},{""stimulus"":""run_exp/static/images/task_images/rocket-07.jpg"",""time"":6332.599999904633},{""stimulus"":""run_exp/static/images/task_images/rocket-08.jpg"",""time"":7395},{""stimulus"":""run_exp/static/images/task_images/rocket-09.jpg"",""time"":8454}]",[],3,,,,,,,,,,,,,,
alien_welcome,113,434271,0.0-37.0-1.0,"""event"",""trial"",""time""
""fullscreenenter"",""1"",""1383""
","
","
","""event"",""trial"",""time""
""fullscreenenter"",""1"",""1383""
","
",,null,run_exp/static/images/task_images/aliens/old_aliens/planet/alien_planet-16.jpg,null,,,,,,,,,,,,,16,"49,59,76,16,22,52,32,50,48,46,60,29,56,30,6,58,1,68,73,5,80,42,19,2,53,64,79,72,39,26,28,18",,,,,,,,,,
land,114,434783,0.0-37.0-2.0,"""event"",""trial"",""time""
""fullscreenenter"",""1"",""1383""
","
","
","""event"",""trial"",""time""
""fullscreenenter"",""1"",""1383""
","
",,null,run_exp/static/images/task_images/land.jpg,null,,,,,,,100,,,4,,,,,,,,,,,,,,
dig,115,436799,0.0-37.0-3.0,"""event"",""trial"",""time""
""fullscreenenter"",""1"",""1383""
","
","
","""event"",""trial"",""time""
""fullscreenenter"",""1"",""1383""
","
",,,,,,,,,,,,"[{""stimulus"":""run_exp/static/images/task_images/dig.jpg"",""time"":0.5},{""stimulus"":""run_exp/static/images/task_images/land.jpg"",""time"":674.3000001907349},{""stimulus"":""run_exp/static/images/task_images/dig.jpg"",""time"":1338.3000001907349}]",[],4,,,,,,,,,,,,,,
harvest,116,437807,0.0-37.0-4.0,"""event"",""trial"",""time""
""fullscreenenter"",""1"",""1383""
","
","
","""event"",""trial"",""time""
""fullscreenenter"",""1"",""1383""
","
",,null,run_exp/static/images/task_images/gems/100.jpg,null,,,,,,,53,,,4,,,,,100,0.529251462,0.53,,,,,,,
decision,117,438414,0.0-37.0-5.0,"""event"",""trial"",""time""
""fullscreenenter"",""1"",""1383""
","
","
","""event"",""trial"",""time""
""fullscreenenter"",""1"",""1383""
","
",,604.5,run_exp/static/images/task_images/land.jpg,65,,,,,,,53,,,4,,,,,,,,110022,1,0,FALSE,,,
dig,118,440823,0.0-38.0-0.0,"""event"",""trial"",""time""
""fullscreenenter"",""1"",""1383""
","
","
","""event"",""trial"",""time""
""fullscreenenter"",""1"",""1383""
","
",,,,,,,,,,,,"[{""stimulus"":""run_exp/static/images/task_images/dig.jpg"",""time"":0.20000004768371582},{""stimulus"":""run_exp/static/images/task_images/land.jpg"",""time"":801.2999999523163},{""stimulus"":""run_exp/static/images/task_images/dig.jpg"",""time"":1601.7000000476837}]",[],4,,,,,,,,,,,,,,
harvest,119,441830,0.0-38.0-1.0,"""event"",""trial"",""time""
""fullscreenenter"",""1"",""1383""
","
","
","""event"",""trial"",""time""
""fullscreenenter"",""1"",""1383""
","
",,null,run_exp/static/images/task_images/gems/53.jpg,null,,,,,,,28,,,4,,,,,53,0.532791265,0.528301887,,,,,,,
decision,120,442308,0.0-38.0-2.0,"""event"",""trial"",""time""
""fullscreenenter"",""1"",""1383""
","
","
","""event"",""trial"",""time""
""fullscreenenter"",""1"",""1383""
","
",,476,run_exp/static/images/task_images/land.jpg,65,,,,,,,28,,,4,,,,,,,,113916,1,1,FALSE,,,
dig,121,444847,0.0-39.0-0.0,"""event"",""trial"",""time""
""fullscreenenter"",""1"",""1383""
","
","
","""event"",""trial"",""time""
""fullscreenenter"",""1"",""1383""
","
",,,,,,,,,,,,"[{""stimulus"":""run_exp/static/images/task_images/dig.jpg"",""time"":0.2999999523162842},{""stimulus"":""run_exp/static/images/task_images/land.jpg"",""time"":843.3999998569489},{""stimulus"":""run_exp/static/images/task_images/dig.jpg"",""time"":1695.5}]",[],4,,,,,,,,,,,,,,
harvest,122,445852,0.0-39.0-1.0,"""event"",""trial"",""time""
""fullscreenenter"",""1"",""1383""
","
","
","""event"",""trial"",""time""
""fullscreenenter"",""1"",""1383""
","
",,null,run_exp/static/images/task_images/gems/28.jpg,null,,,,,,,14,,,4,,,,,28,0.49455482,0.5,,,,,,,
decision,123,446093,0.0-39.0-2.0,"""event"",""trial"",""time""
""fullscreenenter"",""1"",""1383""
","
","
","""event"",""trial"",""time""
""fullscreenenter"",""1"",""1383""
","
",,237.9000001,run_exp/static/images/task_images/land.jpg,65,,,,,,,14,,,4,,,,,,,,117701,1,2,FALSE,,,
dig,124,448862,0.0-40.0-0.0,"""event"",""trial"",""time""
""fullscreenenter"",""1"",""1383""
","
","
","""event"",""trial"",""time""
""fullscreenenter"",""1"",""1383""
","
",,,,,,,,,,,,"[{""stimulus"":""run_exp/static/images/task_images/dig.jpg"",""time"":0.10000014305114746},{""stimulus"":""run_exp/static/images/task_images/land.jpg"",""time"":924.2000000476837},{""stimulus"":""run_exp/static/images/task_images/dig.jpg"",""time"":1841.7000000476837}]",[],4,,,,,,,,,,,,,,
harvest,125,449871,0.0-40.0-1.0,"""event"",""trial"",""time""
""fullscreenenter"",""1"",""1383""
","
","
","""event"",""trial"",""time""
""fullscreenenter"",""1"",""1383""
","
",,null,run_exp/static/images/task_images/gems/14.jpg,null,,,,,,,8,,,4,,,,,14,0.538872211,0.571428571,,,,,,,
decision,126,450116,0.0-40.0-2.0,"""event"",""trial"",""time""
""fullscreenenter"",""1"",""1383""
","
","
","""event"",""trial"",""time""
""fullscreenenter"",""1"",""1383""
","
",,243,run_exp/static/images/task_images/land.jpg,65,,,,,,,8,,,4,,,,,,,,121724,1,3,FALSE,,,
dig,127,452883,0.0-41.0-0.0,"""event"",""trial"",""time""
""fullscreenenter"",""1"",""1383""
","
","
","""event"",""trial"",""time""
""fullscreenenter"",""1"",""1383""
","
",,,,,,,,,,,,"[{""stimulus"":""run_exp/static/images/task_images/dig.jpg"",""time"":0.20000004768371582},{""stimulus"":""run_exp/static/images/task_images/land.jpg"",""time"":927.5},{""stimulus"":""run_exp/static/images/task_images/dig.jpg"",""time"":1842.7000000476837}]",[],4,,,,,,,,,,,,,,
harvest,128,453890,0.0-41.0-1.0,"""event"",""trial"",""time""
""fullscreenenter"",""1"",""1383""
","
","
","""event"",""trial"",""time""
""fullscreenenter"",""1"",""1383""
","
",,null,run_exp/static/images/task_images/gems/8.jpg,null,,,,,,,4,,,4,,,,,8,0.489257842,0.5,,,,,,,
decision,129,454715,0.0-41.0-2.0,"""event"",""trial"",""time""
""fullscreenenter"",""1"",""1383""
","
","
","""event"",""trial"",""time""
""fullscreenenter"",""1"",""1383""
","
",,822.5999999,run_exp/static/images/task_images/land.jpg,65,,,,,,,4,,,4,,,,,,,,126323,1,4,FALSE,,,
dig,130,456901,0.0-42.0-0.0,"""event"",""trial"",""time""
""fullscreenenter"",""1"",""1383""
","
","
","""event"",""trial"",""time""
""fullscreenenter"",""1"",""1383""
","
",,,,,,,,,,,,"[{""stimulus"":""run_exp/static/images/task_images/dig.jpg"",""time"":0.20000004768371582},{""stimulus"":""run_exp/static/images/task_images/land.jpg"",""time"":734},{""stimulus"":""run_exp/static/images/task_images/dig.jpg"",""time"":1452.2999999523163}]",[],4,,,,,,,,,,,,,,
harvest,131,457911,0.0-42.0-1.0,"""event"",""trial"",""time""
""fullscreenenter"",""1"",""1383""
","
","
","""event"",""trial"",""time""
""fullscreenenter"",""1"",""1383""
","
",,null,run_exp/static/images/task_images/gems/4.jpg,null,,,,,,,2,,,4,,,,,4,0.518861478,0.5,,,,,,,
decision,132,458557,0.0-42.0-2.0,"""event"",""trial"",""time""
""fullscreenenter"",""1"",""1383""
","
","
","""event"",""trial"",""time""
""fullscreenenter"",""1"",""1383""
","
",,643.3000002,run_exp/static/images/task_images/land.jpg,65,,,,,,,2,,,4,,,,,,,,130165,1,5,FALSE,,,
dig,133,460925,0.0-43.0-0.0,"""event"",""trial"",""time""
""fullscreenenter"",""1"",""1383""
","
","
","""event"",""trial"",""time""
""fullscreenenter"",""1"",""1383""
","
",,,,,,,,,,,,"[{""stimulus"":""run_exp/static/images/task_images/dig.jpg"",""time"":0.20000004768371582},{""stimulus"":""run_exp/static/images/task_images/land.jpg"",""time"":793.7000000476837},{""stimulus"":""run_exp/static/images/task_images/dig.jpg"",""time"":1573.8000001907349}]",[],4,,,,,,,,,,,,,,
harvest,134,461931,0.0-43.0-1.0,"""event"",""trial"",""time""
""fullscreenenter"",""1"",""1383""
","
","
","""event"",""trial"",""time""
""fullscreenenter"",""1"",""1383""
","
",,null,run_exp/static/images/task_images/gems/2.jpg,null,,,,,,,1,,,4,,,,,2,0.450193679,0.5,,,,,,,
decision,135,462482,0.0-43.0-2.0,"""event"",""trial"",""time""
""fullscreenenter"",""1"",""1383""
","
","
","""event"",""trial"",""time""
""fullscreenenter"",""1"",""1383""
","
",,550.6000001,run_exp/static/images/task_images/land.jpg,76,,,,,,,1,,,4,,,,,,,,134091,1,6,TRUE,,,
travel,136,471931,0.0-44.0-0.0,"""event"",""trial"",""time""
""fullscreenenter"",""1"",""1383""
","
","
","""event"",""trial"",""time""
""fullscreenenter"",""1"",""1383""
","
",,,,,,,,,,,,"[{""stimulus"":""run_exp/static/images/task_images/rocket-01.jpg"",""time"":0.2999999523162842},{""stimulus"":""run_exp/static/images/task_images/rocket-02.jpg"",""time"":1055.2000000476837},{""stimulus"":""run_exp/static/images/task_images/rocket-03.jpg"",""time"":2102.0999999046326},{""stimulus"":""run_exp/static/images/task_images/rocket-04.jpg"",""time"":3158.5999999046326},{""stimulus"":""run_exp/static/images/task_images/rocket-05.jpg"",""time"":4204.599999904633},{""stimulus"":""run_exp/static/images/task_images/rocket-06.jpg"",""time"":5252},{""stimulus"":""run_exp/static/images/task_images/rocket-07.jpg"",""time"":6302},{""stimulus"":""run_exp/static/images/task_images/rocket-08.jpg"",""time"":7352},{""stimulus"":""run_exp/static/images/task_images/rocket-09.jpg"",""time"":8400.900000095367}]",[],4,,,,,,,,,,,,,,
alien_welcome,137,476938,0.0-44.0-1.0,"""event"",""trial"",""time""
""fullscreenenter"",""1"",""1383""
","
","
","""event"",""trial"",""time""
""fullscreenenter"",""1"",""1383""
","
",,null,run_exp/static/images/task_images/aliens/old_aliens/planet/alien_planet-22.jpg,null,,,,,,,,,,,,,22,"49,59,76,16,22,52,32,50,48,46,60,29,56,30,6,58,1,68,73,5,80,42,19,2,53,64,79,72,39,26,28,18",,,,,,,,,,
land,138,477447,0.0-44.0-2.0,"""event"",""trial"",""time""
""fullscreenenter"",""1"",""1383""
","
","
","""event"",""trial"",""time""
""fullscreenenter"",""1"",""1383""
","
",,null,run_exp/static/images/task_images/land.jpg,null,,,,,,,98,,,5,,,,,,,,,,,,,,
dig,139,479462,0.0-44.0-3.0,"""event"",""trial"",""time""
""fullscreenenter"",""1"",""1383""
","
","
","""event"",""trial"",""time""
""fullscreenenter"",""1"",""1383""
","
",,,,,,,,,,,,"[{""stimulus"":""run_exp/static/images/task_images/dig.jpg"",""time"":0.5},{""stimulus"":""run_exp/static/images/task_images/land.jpg"",""time"":678.0999999046326},{""stimulus"":""run_exp/static/images/task_images/dig.jpg"",""time"":1339.0999999046326}]",[],5,,,,,,,,,,,,,,
harvest,140,480470,0.0-44.0-4.0,"""event"",""trial"",""time""
""fullscreenenter"",""1"",""1383""
","
","
","""event"",""trial"",""time""
""fullscreenenter"",""1"",""1383""
","
",,null,run_exp/static/images/task_images/gems/98.jpg,null,,,,,,,51,,,5,,,,,98,0.521355099,0.520408163,,,,,,,
decision,141,480864,0.0-44.0-5.0,"""event"",""trial"",""time""
""fullscreenenter"",""1"",""1383""
","
","
","""event"",""trial"",""time""
""fullscreenenter"",""1"",""1383""
","
",,391.6999998,run_exp/static/images/task_images/land.jpg,65,,,,,,,51,,,5,,,,,,,,152472,1,0,FALSE,,,
dig,142,483483,0.0-45.0-0.0,"""event"",""trial"",""time""
""fullscreenenter"",""1"",""1383""
","
","
","""event"",""trial"",""time""
""fullscreenenter"",""1"",""1383""
","
",,,,,,,,,,,,"[{""stimulus"":""run_exp/static/images/task_images/dig.jpg"",""time"":0.2999999523162842},{""stimulus"":""run_exp/static/images/task_images/land.jpg"",""time"":882.7999999523163},{""stimulus"":""run_exp/static/images/task_images/dig.jpg"",""time"":1746.7000000476837}]",[],5,,,,,,,,,,,,,,
harvest,143,484495,0.0-45.0-1.0,"""event"",""trial"",""time""
""fullscreenenter"",""1"",""1383""
","
","
","""event"",""trial"",""time""
""fullscreenenter"",""1"",""1383""
","
",,null,run_exp/static/images/task_images/gems/51.jpg,null,,,,,,,27,,,5,,,,,51,0.521956867,0.529411765,,,,,,,
decision,144,485214,0.0-45.0-2.0,"""event"",""trial"",""time""
""fullscreenenter"",""1"",""1383""
","
","
","""event"",""trial"",""time""
""fullscreenenter"",""1"",""1383""
","
",,717,run_exp/static/images/task_images/land.jpg,65,,,,,,,27,,,5,,,,,,,,156822,1,1,FALSE,,,
dig,145,487510,0.0-46.0-0.0,"""event"",""trial"",""time""
""fullscreenenter"",""1"",""1383""
","
","
","""event"",""trial"",""time""
""fullscreenenter"",""1"",""1383""
","
",,,,,,,,,,,,"[{""stimulus"":""run_exp/static/images/task_images/dig.jpg"",""time"":0.20000004768371582},{""stimulus"":""run_exp/static/images/task_images/land.jpg"",""time"":763.2000000476837},{""stimulus"":""run_exp/static/images/task_images/dig.jpg"",""time"":1527.2000000476837}]",[],5,,,,,,,,,,,,,,
harvest,146,488514,0.0-46.0-1.0,"""event"",""trial"",""time""
""fullscreenenter"",""1"",""1383""
","
","
","""event"",""trial"",""time""
""fullscreenenter"",""1"",""1383""
","
",,null,run_exp/static/images/task_images/gems/27.jpg,null,,,,,,,14,,,5,,,,,27,0.525566423,0.518518519,,,,,,,
decision,147,488883,0.0-46.0-2.0,"""event"",""trial"",""time""
""fullscreenenter"",""1"",""1383""
","
","
","""event"",""trial"",""time""
""fullscreenenter"",""1"",""1383""
","
",,366.4000001,run_exp/static/images/task_images/land.jpg,65,,,,,,,14,,,5,,,,,,,,160491,1,2,FALSE,,,
dig,148,491519,0.0-47.0-0.0,"""event"",""trial"",""time""
""fullscreenenter"",""1"",""1383""
","
","
","""event"",""trial"",""time""
""fullscreenenter"",""1"",""1383""
","
",,,,,,,,,,,,"[{""stimulus"":""run_exp/static/images/task_images/dig.jpg"",""time"":0.10000014305114746},{""stimulus"":""run_exp/static/images/task_images/land.jpg"",""time"":883.4000000953674},{""stimulus"":""run_exp/static/images/task_images/dig.jpg"",""time"":1763.7999999523163}]",[],5,,,,,,,,,,,,,,
harvest,149,492527,0.0-47.0-1.0,"""event"",""trial"",""time""
""fullscreenenter"",""1"",""1383""
","
","
","""event"",""trial"",""time""
""fullscreenenter"",""1"",""1383""
","
",,null,run_exp/static/images/task_images/gems/14.jpg,null,,,,,,,7,,,5,,,,,14,0.518533291,0.5,,,,,,,
decision,150,493180,0.0-47.0-2.0,"""event"",""trial"",""time""
""fullscreenenter"",""1"",""1383""
","
","
","""event"",""trial"",""time""
""fullscreenenter"",""1"",""1383""
","
",,651.5,run_exp/static/images/task_images/land.jpg,65,,,,,,,7,,,5,,,,,,,,164789,1,3,FALSE,,,
dig,151,495537,0.0-48.0-0.0,"""event"",""trial"",""time""
""fullscreenenter"",""1"",""1383""
","
","
","""event"",""trial"",""time""
""fullscreenenter"",""1"",""1383""
","
",,,,,,,,,,,,"[{""stimulus"":""run_exp/static/images/task_images/dig.jpg"",""time"":0.19999980926513672},{""stimulus"":""run_exp/static/images/task_images/land.jpg"",""time"":785.3999998569489},{""stimulus"":""run_exp/static/images/task_images/dig.jpg"",""time"":1570.2999999523163}]",[],5,,,,,,,,,,,,,,
harvest,152,496546,0.0-48.0-1.0,"""event"",""trial"",""time""
""fullscreenenter"",""1"",""1383""
","
","
","""event"",""trial"",""time""
""fullscreenenter"",""1"",""1383""
","
",,null,run_exp/static/images/task_images/gems/7.jpg,null,,,,,,,4,,,5,,,,,7,0.547558671,0.571428571,,,,,,,
decision,153,496610,0.0-48.0-2.0,"""event"",""trial"",""time""
""fullscreenenter"",""1"",""1383""
","
","
","""event"",""trial"",""time""
""fullscreenenter"",""1"",""1383""
","
",,60.9000001,run_exp/static/images/task_images/land.jpg,65,,,,,,,4,,,5,,,,,,,,168218,1,4,FALSE,,,
dig,154,499558,0.0-49.0-0.0,"""event"",""trial"",""time""
""fullscreenenter"",""1"",""1383""
","
","
","""event"",""trial"",""time""
""fullscreenenter"",""1"",""1383""
","
",,,,,,,,,,,,"[{""stimulus"":""run_exp/static/images/task_images/dig.jpg"",""time"":0.20000004768371582},{""stimulus"":""run_exp/static/images/task_images/land.jpg"",""time"":981.4000000953674},{""stimulus"":""run_exp/static/images/task_images/dig.jpg"",""time"":1968.2000000476837}]",[],5,,,,,,,,,,,,,,
harvest,155,500562,0.0-49.0-1.0,"""event"",""trial"",""time""
""fullscreenenter"",""1"",""1383""
","
","
","""event"",""trial"",""time""
""fullscreenenter"",""1"",""1383""
","
",,null,run_exp/static/images/task_images/gems/4.jpg,null,,,,,,,2,,,5,,,,,4,0.49402809,0.5,,,,,,,
decision,156,501312,0.0-49.0-2.0,"""event"",""trial"",""time""
""fullscreenenter"",""1"",""1383""
","
","
","""event"",""trial"",""time""
""fullscreenenter"",""1"",""1383""
","
",,747.3,run_exp/static/images/task_images/land.jpg,65,,,,,,,2,,,5,,,,,,,,172920,1,5,FALSE,,,
dig,157,503570,0.0-50.0-0.0,"""event"",""trial"",""time""
""fullscreenenter"",""1"",""1383""
","
","
","""event"",""trial"",""time""
""fullscreenenter"",""1"",""1383""
","
",,,,,,,,,,,,"[{""stimulus"":""run_exp/static/images/task_images/dig.jpg"",""time"":0.10000014305114746},{""stimulus"":""run_exp/static/images/task_images/land.jpg"",""time"":762.3000001907349},{""stimulus"":""run_exp/static/images/task_images/dig.jpg"",""time"":1502.3000001907349}]",[],5,,,,,,,,,,,,,,
harvest,158,504582,0.0-50.0-1.0,"""event"",""trial"",""time""
""fullscreenenter"",""1"",""1383""
","
","
","""event"",""trial"",""time""
""fullscreenenter"",""1"",""1383""
","
",,null,run_exp/static/images/task_images/gems/2.jpg,null,,,,,,,1,,,5,,,,,2,0.46831014,0.5,,,,,,,
decision,159,506025,0.0-50.0-2.0,"""event"",""trial"",""time""
""fullscreenenter"",""1"",""1383""
","
","
","""event"",""trial"",""time""
""fullscreenenter"",""1"",""1383""
","
",,1440.4,run_exp/static/images/task_images/land.jpg,76,,,,,,,1,,,5,,,,,,,,177633,1,6,TRUE,,,
travel,160,514594,0.0-51.0-0.0,"""event"",""trial"",""time""
""fullscreenenter"",""1"",""1383""
","
","
","""event"",""trial"",""time""
""fullscreenenter"",""1"",""1383""
","
",,,,,,,,,,,,"[{""stimulus"":""run_exp/static/images/task_images/rocket-01.jpg"",""time"":0.19999980926513672},{""stimulus"":""run_exp/static/images/task_images/rocket-02.jpg"",""time"":958},{""stimulus"":""run_exp/static/images/task_images/rocket-03.jpg"",""time"":1908.0999999046326},{""stimulus"":""run_exp/static/images/task_images/rocket-04.jpg"",""time"":2862},{""stimulus"":""run_exp/static/images/task_images/rocket-05.jpg"",""time"":3813},{""stimulus"":""run_exp/static/images/task_images/rocket-06.jpg"",""time"":4769},{""stimulus"":""run_exp/static/images/task_images/rocket-07.jpg"",""time"":5708},{""stimulus"":""run_exp/static/images/task_images/rocket-08.jpg"",""time"":6663.699999809265},{""stimulus"":""run_exp/static/images/task_images/rocket-09.jpg"",""time"":7616.699999809265}]",[],5,,,,,,,,,,,,,,
alien_welcome,161,519606,0.0-51.0-1.0,"""event"",""trial"",""time""
""fullscreenenter"",""1"",""1383""
","
","
","""event"",""trial"",""time""
""fullscreenenter"",""1"",""1383""
","
",,null,run_exp/static/images/task_images/aliens/old_aliens/planet/alien_planet-52.jpg,null,,,,,,,,,,,,,52,"49,59,76,16,22,52,32,50,48,46,60,29,56,30,6,58,1,68,73,5,80,42,19,2,53,64,79,72,39,26,28,18",,,,,,,,,,
land,162,520118,0.0-51.0-2.0,"""event"",""trial"",""time""
""fullscreenenter"",""1"",""1383""
","
","
","""event"",""trial"",""time""
""fullscreenenter"",""1"",""1383""
","
",,null,run_exp/static/images/task_images/land.jpg,null,,,,,,,95,,,6,,,,,,,,,,,,,,
dig,163,522133,0.0-51.0-3.0,"""event"",""trial"",""time""
""fullscreenenter"",""1"",""1383""
","
","
","""event"",""trial"",""time""
""fullscreenenter"",""1"",""1383""
","
",,,,,,,,,,,,"[{""stimulus"":""run_exp/static/images/task_images/dig.jpg"",""time"":0.5},{""stimulus"":""run_exp/static/images/task_images/land.jpg"",""time"":673.5},{""stimulus"":""run_exp/static/images/task_images/dig.jpg"",""time"":1337.8999998569489}]",[],6,,,,,,,,,,,,,,
harvest,164,523137,0.0-51.0-4.0,"""event"",""trial"",""time""
""fullscreenenter"",""1"",""1383""
","
","
","""event"",""trial"",""time""
""fullscreenenter"",""1"",""1383""
","
",,null,run_exp/static/images/task_images/gems/95.jpg,null,,,,,,,76,,,6,,,,,95,0.803685003,0.8,,,,,,,
decision,165,523436,0.0-51.0-5.0,"""event"",""trial"",""time""
""fullscreenenter"",""1"",""1383""
","
","
","""event"",""trial"",""time""
""fullscreenenter"",""1"",""1383""
","
",,296.5999999,run_exp/static/images/task_images/land.jpg,65,,,,,,,76,,,6,,,,,,,,195044,1,0,FALSE,,,
dig,166,526158,0.0-52.0-0.0,"""event"",""trial"",""time""
""fullscreenenter"",""1"",""1383""
","
","
","""event"",""trial"",""time""
""fullscreenenter"",""1"",""1383""
","
",,,,,,,,,,,,"[{""stimulus"":""run_exp/static/images/task_images/dig.jpg"",""time"":0.09999990463256836},{""stimulus"":""run_exp/static/images/task_images/land.jpg"",""time"":908.4000000953674},{""stimulus"":""run_exp/static/images/task_images/dig.jpg"",""time"":1808.4000000953674}]",[],6,,,,,,,,,,,,,,
harvest,167,527166,0.0-52.0-1.0,"""event"",""trial"",""time""
""fullscreenenter"",""1"",""1383""
","
","
","""event"",""trial"",""time""
""fullscreenenter"",""1"",""1383""
","
",,null,run_exp/static/images/task_images/gems/76.jpg,null,,,,,,,49,,,6,,,,,76,0.645859548,0.644736842,,,,,,,
decision,168,529047,0.0-52.0-2.0,"""event"",""trial"",""time""
""fullscreenenter"",""1"",""1383""
","
","
","""event"",""trial"",""time""
""fullscreenenter"",""1"",""1383""
","
",,1879.1,run_exp/static/images/task_images/land.jpg,65,,,,,,,49,,,6,,,,,,,,200655,1,1,FALSE,,,
dig,169,530180,0.0-53.0-0.0,"""event"",""trial"",""time""
""fullscreenenter"",""1"",""1383""
","
","
","""event"",""trial"",""time""
""fullscreenenter"",""1"",""1383""
","
",,,,,,,,,,,,"[{""stimulus"":""run_exp/static/images/task_images/dig.jpg"",""time"":0.2999999523162842},{""stimulus"":""run_exp/static/images/task_images/land.jpg"",""time"":386},{""stimulus"":""run_exp/static/images/task_images/dig.jpg"",""time"":754.7999999523163}]",[],6,,,,,,,,,,,,,,
harvest,170,531190,0.0-53.0-1.0,"""event"",""trial"",""time""
""fullscreenenter"",""1"",""1383""
","
","
","""event"",""trial"",""time""
""fullscreenenter"",""1"",""1383""
","
",,null,run_exp/static/images/task_images/gems/49.jpg,null,,,,,,,36,,,6,,,,,49,0.732356292,0.734693878,,,,,,,
decision,171,531613,0.0-53.0-2.0,"""event"",""trial"",""time""
""fullscreenenter"",""1"",""1383""
","
","
","""event"",""trial"",""time""
""fullscreenenter"",""1"",""1383""
","
",,421.1999998,run_exp/static/images/task_images/land.jpg,65,,,,,,,36,,,6,,,,,,,,203221,1,2,FALSE,,,
dig,172,534202,0.0-54.0-0.0,"""event"",""trial"",""time""
""fullscreenenter"",""1"",""1383""
","
","
","""event"",""trial"",""time""
""fullscreenenter"",""1"",""1383""
","
",,,,,,,,,,,,"[{""stimulus"":""run_exp/static/images/task_images/dig.jpg"",""time"":0.20000004768371582},{""stimulus"":""run_exp/static/images/task_images/land.jpg"",""time"":868.2000000476837},{""stimulus"":""run_exp/static/images/task_images/dig.jpg"",""time"":1719.2999999523163}]",[],6,,,,,,,,,,,,,,
harvest,173,535210,0.0-54.0-1.0,"""event"",""trial"",""time""
""fullscreenenter"",""1"",""1383""
","
","
","""event"",""trial"",""time""
""fullscreenenter"",""1"",""1383""
","
",,null,run_exp/static/images/task_images/gems/36.jpg,null,,,,,,,27,,,6,,,,,36,0.750212043,0.75,,,,,,,
decision,174,535315,0.0-54.0-2.0,"""event"",""trial"",""time""
""fullscreenenter"",""1"",""1383""
","
","
","""event"",""trial"",""time""
""fullscreenenter"",""1"",""1383""
","
",,103.0999999,run_exp/static/images/task_images/land.jpg,65,,,,,,,27,,,6,,,,,,,,206923,1,3,FALSE,,,
dig,175,538221,0.0-55.0-0.0,"""event"",""trial"",""time""
""fullscreenenter"",""1"",""1383""
","
","
","""event"",""trial"",""time""
""fullscreenenter"",""1"",""1383""
","
",,,,,,,,,,,,"[{""stimulus"":""run_exp/static/images/task_images/dig.jpg"",""time"":0.09999990463256836},{""stimulus"":""run_exp/static/images/task_images/land.jpg"",""time"":970.0999999046326},{""stimulus"":""run_exp/static/images/task_images/dig.jpg"",""time"":1942}]",[],6,,,,,,,,,,,,,,
harvest,176,539228,0.0-55.0-1.0,"""event"",""trial"",""time""
""fullscreenenter"",""1"",""1383""
","
","
","""event"",""trial"",""time""
""fullscreenenter"",""1"",""1383""
","
",,null,run_exp/static/images/task_images/gems/27.jpg,null,,,,,,,20,,,6,,,,,27,0.748978194,0.740740741,,,,,,,
decision,177,540999,0.0-55.0-2.0,"""event"",""trial"",""time""
""fullscreenenter"",""1"",""1383""
","
","
","""event"",""trial"",""time""
""fullscreenenter"",""1"",""1383""
","
",,1768.2,run_exp/static/images/task_images/land.jpg,65,,,,,,,20,,,6,,,,,,,,212607,1,4,FALSE,,,
dig,178,542246,0.0-56.0-0.0,"""event"",""trial"",""time""
""fullscreenenter"",""1"",""1383""
","
","
","""event"",""trial"",""time""
""fullscreenenter"",""1"",""1383""
","
",,,,,,,,,,,,"[{""stimulus"":""run_exp/static/images/task_images/dig.jpg"",""time"":0.20000004768371582},{""stimulus"":""run_exp/static/images/task_images/land.jpg"",""time"":419.2000000476837},{""stimulus"":""run_exp/static/images/task_images/dig.jpg"",""time"":826.8999998569489}]",[],6,,,,,,,,,,,,,,
harvest,179,543254,0.0-56.0-1.0,"""event"",""trial"",""time""
""fullscreenenter"",""1"",""1383""
","
","
","""event"",""trial"",""time""
""fullscreenenter"",""1"",""1383""
","
",,null,run_exp/static/images/task_images/gems/20.jpg,null,,,,,,,15,,,6,,,,,20,0.772031743,0.75,,,,,,,
decision,180,543482,0.0-56.0-2.0,"""event"",""trial"",""time""
""fullscreenenter"",""1"",""1383""
","
","
","""event"",""trial"",""time""
""fullscreenenter"",""1"",""1383""
","
",,225.8999999,run_exp/static/images/task_images/land.jpg,65,,,,,,,15,,,6,,,,,,,,215090,1,5,FALSE,,,
dig,181,546269,0.0-57.0-0.0,"""event"",""trial"",""time""
""fullscreenenter"",""1"",""1383""
","
","
","""event"",""trial"",""time""
""fullscreenenter"",""1"",""1383""
","
",,,,,,,,,,,,"[{""stimulus"":""run_exp/static/images/task_images/dig.jpg"",""time"":0.09999990463256836},{""stimulus"":""run_exp/static/images/task_images/land.jpg"",""time"":935.2999999523163},{""stimulus"":""run_exp/static/images/task_images/dig.jpg"",""time"":1855.0999999046326}]",[],6,,,,,,,,,,,,,,
harvest,182,547277,0.0-57.0-1.0,"""event"",""trial"",""time""
""fullscreenenter"",""1"",""1383""
","
","
","""event"",""trial"",""time""
""fullscreenenter"",""1"",""1383""
","
",,null,run_exp/static/images/task_images/gems/15.jpg,null,,,,,,,12,,,6,,,,,15,0.807463862,0.8,,,,,,,
decision,183,547739,0.0-57.0-2.0,"""event"",""trial"",""time""
""fullscreenenter"",""1"",""1383""
","
","
","""event"",""trial"",""time""
""fullscreenenter"",""1"",""1383""
","
",,458.9000001,run_exp/static/images/task_images/land.jpg,65,,,,,,,12,,,6,,,,,,,,219347,1,6,FALSE,,,
dig,184,550293,0.0-58.0-0.0,"""event"",""trial"",""time""
""fullscreenenter"",""1"",""1383""
","
","
","""event"",""trial"",""time""
""fullscreenenter"",""1"",""1383""
","
",,,,,,,,,,,,"[{""stimulus"":""run_exp/static/images/task_images/dig.jpg"",""time"":0.20000004768371582},{""stimulus"":""run_exp/static/images/task_images/land.jpg"",""time"":851.2999999523163},{""stimulus"":""run_exp/static/images/task_images/dig.jpg"",""time"":1702.2000000476837}]",[],6,,,,,,,,,,,,,,
harvest,185,551298,0.0-58.0-1.0,"""event"",""trial"",""time""
""fullscreenenter"",""1"",""1383""
","
","
","""event"",""trial"",""time""
""fullscreenenter"",""1"",""1383""
","
",,null,run_exp/static/images/task_images/gems/12.jpg,null,,,,,,,10,,,6,,,,,12,0.819393392,0.833333333,,,,,,,
decision,186,551799,0.0-58.0-2.0,"""event"",""trial"",""time""
""fullscreenenter"",""1"",""1383""
","
","
","""event"",""trial"",""time""
""fullscreenenter"",""1"",""1383""
","
",,498.2,run_exp/static/images/task_images/land.jpg,65,,,,,,,10,,,6,,,,,,,,223407,1,7,FALSE,,,
dig,187,554309,0.0-59.0-0.0,"""event"",""trial"",""time""
""fullscreenenter"",""1"",""1383""
","
","
","""event"",""trial"",""time""
""fullscreenenter"",""1"",""1383""
","
",,,,,,,,,,,,"[{""stimulus"":""run_exp/static/images/task_images/dig.jpg"",""time"":0.39999985694885254},{""stimulus"":""run_exp/static/images/task_images/land.jpg"",""time"":842},{""stimulus"":""run_exp/static/images/task_images/dig.jpg"",""time"":1668.8999998569489}]",[],6,,,,,,,,,,,,,,
harvest,188,555314,0.0-59.0-1.0,"""event"",""trial"",""time""
""fullscreenenter"",""1"",""1383""
","
","
","""event"",""trial"",""time""
""fullscreenenter"",""1"",""1383""
","
",,null,run_exp/static/images/task_images/gems/10.jpg,null,,,,,,,8,,,6,,,,,10,0.804668102,0.8,,,,,,,
decision,189,555513,0.0-59.0-2.0,"""event"",""trial"",""time""
""fullscreenenter"",""1"",""1383""
","
","
","""event"",""trial"",""time""
""fullscreenenter"",""1"",""1383""
","
",,196.5,run_exp/static/images/task_images/land.jpg,65,,,,,,,8,,,6,,,,,,,,227122,1,8,FALSE,,,
dig,190,558331,0.0-60.0-0.0,"""event"",""trial"",""time""
""fullscreenenter"",""1"",""1383""
","
","
","""event"",""trial"",""time""
""fullscreenenter"",""1"",""1383""
","
",,,,,,,,,,,,"[{""stimulus"":""run_exp/static/images/task_images/dig.jpg"",""time"":0.20000004768371582},{""stimulus"":""run_exp/static/images/task_images/land.jpg"",""time"":943.5},{""stimulus"":""run_exp/static/images/task_images/dig.jpg"",""time"":1879.6000001430511}]",[],6,,,,,,,,,,,,,,
harvest,191,559336,0.0-60.0-1.0,"""event"",""trial"",""time""
""fullscreenenter"",""1"",""1383""
","
","
","""event"",""trial"",""time""
""fullscreenenter"",""1"",""1383""
","
",,null,run_exp/static/images/task_images/gems/8.jpg,null,,,,,,,7,,,6,,,,,8,0.863676111,0.875,,,,,,,
decision,192,559994,0.0-60.0-2.0,"""event"",""trial"",""time""
""fullscreenenter"",""1"",""1383""
","
","
","""event"",""trial"",""time""
""fullscreenenter"",""1"",""1383""
","
",,654.9000001,run_exp/static/images/task_images/land.jpg,65,,,,,,,7,,,6,,,,,,,,231602,1,9,FALSE,,,
dig,193,562345,0.0-61.0-0.0,"""event"",""trial"",""time""
""fullscreenenter"",""1"",""1383""
","
","
","""event"",""trial"",""time""
""fullscreenenter"",""1"",""1383""
","
",,,,,,,,,,,,"[{""stimulus"":""run_exp/static/images/task_images/dig.jpg"",""time"":0.20000004768371582},{""stimulus"":""run_exp/static/images/task_images/land.jpg"",""time"":787.3000001907349},{""stimulus"":""run_exp/static/images/task_images/dig.jpg"",""time"":1570.8000001907349}]",[],6,,,,,,,,,,,,,,
harvest,194,563352,0.0-61.0-1.0,"""event"",""trial"",""time""
""fullscreenenter"",""1"",""1383""
","
","
","""event"",""trial"",""time""
""fullscreenenter"",""1"",""1383""
","
",,null,run_exp/static/images/task_images/gems/7.jpg,null,,,,,,,5,,,6,,,,,7,0.704128282,0.714285714,,,,,,,
decision,195,563599,0.0-61.0-2.0,"""event"",""trial"",""time""
""fullscreenenter"",""1"",""1383""
","
","
","""event"",""trial"",""time""
""fullscreenenter"",""1"",""1383""
","
",,244.5,run_exp/static/images/task_images/land.jpg,65,,,,,,,5,,,6,,,,,,,,235207,1,10,FALSE,,,
dig,196,566361,0.0-62.0-0.0,"""event"",""trial"",""time""
""fullscreenenter"",""1"",""1383""
","
","
","""event"",""trial"",""time""
""fullscreenenter"",""1"",""1383""
","
",,,,,,,,,,,,"[{""stimulus"":""run_exp/static/images/task_images/dig.jpg"",""time"":0.40000009536743164},{""stimulus"":""run_exp/static/images/task_images/land.jpg"",""time"":925.8000001907349},{""stimulus"":""run_exp/static/images/task_images/dig.jpg"",""time"":1845.3000001907349}]",[],6,,,,,,,,,,,,,,
harvest,197,567368,0.0-62.0-1.0,"""event"",""trial"",""time""
""fullscreenenter"",""1"",""1383""
","
","
","""event"",""trial"",""time""
""fullscreenenter"",""1"",""1383""
","
",,null,run_exp/static/images/task_images/gems/5.jpg,null,,,,,,,4,,,6,,,,,5,0.75285405,0.8,,,,,,,
decision,198,567490,0.0-62.0-2.0,"""event"",""trial"",""time""
""fullscreenenter"",""1"",""1383""
","
","
","""event"",""trial"",""time""
""fullscreenenter"",""1"",""1383""
","
",,119.2,run_exp/static/images/task_images/land.jpg,65,,,,,,,4,,,6,,,,,,,,239098,1,11,FALSE,,,
dig,199,570378,0.0-63.0-0.0,"""event"",""trial"",""time""
""fullscreenenter"",""1"",""1383""
","
","
","""event"",""trial"",""time""
""fullscreenenter"",""1"",""1383""
","
",,,,,,,,,,,,"[{""stimulus"":""run_exp/static/images/task_images/dig.jpg"",""time"":0.20000004768371582},{""stimulus"":""run_exp/static/images/task_images/land.jpg"",""time"":967},{""stimulus"":""run_exp/static/images/task_images/dig.jpg"",""time"":1926.9000000953674}]",[],6,,,,,,,,,,,,,,
harvest,200,571386,0.0-63.0-1.0,"""event"",""trial"",""time""
""fullscreenenter"",""1"",""1383""
","
","
","""event"",""trial"",""time""
""fullscreenenter"",""1"",""1383""
","
",,null,run_exp/static/images/task_images/gems/4.jpg,null,,,,,,,3,,,6,,,,,4,0.761227694,0.75,,,,,,,
decision,201,572666,0.0-63.0-2.0,"""event"",""trial"",""time""
""fullscreenenter"",""1"",""1383""
","
","
","""event"",""trial"",""time""
""fullscreenenter"",""1"",""1383""
","
",,1278,run_exp/static/images/task_images/land.jpg,65,,,,,,,3,,,6,,,,,,,,244274,1,12,FALSE,,,
dig,202,574397,0.0-64.0-0.0,"""event"",""trial"",""time""
""fullscreenenter"",""1"",""1383""
","
","
","""event"",""trial"",""time""
""fullscreenenter"",""1"",""1383""
","
",,,,,,,,,,,,"[{""stimulus"":""run_exp/static/images/task_images/dig.jpg"",""time"":0},{""stimulus"":""run_exp/static/images/task_images/land.jpg"",""time"":581.3000001907349},{""stimulus"":""run_exp/static/images/task_images/dig.jpg"",""time"":1160}]",[],6,,,,,,,,,,,,,,
harvest,203,575401,0.0-64.0-1.0,"""event"",""trial"",""time""
""fullscreenenter"",""1"",""1383""
","
","
","""event"",""trial"",""time""
""fullscreenenter"",""1"",""1383""
","
",,null,run_exp/static/images/task_images/gems/3.jpg,null,,,,,,,2,,,6,,,,,3,0.783133619,0.666666667,,,,,,,
decision,204,575403,0.0-64.0-2.0,"""event"",""trial"",""time""
""fullscreenenter"",""1"",""1383""
","
","
","""event"",""trial"",""time""
""fullscreenenter"",""1"",""1383""
","
",,0.200000048,run_exp/static/images/task_images/land.jpg,65,,,,,,,2,,,6,,,,,,,,247011,1,13,FALSE,,,
dig,205,578409,0.0-65.0-0.0,"""event"",""trial"",""time""
""fullscreenenter"",""1"",""1383""
","
","
","""event"",""trial"",""time""
""fullscreenenter"",""1"",""1383""
","
",,,,,,,,,,,,"[{""stimulus"":""run_exp/static/images/task_images/dig.jpg"",""time"":0.20000004768371582},{""stimulus"":""run_exp/static/images/task_images/land.jpg"",""time"":1006.5},{""stimulus"":""run_exp/static/images/task_images/dig.jpg"",""time"":2006.1000001430511}]",[],6,,,,,,,,,,,,,,
harvest,206,579417,0.0-65.0-1.0,"""event"",""trial"",""time""
""fullscreenenter"",""1"",""1383""
","
","
","""event"",""trial"",""time""
""fullscreenenter"",""1"",""1383""
","
",,null,run_exp/static/images/task_images/gems/2.jpg,null,,,,,,,2,,,6,,,,,2,0.75742594,1,,,,,,,
decision,207,580075,0.0-65.0-2.0,"""event"",""trial"",""time""
""fullscreenenter"",""1"",""1383""
","
","
","""event"",""trial"",""time""
""fullscreenenter"",""1"",""1383""
","
",,656.3,run_exp/static/images/task_images/land.jpg,65,,,,,,,2,,,6,,,,,,,,251683,1,14,FALSE,,,
dig,208,582426,0.0-66.0-0.0,"""event"",""trial"",""time""
""fullscreenenter"",""1"",""1383""
","
","
","""event"",""trial"",""time""
""fullscreenenter"",""1"",""1383""
","
",,,,,,,,,,,,"[{""stimulus"":""run_exp/static/images/task_images/dig.jpg"",""time"":0.20000004768371582},{""stimulus"":""run_exp/static/images/task_images/land.jpg"",""time"":785.0999999046326},{""stimulus"":""run_exp/static/images/task_images/dig.jpg"",""time"":1566}]",[],6,,,,,,,,,,,,,,
harvest,209,583436,0.0-66.0-1.0,"""event"",""trial"",""time""
""fullscreenenter"",""1"",""1383""
","
","
","""event"",""trial"",""time""
""fullscreenenter"",""1"",""1383""
","
",,null,run_exp/static/images/task_images/gems/2.jpg,null,,,,,,,1,,,6,,,,,2,0.725217556,0.5,,,,,,,
decision,210,583611,0.0-66.0-2.0,"""event"",""trial"",""time""
""fullscreenenter"",""1"",""1383""
","
","
","""event"",""trial"",""time""
""fullscreenenter"",""1"",""1383""
","
",,172.3,run_exp/static/images/task_images/land.jpg,65,,,,,,,1,,,6,,,,,,,,255219,1,15,FALSE,,,
dig,211,586453,0.0-67.0-0.0,"""event"",""trial"",""time""
""fullscreenenter"",""1"",""1383""
","
","
","""event"",""trial"",""time""
""fullscreenenter"",""1"",""1383""
","
",,,,,,,,,,,,"[{""stimulus"":""run_exp/static/images/task_images/dig.jpg"",""time"":0.09999990463256836},{""stimulus"":""run_exp/static/images/task_images/land.jpg"",""time"":946},{""stimulus"":""run_exp/static/images/task_images/dig.jpg"",""time"":1894.2000000476837}]",[],6,,,,,,,,,,,,,,
harvest,212,587456,0.0-67.0-1.0,"""event"",""trial"",""time""
""fullscreenenter"",""1"",""1383""
","
","
","""event"",""trial"",""time""
""fullscreenenter"",""1"",""1383""
","
",,null,run_exp/static/images/task_images/gems/1.jpg,null,,,,,,,1,,,6,,,,,1,0.71006311,1,,,,,,,
decision,213,588025,0.0-67.0-2.0,"""event"",""trial"",""time""
""fullscreenenter"",""1"",""1383""
","
","
","""event"",""trial"",""time""
""fullscreenenter"",""1"",""1383""
","
",,566.2,run_exp/static/images/task_images/land.jpg,76,,,,,,,1,,,6,,,,,,,,259633,1,16,TRUE,,,
travel,214,597467,0.0-68.0-0.0,"""event"",""trial"",""time""
""fullscreenenter"",""1"",""1383""
","
","
","""event"",""trial"",""time""
""fullscreenenter"",""1"",""1383""
","
",,,,,,,,,,,,"[{""stimulus"":""run_exp/static/images/task_images/rocket-01.jpg"",""time"":0.09999990463256836},{""stimulus"":""run_exp/static/images/task_images/rocket-02.jpg"",""time"":1055.4000000953674},{""stimulus"":""run_exp/static/images/task_images/rocket-03.jpg"",""time"":2103.2999999523163},{""stimulus"":""run_exp/static/images/task_images/rocket-04.jpg"",""time"":3148},{""stimulus"":""run_exp/static/images/task_images/rocket-05.jpg"",""time"":4199.400000095367},{""stimulus"":""run_exp/static/images/task_images/rocket-06.jpg"",""time"":5247.400000095367},{""stimulus"":""run_exp/static/images/task_images/rocket-07.jpg"",""time"":6291.299999952316},{""stimulus"":""run_exp/static/images/task_images/rocket-08.jpg"",""time"":7342.900000095367},{""stimulus"":""run_exp/static/images/task_images/rocket-09.jpg"",""time"":8390.599999904633}]",[],6,,,,,,,,,,,,,,
alien_welcome,215,602476,0.0-68.0-1.0,"""event"",""trial"",""time""
""fullscreenenter"",""1"",""1383""
","
","
","""event"",""trial"",""time""
""fullscreenenter"",""1"",""1383""
","
",,null,run_exp/static/images/task_images/aliens/old_aliens/planet/alien_planet-32.jpg,null,,,,,,,,,,,,,32,"49,59,76,16,22,52,32,50,48,46,60,29,56,30,6,58,1,68,73,5,80,42,19,2,53,64,79,72,39,26,28,18",,,,,,,,,,
land,216,602986,0.0-68.0-2.0,"""event"",""trial"",""time""
""fullscreenenter"",""1"",""1383""
","
","
","""event"",""trial"",""time""
""fullscreenenter"",""1"",""1383""
","
",,null,run_exp/static/images/task_images/land.jpg,null,,,,,,,99,,,7,,,,,,,,,,,,,,
dig,217,604996,0.0-68.0-3.0,"""event"",""trial"",""time""
""fullscreenenter"",""1"",""1383""
","
","
","""event"",""trial"",""time""
""fullscreenenter"",""1"",""1383""
","
",,,,,,,,,,,,"[{""stimulus"":""run_exp/static/images/task_images/dig.jpg"",""time"":0.6000001430511475},{""stimulus"":""run_exp/static/images/task_images/land.jpg"",""time"":680.3000001907349},{""stimulus"":""run_exp/static/images/task_images/dig.jpg"",""time"":1340.7000000476837}]",[],7,,,,,,,,,,,,,,
harvest,218,606004,0.0-68.0-4.0,"""event"",""trial"",""time""
""fullscreenenter"",""1"",""1383""
","
","
","""event"",""trial"",""time""
""fullscreenenter"",""1"",""1383""
","
",,null,run_exp/static/images/task_images/gems/99.jpg,null,,,,,,,85,,,7,,,,,99,0.853914339,0.858585859,,,,,,,
decision,219,606738,0.0-68.0-5.0,"""event"",""trial"",""time""
""fullscreenenter"",""1"",""1383""
","
","
","""event"",""trial"",""time""
""fullscreenenter"",""1"",""1383""
","
",,731.8,run_exp/static/images/task_images/land.jpg,65,,,,,,,85,,,7,,,,,,,,278347,1,0,FALSE,,,
dig,220,609020,0.0-69.0-0.0,"""event"",""trial"",""time""
""fullscreenenter"",""1"",""1383""
","
","
","""event"",""trial"",""time""
""fullscreenenter"",""1"",""1383""
","
",,,,,,,,,,,,"[{""stimulus"":""run_exp/static/images/task_images/dig.jpg"",""time"":0.09999990463256836},{""stimulus"":""run_exp/static/images/task_images/land.jpg"",""time"":764.3999998569489},{""stimulus"":""run_exp/static/images/task_images/dig.jpg"",""time"":1525.0999999046326}]",[],7,,,,,,,,,,,,,,
harvest,221,610025,0.0-69.0-1.0,"""event"",""trial"",""time""
""fullscreenenter"",""1"",""1383""
","
","
","""event"",""trial"",""time""
""fullscreenenter"",""1"",""1383""
","
",,null,run_exp/static/images/task_images/gems/85.jpg,null,,,,,,,72,,,7,,,,,85,0.842979047,0.847058824,,,,,,,
decision,222,610415,0.0-69.0-2.0,"""event"",""trial"",""time""
""fullscreenenter"",""1"",""1383""
","
","
","""event"",""trial"",""time""
""fullscreenenter"",""1"",""1383""
","
",,387.6000001,run_exp/static/images/task_images/land.jpg,65,,,,,,,72,,,7,,,,,,,,282023,1,1,FALSE,,,
dig,223,613035,0.0-70.0-0.0,"""event"",""trial"",""time""
""fullscreenenter"",""1"",""1383""
","
","
","""event"",""trial"",""time""
""fullscreenenter"",""1"",""1383""
","
",,,,,,,,,,,,"[{""stimulus"":""run_exp/static/images/task_images/dig.jpg"",""time"":0.20000004768371582},{""stimulus"":""run_exp/static/images/task_images/land.jpg"",""time"":881.3000001907349},{""stimulus"":""run_exp/static/images/task_images/dig.jpg"",""time"":1748.6000001430511}]",[],7,,,,,,,,,,,,,,
harvest,224,614044,0.0-70.0-1.0,"""event"",""trial"",""time""
""fullscreenenter"",""1"",""1383""
","
","
","""event"",""trial"",""time""
""fullscreenenter"",""1"",""1383""
","
",,null,run_exp/static/images/task_images/gems/72.jpg,null,,,,,,,57,,,7,,,,,72,0.789771845,0.791666667,,,,,,,
decision,225,614259,0.0-70.0-2.0,"""event"",""trial"",""time""
""fullscreenenter"",""1"",""1383""
","
","
","""event"",""trial"",""time""
""fullscreenenter"",""1"",""1383""
","
",,212.5,run_exp/static/images/task_images/land.jpg,65,,,,,,,57,,,7,,,,,,,,285868,1,2,FALSE,,,
dig,226,617059,0.0-71.0-0.0,"""event"",""trial"",""time""
""fullscreenenter"",""1"",""1383""
","
","
","""event"",""trial"",""time""
""fullscreenenter"",""1"",""1383""
","
",,,,,,,,,,,,"[{""stimulus"":""run_exp/static/images/task_images/dig.jpg"",""time"":0.2999999523162842},{""stimulus"":""run_exp/static/images/task_images/land.jpg"",""time"":936.6000001430511},{""stimulus"":""run_exp/static/images/task_images/dig.jpg"",""time"":1864.6000001430511}]",[],7,,,,,,,,,,,,,,
harvest,227,618068,0.0-71.0-1.0,"""event"",""trial"",""time""
""fullscreenenter"",""1"",""1383""
","
","
","""event"",""trial"",""time""
""fullscreenenter"",""1"",""1383""
","
",,null,run_exp/static/images/task_images/gems/57.jpg,null,,,,,,,50,,,7,,,,,57,0.884908064,0.877192982,,,,,,,
decision,228,618108,0.0-71.0-2.0,"""event"",""trial"",""time""
""fullscreenenter"",""1"",""1383""
","
","
","""event"",""trial"",""time""
""fullscreenenter"",""1"",""1383""
","
",,37.5999999,run_exp/static/images/task_images/land.jpg,65,,,,,,,50,,,7,,,,,,,,289716,1,3,FALSE,,,
dig,229,621081,0.0-72.0-0.0,"""event"",""trial"",""time""
""fullscreenenter"",""1"",""1383""
","
","
","""event"",""trial"",""time""
""fullscreenenter"",""1"",""1383""
","
",,,,,,,,,,,,"[{""stimulus"":""run_exp/static/images/task_images/dig.jpg"",""time"":0.2999999523162842},{""stimulus"":""run_exp/static/images/task_images/land.jpg"",""time"":993.1000001430511},{""stimulus"":""run_exp/static/images/task_images/dig.jpg"",""time"":1980.7000000476837}]",[],7,,,,,,,,,,,,,,
harvest,230,622088,0.0-72.0-1.0,"""event"",""trial"",""time""
""fullscreenenter"",""1"",""1383""
","
","
","""event"",""trial"",""time""
""fullscreenenter"",""1"",""1383""
","
",,null,run_exp/static/images/task_images/gems/50.jpg,null,,,,,,,42,,,7,,,,,50,0.831803579,0.84,,,,,,,
decision,231,622391,0.0-72.0-2.0,"""event"",""trial"",""time""
""fullscreenenter"",""1"",""1383""
","
","
","""event"",""trial"",""time""
""fullscreenenter"",""1"",""1383""
","
",,301,run_exp/static/images/task_images/land.jpg,65,,,,,,,42,,,7,,,,,,,,294000,1,4,FALSE,,,
dig,232,625098,0.0-73.0-0.0,"""event"",""trial"",""time""
""fullscreenenter"",""1"",""1383""
","
","
","""event"",""trial"",""time""
""fullscreenenter"",""1"",""1383""
","
",,,,,,,,,,,,"[{""stimulus"":""run_exp/static/images/task_images/dig.jpg"",""time"":0.2999999523162842},{""stimulus"":""run_exp/static/images/task_images/land.jpg"",""time"":912.0999999046326},{""stimulus"":""run_exp/static/images/task_images/dig.jpg"",""time"":1804}]",[],7,,,,,,,,,,,,,,
harvest,233,626108,0.0-73.0-1.0,"""event"",""trial"",""time""
""fullscreenenter"",""1"",""1383""
","
","
","""event"",""trial"",""time""
""fullscreenenter"",""1"",""1383""
","
",,null,run_exp/static/images/task_images/gems/42.jpg,null,,,,,,,32,,,7,,,,,42,0.770837413,0.761904762,,,,,,,
decision,234,626357,0.0-73.0-2.0,"""event"",""trial"",""time""
""fullscreenenter"",""1"",""1383""
","
","
","""event"",""trial"",""time""
""fullscreenenter"",""1"",""1383""
","
",,246.6000001,run_exp/static/images/task_images/land.jpg,65,,,,,,,32,,,7,,,,,,,,297965,1,5,FALSE,,,
dig,235,629122,0.0-74.0-0.0,"""event"",""trial"",""time""
""fullscreenenter"",""1"",""1383""
","
","
","""event"",""trial"",""time""
""fullscreenenter"",""1"",""1383""
","
",,,,,,,,,,,,"[{""stimulus"":""run_exp/static/images/task_images/dig.jpg"",""time"":0.39999985694885254},{""stimulus"":""run_exp/static/images/task_images/land.jpg"",""time"":922.3999998569489},{""stimulus"":""run_exp/static/images/task_images/dig.jpg"",""time"":1843.7999999523163}]",[],7,,,,,,,,,,,,,,
harvest,236,630132,0.0-74.0-1.0,"""event"",""trial"",""time""
""fullscreenenter"",""1"",""1383""
","
","
","""event"",""trial"",""time""
""fullscreenenter"",""1"",""1383""
","
",,null,run_exp/static/images/task_images/gems/32.jpg,null,,,,,,,26,,,7,,,,,32,0.805702904,0.8125,,,,,,,
decision,237,630477,0.0-74.0-2.0,"""event"",""trial"",""time""
""fullscreenenter"",""1"",""1383""
","
","
","""event"",""trial"",""time""
""fullscreenenter"",""1"",""1383""
","
",,342.7,run_exp/static/images/task_images/land.jpg,65,,,,,,,26,,,7,,,,,,,,302085,1,6,TRUE,,,
end_of_block_continue,238,639492,0.0-75.0-0.0,"""event"",""trial"",""time""
""fullscreenenter"",""1"",""1383""
","
","
","""event"",""trial"",""time""
""fullscreenenter"",""1"",""1383""
","
",,null,run_exp/static/audio/clip_32_block_end.m4a,,,,,,,null,,,,,,,,,,,,,,,,,,
alien_welcome,239,644504,0.0-76.0-0.0,"""event"",""trial"",""time""
""fullscreenenter"",""1"",""1383""
","
","
","""event"",""trial"",""time""
""fullscreenenter"",""1"",""1383""
","
",,null,run_exp/static/images/task_images/aliens/old_aliens/planet/alien_planet-50.jpg,null,,,,,,,,,,,,,50,"49,59,76,16,22,52,32,50,48,46,60,29,56,30,6,58,1,68,73,5,80,42,19,2,53,64,79,72,39,26,28,18",,,,,,,,,,
land,240,645011,0.0-76.0-1.0,"""event"",""trial"",""time""
""fullscreenenter"",""1"",""1383""
","
","
","""event"",""trial"",""time""
""fullscreenenter"",""1"",""1383""
","
",,null,run_exp/static/images/task_images/land.jpg,null,,,,,,,107,,,8,,,,,,,,,,,,,,
dig,241,647028,0.0-76.0-2.0,"""event"",""trial"",""time""
""fullscreenenter"",""1"",""1383""
","
","
","""event"",""trial"",""time""
""fullscreenenter"",""1"",""1383""
","
",,,,,,,,,,,,"[{""stimulus"":""run_exp/static/images/task_images/dig.jpg"",""time"":0.5},{""stimulus"":""run_exp/static/images/task_images/land.jpg"",""time"":674.9000000953674},{""stimulus"":""run_exp/static/images/task_images/dig.jpg"",""time"":1339.5999999046326}]",[],8,,,,,,,,,,,,,,
harvest,242,648035,0.0-76.0-3.0,"""event"",""trial"",""time""
""fullscreenenter"",""1"",""1383""
","
","
","""event"",""trial"",""time""
""fullscreenenter"",""1"",""1383""
","
",,null,run_exp/static/images/task_images/gems/107.jpg,null,,,,,,,23,,,8,,,,,107,0.211340562,0.214953271,,,,,,,
decision,243,648039,0.0-76.0-4.0,"""event"",""trial"",""time""
""fullscreenenter"",""1"",""1383""
","
","
","""event"",""trial"",""time""
""fullscreenenter"",""1"",""1383""
","
",,2,run_exp/static/images/task_images/land.jpg,65,,,,,,,23,,,8,,,,,,,,8538,2,0,FALSE,,,
dig,244,651052,0.0-77.0-0.0,"""event"",""trial"",""time""
""fullscreenenter"",""1"",""1383""
","
","
","""event"",""trial"",""time""
""fullscreenenter"",""1"",""1383""
","
",,,,,,,,,,,,"[{""stimulus"":""run_exp/static/images/task_images/dig.jpg"",""time"":0.39999985694885254},{""stimulus"":""run_exp/static/images/task_images/land.jpg"",""time"":1005},{""stimulus"":""run_exp/static/images/task_images/dig.jpg"",""time"":2004.8999998569489}]",[],8,,,,,,,,,,,,,,
harvest,245,652057,0.0-77.0-1.0,"""event"",""trial"",""time""
""fullscreenenter"",""1"",""1383""
","
","
","""event"",""trial"",""time""
""fullscreenenter"",""1"",""1383""
","
",,null,run_exp/static/images/task_images/gems/23.jpg,null,,,,,,,5,,,8,,,,,23,0.226062406,0.217391304,,,,,,,
decision,246,652762,0.0-77.0-2.0,"""event"",""trial"",""time""
""fullscreenenter"",""1"",""1383""
","
","
","""event"",""trial"",""time""
""fullscreenenter"",""1"",""1383""
","
",,701.9000001,run_exp/static/images/task_images/land.jpg,65,,,,,,,5,,,8,,,,,,,,13261,2,1,FALSE,,,
dig,247,655076,0.0-78.0-0.0,"""event"",""trial"",""time""
""fullscreenenter"",""1"",""1383""
","
","
","""event"",""trial"",""time""
""fullscreenenter"",""1"",""1383""
","
",,,,,,,,,,,,"[{""stimulus"":""run_exp/static/images/task_images/dig.jpg"",""time"":0.09999990463256836},{""stimulus"":""run_exp/static/images/task_images/land.jpg"",""time"":769.2999999523163},{""stimulus"":""run_exp/static/images/task_images/dig.jpg"",""time"":1542.3999998569489}]",[],8,,,,,,,,,,,,,,
harvest,248,656084,0.0-78.0-1.0,"""event"",""trial"",""time""
""fullscreenenter"",""1"",""1383""
","
","
","""event"",""trial"",""time""
""fullscreenenter"",""1"",""1383""
","
",,null,run_exp/static/images/task_images/gems/5.jpg,null,,,,,,,1,,,8,,,,,5,0.171380576,0.2,,,,,,,
decision,249,658375,0.0-78.0-2.0,"""event"",""trial"",""time""
""fullscreenenter"",""1"",""1383""
","
","
","""event"",""trial"",""time""
""fullscreenenter"",""1"",""1383""
","
",,2288.3,run_exp/static/images/task_images/land.jpg,76,,,,,,,1,,,8,,,,,,,,18874,2,2,TRUE,,,
travel,250,666088,0.0-79.0-0.0,"""event"",""trial"",""time""
""fullscreenenter"",""1"",""1383""
","
","
","""event"",""trial"",""time""
""fullscreenenter"",""1"",""1383""
","
",,,,,,,,,,,,"[{""stimulus"":""run_exp/static/images/task_images/rocket-01.jpg"",""time"":0.2999999523162842},{""stimulus"":""run_exp/static/images/task_images/rocket-02.jpg"",""time"":859.9000000953674},{""stimulus"":""run_exp/static/images/task_images/rocket-03.jpg"",""time"":1720.1000001430511},{""stimulus"":""run_exp/static/images/task_images/rocket-04.jpg"",""time"":2573.100000143051},{""stimulus"":""run_exp/static/images/task_images/rocket-05.jpg"",""time"":3432.100000143051},{""stimulus"":""run_exp/static/images/task_images/rocket-06.jpg"",""time"":4287.5},{""stimulus"":""run_exp/static/images/task_images/rocket-07.jpg"",""time"":5143.299999952316},{""stimulus"":""run_exp/static/images/task_images/rocket-08.jpg"",""time"":6000.200000047684},{""stimulus"":""run_exp/static/images/task_images/rocket-09.jpg"",""time"":6855.299999952316}]",[],8,,,,,,,,,,,,,,
alien_welcome,251,671099,0.0-79.0-1.0,"""event"",""trial"",""time""
""fullscreenenter"",""1"",""1383""
","
","
","""event"",""trial"",""time""
""fullscreenenter"",""1"",""1383""
","
",,null,run_exp/static/images/task_images/aliens/old_aliens/planet/alien_planet-48.jpg,null,,,,,,,,,,,,,48,"49,59,76,16,22,52,32,50,48,46,60,29,56,30,6,58,1,68,73,5,80,42,19,2,53,64,79,72,39,26,28,18",,,,,,,,,,
land,252,671611,0.0-79.0-2.0,"""event"",""trial"",""time""
""fullscreenenter"",""1"",""1383""
","
","
","""event"",""trial"",""time""
""fullscreenenter"",""1"",""1383""
","
",,null,run_exp/static/images/task_images/land.jpg,null,,,,,,,104,,,9,,,,,,,,,,,,,,
dig,253,673627,0.0-79.0-3.0,"""event"",""trial"",""time""
""fullscreenenter"",""1"",""1383""
","
","
","""event"",""trial"",""time""
""fullscreenenter"",""1"",""1383""
","
