trial_type,trial_index,time_elapsed,internal_node_id,success,rt,stimulus,key_press,prompt,subject_id,age,gender,button_pressed,next_reward,animation_sequence,responses,planet,curr_prac_trial,n_prac_rounds,alien,aliens,reward_received,decay_rate_actual,decay_rate_exp,time_in_block,block_num,prt,last_trial_on_planet,button_html,bonus,num_failures
pavlovia,0,12,0.0-0.0,,,,,,,,,,,,,,,,,,,,,,,,,,,
fullscreen,1,5055,0.0-1.0,TRUE,,,,,,,,,,,,,,,,,,,,,,,,,,
instruc_welcome,2,14867,0.0-2.0,,null,run_exp/static/audio/clip_1_welcome.m4a,null,"<p>Howdy! In this experiment, you’ll be an explorer traveling through space to collect space treasure.</p><p>Your mission is to collect as much treasure as possible.</p><br><br><p><img src='run_exp/static/images/task_images/opening_img-01.jpg' height='300' width='auto'></p>",K38qO4bEzOy6M8P_1Y3uCvx5VSxv8Zo_MLRP_80rBV96HGcuxpCC,14.25,female,,,,,,,,,,,,,,,,,,,
audio-keyboard-response,3,31512,0.0-3.0,,null,run_exp/static/audio/clip_2_move.m4a,null,,,,,,,,,,,,,,,,,,,,,,,
welcome_dec,4,35382,0.0-4.0,,3858.7,"<p>Howdy! In this experiment, you’ll be an explorer traveling through space to collect space treasure.</p><p>Your mission is to collect as much treasure as possible.</p><br><br><p><img src='run_exp/static/images/task_images/opening_img-01.jpg' height='300' width='auto'></p>",,,,,,0,,,,,,,,,,,,,,,,,,
html-keyboard-response,5,36658,0.0-5.0,,1270.9,"<p>Howdy! In this experiment, you’ll be an explorer traveling through space to collect space treasure.</p><p>Your mission is to collect as much treasure as possible.</p><br><br><p><img src='run_exp/static/images/task_images/opening_img-01.jpg' height='300' width='auto'></p><button class=""jspsych-html-btn-chosen""><img src=""run_exp/static/images/task_images/planet-01.jpg"" height=""50""></button><button class=""jspsych-html-btn-unchosen""><img src=""run_exp/static/images/task_images/planet-02.jpg"" height=""50""></button><p><b>[press the space bar to lock in your answer]<b><br></p>",32,,,,,,,,,,,,,,,,,,,,,,,
instruc_welcome,6,46431,0.0-6.0-0.0,,null,run_exp/static/audio/clip_1_welcome.m4a,null,"<p>Howdy! In this experiment, you’ll be an explorer traveling through space to collect space treasure.</p><p>Your mission is to collect as much treasure as possible.</p><br><br><p><img src='run_exp/static/images/task_images/opening_img-01.jpg' height='300' width='auto'></p>",K38qO4bEzOy6M8P_1Y3uCvx5VSxv8Zo_MLRP_80rBV96HGcuxpCC,,,,,,,,,,,,,,,,,,,,,
audio-keyboard-response,7,63090,0.0-6.0-1.0,,null,run_exp/static/audio/clip_2_move.m4a,null,,,,,,,,,,,,,,,,,,,,,,,
welcome_dec,8,64856,0.0-6.0-2.0,,1760.6,"<p>Howdy! In this experiment, you’ll be an explorer traveling through space to collect space treasure.</p><p>Your mission is to collect as much treasure as possible.</p><br><br><p><img src='run_exp/static/images/task_images/opening_img-01.jpg' height='300' width='auto'></p>",,,,,,1,,,,,,,,,,,,,,,,,,
html-keyboard-response,9,65526,0.0-6.0-3.0,,667.2,"<p>Howdy! In this experiment, you’ll be an explorer traveling through space to collect space treasure.</p><p>Your mission is to collect as much treasure as possible.</p><br><br><p><img src='run_exp/static/images/task_images/opening_img-01.jpg' height='300' width='auto'></p><button class=""jspsych-html-btn-unchosen""><img src=""run_exp/static/images/task_images/planet-01.jpg"" height=""50""></button><button class=""jspsych-html-btn-chosen""><img src=""run_exp/static/images/task_images/planet-02.jpg"" height=""50""></button><p><b>[press the space bar to lock in your answer]<b><br></p>",32,,,,,,,,,,,,,,,,,,,,,,,
instruc_goal,10,75630,0.0-7.0-0.0,,null,run_exp/static/audio/clip_3_goal.m4a,null,"<p> As a space explorer, you’ll visit different planets to dig for space treasure, these pink gems.</p> <p> The more treasure you dig up, the more bonus money you’ll win! </p><br><br><p><img src='run_exp/static/images/task_images/pink_gem.jpg' height='300' width='auto'></p>",,,,,,,,,,,,,,,,,,,,,,
instruc_goal,11,77727,0.0-7.0-1.0,,2089.7,"<p> As a space explorer, you’ll visit different planets to dig for space treasure, these pink gems.</p> <p> The more treasure you dig up, the more bonus money you’ll win! </p><br><br><p><img src='run_exp/static/images/task_images/pink_gem.jpg' height='300' width='auto'></p>",,,,,,1,,,,,,,,,,,,,,,,,,
html-keyboard-response,12,81178,0.0-7.0-2.0,,3448.8,"<p> As a space explorer, you’ll visit different planets to dig for space treasure, these pink gems.</p> <p> The more treasure you dig up, the more bonus money you’ll win! </p><br><br><p><img src='run_exp/static/images/task_images/pink_gem.jpg' height='300' width='auto'></p><button class=""jspsych-html-btn-unchosen""><img src=""run_exp/static/images/task_images/planet-01.jpg"" height=""50""></button><button class=""jspsych-html-btn-chosen""><img src=""run_exp/static/images/task_images/planet-02.jpg"" height=""50""></button><p><b>[press the space bar to lock in your answer]<b><br></p>",32,,,,,,,,,,,,,,,,,,,,,,,
instruc_dig,13,97233,0.0-8.0-0.0,,null,run_exp/static/audio/clip_4_dig.m4a,null,,,,,,100,,,,,,,,,,,,,,,,,
instruc_dig_try,14,100755,0.0-8.0-1.0,,3516.1,"<p> When you’ve arrived at a new planet, you will dig once. </p> <p>Then, you get to decide if you want to stay on the planet and dig again or travel to a new planet and dig there.</p> <p> To stay and dig, press the letter <strong>‘A’</strong> on your keyboard. Try pressing it now! </p><p><img src='run_exp/static/images/task_images/land.jpg'  height='700' width='auto'></p>",65,"<p> When you’ve arrived at a new planet, you will dig once. </p> <p>Then, you get to decide if you want to stay on the planet and dig again or travel to a new planet and dig there.</p> <p> To stay and dig, press the letter <strong>‘A’</strong> on your keyboard. Try pressing it now! </p><p><img src='run_exp/static/images/task_images/land.jpg'  height='700' width='auto'></p>",,,,,100,,,,,,,,,,,,,,,,,
dig_prac,15,102839,0.0-8.0-2.0,,,,,,,,,,,"[{""stimulus"":""run_exp/static/images/task_images/dig.jpg"",""time"":0.8999998569488525},{""stimulus"":""run_exp/static/images/task_images/land.jpg"",""time"":673.7999999523163},{""stimulus"":""run_exp/static/images/task_images/dig.jpg"",""time"":1711.5}]",[],,,,,,,,,,,,,,,
instruc_travel,16,139113,0.0-8.0-3.0,,null,run_exp/static/audio/clip_5_travel.m4a,null,"<p>Every time you dig up gems, there are less gems on the planet, so the more you dig on a planet the fewer gems you’ll get with each dig.</p><p>When gems are running low, you may want to travel to a new planet. </p> <p>  Planets are very far apart in this galaxy, so it will take some time to travel between them. </p> <br><p>There are lots and lots of planets for you to visit, so you won’t be able to return to any planets you’ve seen before. </p><br><p>To leave this planet and travel to a new one, press the letter <strong>‘L’</strong> on your keyboard. Try pressing it now! </p><p><img src='run_exp/static/images/task_images/rocket-01.jpg'  height='600' width='auto'></p>",,,,,,,,,,,,,,,,,,,,,,
instruc_travel_try,17,139811,0.0-8.0-4.0,,691.1999998,"<p>Every time you dig up gems, there are less gems on the planet, so the more you dig on a planet the fewer gems you’ll get with each dig.</p><p>When gems are running low, you may want to travel to a new planet. </p> <p>  Planets are very far apart in this galaxy, so it will take some time to travel between them. </p> <br><p>There are lots and lots of planets for you to visit, so you won’t be able to return to any planets you’ve seen before. </p><br><p>To leave this planet and travel to a new one, press the letter <strong>‘L’</strong> on your keyboard. Try pressing it now! </p><p><img src='run_exp/static/images/task_images/rocket-01.jpg'  height='600' width='auto'></p>",76,"<p>Every time you dig up gems, there are less gems on the planet, so the more you dig on a planet the fewer gems you’ll get with each dig.</p><p>When gems are running low, you may want to travel to a new planet. </p> <p>  Planets are very far apart in this galaxy, so it will take some time to travel between them. </p> <br><p>There are lots and lots of planets for you to visit, so you won’t be able to return to any planets you’ve seen before. </p><br><p>To leave this planet and travel to a new one, press the letter <strong>‘L’</strong> on your keyboard. Try pressing it now! </p><p><img src='run_exp/static/images/task_images/rocket-01.jpg'  height='600' width='auto'></p>",,,,,,,,,,,,,,,,,,,,,,
travel_prac,18,149829,0.0-8.0-5.0,,,,,,,,,,,"[{""stimulus"":""run_exp/static/images/task_images/rocket-01.jpg"",""time"":0.7999999523162842},{""stimulus"":""run_exp/static/images/task_images/rocket-02.jpg"",""time"":1124.7999999523163},{""stimulus"":""run_exp/static/images/task_images/rocket-03.jpg"",""time"":2234.699999809265},{""stimulus"":""run_exp/static/images/task_images/rocket-04.jpg"",""time"":3344.699999809265},{""stimulus"":""run_exp/static/images/task_images/rocket-05.jpg"",""time"":4464.599999904633},{""stimulus"":""run_exp/static/images/task_images/rocket-06.jpg"",""time"":5564.299999952316},{""stimulus"":""run_exp/static/images/task_images/rocket-07.jpg"",""time"":6685.899999856949},{""stimulus"":""run_exp/static/images/task_images/rocket-08.jpg"",""time"":7786.399999856949},{""stimulus"":""run_exp/static/images/task_images/rocket-09.jpg"",""time"":8906}]",[],0,,,,,,,,,,,,,,
instruc_alien_greet,19,177049,0.0-8.0-6.0,,null,run_exp/static/audio/clip_6_alien.m4a,null,"<p>When you arrive at a new planet, the alien who owns the treasure mine on that planet will greet you!</p><p>The better an alien takes care of their mine the easier it is to dig for gems. Some aliens take better care of their mine than others. So, you won’t get exactly the same amount of gems on each planet.</p><p>What the alien looks like does not tell you anything about how many gems there are on the planet.</p><br><p><img src=""run_exp/static/images/task_images/aliens/instructions_aliens/planet/alien_planet-1.jpg""  height=""600"" width=""auto""></p>",,,,,,,,,,,,,,,,,,,,,,
instruc_alien_greet,20,193670,0.0-8.0-7.0,,16614.6,"<p>When you arrive at a new planet, the alien who owns the treasure mine on that planet will greet you!</p><p>The better an alien takes care of their mine the easier it is to dig for gems. Some aliens take better care of their mine than others. So, you won’t get exactly the same amount of gems on each planet.</p><p>What the alien looks like does not tell you anything about how many gems there are on the planet.</p><br><p><img src=""run_exp/static/images/task_images/aliens/instructions_aliens/planet/alien_planet-1.jpg""  height=""600"" width=""auto""></p>",,,,,,1,,,,,,,,,,,,,,,,,,
html-keyboard-response,21,195864,0.0-8.0-8.0,,2191.5,"<p>When you arrive at a new planet, the alien who owns the treasure mine on that planet will greet you!</p><p>The better an alien takes care of their mine the easier it is to dig for gems. Some aliens take better care of their mine than others. So, you won’t get exactly the same amount of gems on each planet.</p><p>What the alien looks like does not tell you anything about how many gems there are on the planet.</p><br><p><img src=""run_exp/static/images/task_images/aliens/instructions_aliens/planet/alien_planet-1.jpg""  height=""600"" width=""auto""></p><button class=""jspsych-html-btn-unchosen""><img src=""run_exp/static/images/task_images/planet-01.jpg"" height=""50""></button><button class=""jspsych-html-btn-chosen""><img src=""run_exp/static/images/task_images/planet-02.jpg"" height=""50""></button><p><b>[press the space bar to lock in your answer]<b><br></p>",32,,,,,,,,,,,,,,,,,,,,,,,
time_out,22,207297,0.0-9.0-0.0,,null,run_exp/static/audio/clip_7_timeout.m4a,null,"<p>If you don't make your choice fast enough, you’ll have to wait a few seconds before you can make another one.</p><p>You can’t dig for more gems or travel to new planets. You just have to sit and wait.</p><br><p><img src='run_exp/static/images/task_images/time_out.jpg'  height='600' width='auto'></p>",,,,,,,,,,,,,,,,,,,,,,
time_out,23,209642,0.0-9.0-1.0,,2345.4,"<p>If you don't make your choice fast enough, you’ll have to wait a few seconds before you can make another one.</p><p>You can’t dig for more gems or travel to new planets. You just have to sit and wait.</p><br><p><img src='run_exp/static/images/task_images/time_out.jpg'  height='600' width='auto'></p>",,,,,,1,,,,,,,,,,,,,,,,,,
html-keyboard-response,24,210219,0.0-9.0-2.0,,573.8,"<p>If you don't make your choice fast enough, you’ll have to wait a few seconds before you can make another one.</p><p>You can’t dig for more gems or travel to new planets. You just have to sit and wait.</p><br><p><img src='run_exp/static/images/task_images/time_out.jpg'  height='600' width='auto'></p><button class=""jspsych-html-btn-unchosen""><img src=""run_exp/static/images/task_images/planet-01.jpg"" height=""50""></button><button class=""jspsych-html-btn-chosen""><img src=""run_exp/static/images/task_images/planet-02.jpg"" height=""50""></button><p><b>[press the space bar to lock in your answer]<b><br></p>",32,,,,,,,,,,,,,,,,,,,,,,,
instruc_break,25,225930,0.0-10.0-0.0,,null,run_exp/static/audio/clip_8_break.m4a,null,"<p> After digging and traveling for a while, you’ll be able to take a break at home base. </p><p>The game will last 20 minutes no matter what.</p><p>You will visit home base every 5 minutes, so, you will visit home base three times during the game.</p><br><p><img src='run_exp/static/images/task_images/home_base.jpg' height='600' width='auto'></p>",,,,,,,,,,,,,,,,,,,,,,
instruc_break,26,228491,0.0-10.0-1.0,,2551.4,"<p> After digging and traveling for a while, you’ll be able to take a break at home base. </p><p>The game will last 20 minutes no matter what.</p><p>You will visit home base every 5 minutes, so, you will visit home base three times during the game.</p><br><p><img src='run_exp/static/images/task_images/home_base.jpg' height='600' width='auto'></p>",,,,,,1,,,,,,,,,,,,,,,,,,
html-keyboard-response,27,230335,0.0-10.0-2.0,,1841.3,"<p> After digging and traveling for a while, you’ll be able to take a break at home base. </p><p>The game will last 20 minutes no matter what.</p><p>You will visit home base every 5 minutes, so, you will visit home base three times during the game.</p><br><p><img src='run_exp/static/images/task_images/home_base.jpg' height='600' width='auto'></p><button class=""jspsych-html-btn-unchosen""><img src=""run_exp/static/images/task_images/planet-01.jpg"" height=""50""></button><button class=""jspsych-html-btn-chosen""><img src=""run_exp/static/images/task_images/planet-02.jpg"" height=""50""></button><p><b>[press the space bar to lock in your answer]<b><br></p>",32,,,,,,,,,,,,,,,,,,,,,,,
instruc_prac_game,28,240490,0.0-11.0-0.0,,null,run_exp/static/audio/clip_9_practice.m4a,null,"<p> Are you ready to play a practice game? </p> <p>In this practice game, you'll be digging up barrels of gems. But, in the real game, you'll be digging up the gems themselves. </p>",,,,,,,,,,,,,,,,,,,,,,
html-button-response,29,241876,0.0-11.0-1.0,,1378.3,"<p> Are you ready to play a practice game? </p> <p>In this practice game, you'll be digging up barrels of gems. But, in the real game, you'll be digging up the gems themselves. </p>",,,,,,0,,,,,,,,,,,,,,,,,,
alien_welcome_prac,30,246889,0.0-12.0-0.0,,null,run_exp/static/images/task_images/aliens/practice_aliens/planet/alien_planet-5.jpg,null,,,,,,,,,,,,,,,,,,,,,,,
land_prac,31,247405,0.0-12.0-1.0,,null,run_exp/static/images/task_images/land.jpg,null,,,,,,104,,,0,,,,,,,,,,,,,,
dig_prac,32,249426,0.0-12.0-2.0,,,,,,,,,,,"[{""stimulus"":""run_exp/static/images/task_images/dig.jpg"",""time"":1.4000000953674316},{""stimulus"":""run_exp/static/images/task_images/land.jpg"",""time"":673.7000000476837},{""stimulus"":""run_exp/static/images/task_images/dig.jpg"",""time"":1343.9000000953674}]",[],,,,,,,,,,,,,,,
harvest_prac,33,250434,0.0-12.0-3.0,,null,run_exp/static/images/task_images/barrel_text.jpg,null,,,,,,,,,,,,,,,,,,,,,,,
decision_prac,34,253456,0.0-12.0-4.0,,null,run_exp/static/images/task_images/land.jpg,null,,,,,,,,,,1,,,,,,,,,,,,,
time_out,35,255470,0.0-13.0-0.0,,null,run_exp/static/images/task_images/time_out.jpg,null,,,,,,,,,,,,,,,,,,,,,,,
decision_prac,36,257324,0.0-13.0-1.0,,1850.1,run_exp/static/images/task_images/land.jpg,65,,,,,,,,,,2,,,,,,,,,,,,,
dig_prac,37,259356,0.0-14.0-0.0,,,,,,,,,,,"[{""stimulus"":""run_exp/static/images/task_images/dig.jpg"",""time"":0.9000000953674316},{""stimulus"":""run_exp/static/images/task_images/land.jpg"",""time"":690.5},{""stimulus"":""run_exp/static/images/task_images/dig.jpg"",""time"":1338.6000001430511}]",[],,,,,,,,,,,,,,,
harvest_prac,38,260388,0.0-14.0-1.0,,null,run_exp/static/images/task_images/barrel_text.jpg,null,,,,,,,,,,,,,,,,,,,,,,,
decision_prac,39,262104,0.0-14.0-2.0,,1712.4,run_exp/static/images/task_images/land.jpg,65,,,,,,,,,,3,,,,,,,,,,,,,
dig_prac,40,264126,0.0-15.0-0.0,,,,,,,,,,,"[{""stimulus"":""run_exp/static/images/task_images/dig.jpg"",""time"":0.7999999523162842},{""stimulus"":""run_exp/static/images/task_images/land.jpg"",""time"":681.7000000476837},{""stimulus"":""run_exp/static/images/task_images/dig.jpg"",""time"":1339.7000000476837}]",[],,,,,,,,,,,,,,,
harvest_prac,41,265146,0.0-15.0-1.0,,null,run_exp/static/images/task_images/barrel_text.jpg,null,,,,,,,,,,,,,,,,,,,,,,,
decision_prac,42,265889,0.0-15.0-2.0,,738.5,run_exp/static/images/task_images/land.jpg,65,,,,,,,,,,4,,,,,,,,,,,,,
dig_prac,43,267928,0.0-16.0-0.0,,,,,,,,,,,"[{""stimulus"":""run_exp/static/images/task_images/dig.jpg"",""time"":0.7000000476837158},{""stimulus"":""run_exp/static/images/task_images/land.jpg"",""time"":684.0999999046326},{""stimulus"":""run_exp/static/images/task_images/dig.jpg"",""time"":1353.4000000953674}]",[],,,,,,,,,,,,,,,
harvest_prac,44,268943,0.0-16.0-1.0,,null,run_exp/static/images/task_images/barrel_text.jpg,null,,,,,,,,,,,,,,,,,,,,,,,
decision_prac,45,270830,0.0-16.0-2.0,,1881.8,run_exp/static/images/task_images/land.jpg,65,,,,,,,,,,,1,,,,,,,,,,,,
quiz_instruc,46,282578,0.0-17.0-0.0,,11730.3,run_exp/static/audio/clip_10_quiz.m4a,,,,,,0,,,,,,,,,,,,,,,,,,
instruc_repeat,47,325381,0.0-17.0-1.0,,null,"<p> Are you ready to play a practice game? </p> <p>In this practice game, you'll be digging up barrels of gems. But, in the real game, you'll be digging up the gems themselves. </p>",null,"<p>In this game, your goal is to collect as many gems as you can. That’s how you will win bonus money. </p> <p>The entire game will last 20 minutes no matter how many gems you collect or how many planets you visit. </p><p>To stay on a planet and dig again, press the letter A on your keyboard. To leave for a new planet, press the letter L.</p><p>The more you dig on a planet, the fewer gems you’ll get with each dig which is why you might consider leaving for a new planet. </p><p>When you arrive at a new planet, you’ll be greeted by an alien. What the alien looks like does not tell you anything about how much treasure is on the planet. </p>",,,,,,,,,,,,,,,,,,,,,,
instruc_repeat_continue,48,334672,0.0-17.0-2.0,,9285.8,"<p> Are you ready to play a practice game? </p> <p>In this practice game, you'll be digging up barrels of gems. But, in the real game, you'll be digging up the gems themselves. </p>",,,,,,0,,,,,,,,,,,,,,,,,,
quiz_q_1_ask,49,339999,0.0-17.0-3.0,,5323.7,run_exp/static/audio/clip_11_q1_ask.m4a,,,,,,2,,,,,,,,,,,,,,,,,,
quiz_q_1_fb_correct,50,343858,0.0-18.0-0.0,,null,run_exp/static/audio/clip_12_q1_corrrect.m4a,null,<p>That’s correct. You win extra money by collecting more gems.</p>,,,,,,,,,,,,,,,,,,,,,,
quiz_q_2_ask,51,348867,0.0-18.0-1.0,,5002.7,run_exp/static/audio/clip_14_q2_ask.m4a,,,,,,1,,,,,,,,,,,,,,,,,,
quiz_q_2_fb_correct,52,352898,0.0-19.0-0.0,,null,run_exp/static/audio/clip_15_q2_correct.m4a,null,<p>That’s correct. The experiment is 20 minutes no matter what.</p>,,,,,,,,,,,,,,,,,,,,,,
quiz_q_3_ask,53,356532,0.0-19.0-1.0,,3629.1,run_exp/static/audio/clip_17_q3_ask.m4a,,,,,,1,,,,,,,,,,,,,,,,,,
quiz_q_3_fb_correct,54,360538,0.0-20.0-0.0,,null,run_exp/static/audio/clip_18_q3_correct.m4a,null,<p> That’s correct. You press the letter L to travel to a new planet.</p>,,,,,,,,,,,,,,,,,,,,,,
quiz_q_4_ask,55,364567,0.0-20.0-1.0,,4023.6,run_exp/static/audio/clip_20_q4_ask.m4a,,,,,,0,,,,,,,,,,,,,,,,,,
quiz_q_4_fb_correct,56,369918,0.0-21.0-0.0,,null,run_exp/static/audio/clip_21_q4_correct.m4a,null,<p> That’s correct. The more you dig on a planet the fewer gems you’ll get with each dig. </p>,,,,,,,,,,,,,,,,,,,,,,
quiz_q_5_ask,57,372192,0.0-21.0-1.0,,2269.8,run_exp/static/audio/clip_23_q5_ask.m4a,,,,,,1,,,,,,,,,,,,,,,,,,
quiz_q_5_fb_correct,58,377220,0.0-22.0-0.0,,null,run_exp/static/audio/clip_24_q5_correct.m4a,null,<p> That’s correct. The alien tells you nothing about how much treasure is on the planet.</p>,,,,,,,,,,,,,,,,,,,,,,
quiz_correct,59,380720,0.0-23.0-0.0,,null,run_exp/static/audio/clip_26_correct_quiz.m4a,null,,,,,,,,,,,,,,,,,,,,,,,
quiz_correct_continue,60,384976,0.0-23.0-1.0,,4253.1,<p>Good job! You're now ready to move on to the real game!</p>,,,,,,0,,,,,,,,,,,,,,,,,,
audio-keyboard-response,61,395116,0.0-23.0-2.0,,null,run_exp/static/audio/clip_28_real_game.m4a,null,,,,,,,,,,,,,,,,,,,,,,,
instruc_begin_exp_contine,62,400166,0.0-23.0-3.0,,5046.8,"<p>Now that you know how  to dig for space treasure and travel to new planets,you can start exploring! </p><p>Do you want to go over the instructions again or get started with the real game?</p>",,,,,,1,,,,,,1,,,,,,,,,,,,
alien_welcome,63,405196,0.0-24.0-0.0,,null,run_exp/static/images/task_images/aliens/old_aliens/planet/alien_planet-12.jpg,null,,,,,,,,,,,,12,"12,17,56,44,50,63,25,3,20,35,52,30,38,47,69,51,58,45,62,57,33,31,4,11,61,34,78,60,6,40",,,,,,,,,,
land,64,405714,0.0-24.0-1.0,,null,run_exp/static/images/task_images/land.jpg,null,,,,,,104,,,1,,,,,,,,,,,,,,
dig,65,407735,0.0-24.0-2.0,,,,,,,,,,,"[{""stimulus"":""run_exp/static/images/task_images/dig.jpg"",""time"":0.7000000476837158},{""stimulus"":""run_exp/static/images/task_images/land.jpg"",""time"":685.7000000476837},{""stimulus"":""run_exp/static/images/task_images/dig.jpg"",""time"":1345.7999999523163}]",[],1,,,,,,,,,,,,,,
harvest,66,409364,0.0-24.0-3.0,,null,run_exp/static/images/task_images/gems/104.jpg,null,,,,,,14,,,1,,,,,104,0.13855954,0.134615385,,,,,,,
decision,67,412373,0.0-24.0-4.0,,null,run_exp/static/images/task_images/land.jpg,null,,,,,,14,,,1,,,,,,,,12204,1,0,FALSE,,,
time_out,68,414386,0.0-25.0-0.0,,null,run_exp/static/images/task_images/time_out.jpg,null,,,,,,14,,,,,,,,,,,,,,,,,
decision,69,415253,0.0-25.0-1.0,,862,run_exp/static/images/task_images/land.jpg,65,,,,,,14,,,1,,,,,,,,15082,1,0,FALSE,,,
dig,70,417415,0.0-26.0-0.0,,,,,,,,,,,"[{""stimulus"":""run_exp/static/images/task_images/dig.jpg"",""time"":0.7999999523162842},{""stimulus"":""run_exp/static/images/task_images/land.jpg"",""time"":731.9000000953674},{""stimulus"":""run_exp/static/images/task_images/dig.jpg"",""time"":1430.5}]",[],1,,,,,,,,,,,,,,
harvest,71,418418,0.0-26.0-1.0,,null,run_exp/static/images/task_images/gems/14.jpg,null,,,,,,2,,,1,,,,,14,0.165667565,0.142857143,,,,,,,
decision,72,421435,0.0-26.0-2.0,,null,run_exp/static/images/task_images/land.jpg,null,,,,,,2,,,1,,,,,,,,21265,1,1,FALSE,,,
time_out,73,423456,0.0-27.0-0.0,,null,run_exp/static/images/task_images/time_out.jpg,null,,,,,,2,,,,,,,,,,,,,,,,,
decision,74,424273,0.0-27.0-1.0,,811.3,run_exp/static/images/task_images/land.jpg,65,,,,,,2,,,1,,,,,,,,24103,1,1,FALSE,,,
dig,75,426486,0.0-28.0-0.0,,,,,,,,,,,"[{""stimulus"":""run_exp/static/images/task_images/dig.jpg"",""time"":0.8000001907348633},{""stimulus"":""run_exp/static/images/task_images/land.jpg"",""time"":747.7000000476837},{""stimulus"":""run_exp/static/images/task_images/dig.jpg"",""time"":1479.9000000953674}]",[],1,,,,,,,,,,,,,,
harvest,76,427493,0.0-28.0-1.0,,null,run_exp/static/images/task_images/gems/2.jpg,null,,,,,,0,,,1,,,,,2,0.16137809,0,,,,,,,
decision,77,428535,0.0-28.0-2.0,,1039.7,run_exp/static/images/task_images/land.jpg,65,,,,,,0,,,1,,,,,,,,28365,1,2,FALSE,,,
dig,78,430524,0.0-29.0-0.0,,,,,,,,,,,"[{""stimulus"":""run_exp/static/images/task_images/dig.jpg"",""time"":0.7999999523162842},{""stimulus"":""run_exp/static/images/task_images/land.jpg"",""time"":672},{""stimulus"":""run_exp/static/images/task_images/dig.jpg"",""time"":1312.0999999046326}]",[],1,,,,,,,,,,,,,,
harvest,79,431533,0.0-29.0-1.0,,null,run_exp/static/images/task_images/gems/0.jpg,null,,,,,,0,,,1,,,,,0,0.229821601,NaN,,,,,,,
decision,80,432223,0.0-29.0-2.0,,686.8000002,run_exp/static/images/task_images/land.jpg,65,,,,,,0,,,1,,,,,,,,32052,1,3,FALSE,,,
dig,81,434552,0.0-30.0-0.0,,,,,,,,,,,"[{""stimulus"":""run_exp/static/images/task_images/dig.jpg"",""time"":0.6000001430511475},{""stimulus"":""run_exp/static/images/task_images/land.jpg"",""time"":784.1000001430511},{""stimulus"":""run_exp/static/images/task_images/dig.jpg"",""time"":1555.6000001430511}]",[],1,,,,,,,,,,,,,,
harvest,82,435578,0.0-30.0-1.0,,null,run_exp/static/images/task_images/gems/0.jpg,null,,,,,,0,,,1,,,,,0,0.224700644,NaN,,,,,,,
decision,83,437782,0.0-30.0-2.0,,2197.3,run_exp/static/images/task_images/land.jpg,76,,,,,,0,,,1,,,,,,,,37611,1,4,TRUE,,,
travel,84,445594,0.0-31.0-0.0,,,,,,,,,,,"[{""stimulus"":""run_exp/static/images/task_images/rocket-01.jpg"",""time"":1},{""stimulus"":""run_exp/static/images/task_images/rocket-02.jpg"",""time"":873},{""stimulus"":""run_exp/static/images/task_images/rocket-03.jpg"",""time"":1743.0999999046326},{""stimulus"":""run_exp/static/images/task_images/rocket-04.jpg"",""time"":2622.5999999046326},{""stimulus"":""run_exp/static/images/task_images/rocket-05.jpg"",""time"":3482.699999809265},{""stimulus"":""run_exp/static/images/task_images/rocket-06.jpg"",""time"":4342},{""stimulus"":""run_exp/static/images/task_images/rocket-07.jpg"",""time"":5211.699999809265},{""stimulus"":""run_exp/static/images/task_images/rocket-08.jpg"",""time"":6072.5},{""stimulus"":""run_exp/static/images/task_images/rocket-09.jpg"",""time"":6951}]",[],1,,,,,,,,,,,,,,
alien_welcome,85,450617,0.0-31.0-1.0,,null,run_exp/static/images/task_images/aliens/old_aliens/planet/alien_planet-17.jpg,null,,,,,,,,,,,,17,"12,17,56,44,50,63,25,3,20,35,52,30,38,47,69,51,58,45,62,57,33,31,4,11,61,34,78,60,6,40",,,,,,,,,,
land,86,451137,0.0-31.0-2.0,,null,run_exp/static/images/task_images/land.jpg,null,,,,,,102,,,2,,,,,,,,,,,,,,
dig,87,453161,0.0-31.0-3.0,,,,,,,,,,,"[{""stimulus"":""run_exp/static/images/task_images/dig.jpg"",""time"":0.7999999523162842},{""stimulus"":""run_exp/static/images/task_images/land.jpg"",""time"":670.2999999523163},{""stimulus"":""run_exp/static/images/task_images/dig.jpg"",""time"":1341.5}]",[],2,,,,,,,,,,,,,,
harvest,88,454169,0.0-31.0-4.0,,null,run_exp/static/images/task_images/gems/102.jpg,null,,,,,,21,,,2,,,,,102,0.207844677,0.205882353,,,,,,,
decision,89,454907,0.0-31.0-5.0,,735.7,run_exp/static/images/task_images/land.jpg,65,,,,,,21,,,2,,,,,,,,54742,1,0,FALSE,,,
dig,90,457190,0.0-32.0-0.0,,,,,,,,,,,"[{""stimulus"":""run_exp/static/images/task_images/dig.jpg"",""time"":0.5999999046325684},{""stimulus"":""run_exp/static/images/task_images/land.jpg"",""time"":775.6999998092651},{""stimulus"":""run_exp/static/images/task_images/dig.jpg"",""time"":1515.6999998092651}]",[],2,,,,,,,,,,,,,,
harvest,91,458769,0.0-32.0-1.0,,null,run_exp/static/images/task_images/gems/21.jpg,null,,,,,,3,,,2,,,,,21,0.161276227,0.142857143,,,,,,,
decision,92,461163,0.0-32.0-2.0,,2389.9,run_exp/static/images/task_images/land.jpg,65,,,,,,3,,,2,,,,,,,,60992,1,1,FALSE,,,
dig,93,461802,0.0-33.0-0.0,,,,,,,,,,,"[{""stimulus"":""run_exp/static/images/task_images/dig.jpg"",""time"":0.7000000476837158},{""stimulus"":""run_exp/static/images/task_images/land.jpg"",""time"":223.70000004768372},{""stimulus"":""run_exp/static/images/task_images/dig.jpg"",""time"":424.10000014305115}]",[],2,,,,,,,,,,,,,,
harvest,94,463739,0.0-33.0-1.0,,null,run_exp/static/images/task_images/gems/3.jpg,null,,,,,,1,,,2,,,,,3,0.17734359,0.333333333,,,,,,,
decision,95,465100,0.0-33.0-2.0,,1358.1,run_exp/static/images/task_images/land.jpg,65,,,,,,1,,,2,,,,,,,,64930,1,2,FALSE,,,
dig,96,466761,0.0-34.0-0.0,,,,,,,,,,,"[{""stimulus"":""run_exp/static/images/task_images/dig.jpg"",""time"":0.8000001907348633},{""stimulus"":""run_exp/static/images/task_images/land.jpg"",""time"":557.1000001430511},{""stimulus"":""run_exp/static/images/task_images/dig.jpg"",""time"":1101.9000000953674}]",[],2,,,,,,,,,,,,,,
harvest,97,468437,0.0-34.0-1.0,,null,run_exp/static/images/task_images/gems/1.jpg,null,,,,,,0,,,2,,,,,1,0.240801629,0,,,,,,,
decision,98,470718,0.0-34.0-2.0,,2277.5,run_exp/static/images/task_images/land.jpg,65,,,,,,0,,,2,,,,,,,,70547,1,3,FALSE,,,
dig,99,471461,0.0-35.0-0.0,,,,,,,,,,,"[{""stimulus"":""run_exp/static/images/task_images/dig.jpg"",""time"":0.8000001907348633},{""stimulus"":""run_exp/static/images/task_images/land.jpg"",""time"":249.70000004768372},{""stimulus"":""run_exp/static/images/task_images/dig.jpg"",""time"":500}]",[],2,,,,,,,,,,,,,,
harvest,100,472486,0.0-35.0-1.0,,null,run_exp/static/images/task_images/gems/0.jpg,null,,,,,,0,,,2,,,,,0,0.157900392,NaN,,,,,,,
decision,101,475503,0.0-35.0-2.0,,null,run_exp/static/images/task_images/land.jpg,null,,,,,,0,,,2,,,,,,,,75332,1,4,FALSE,,,
time_out,102,477522,0.0-36.0-0.0,,null,run_exp/static/images/task_images/time_out.jpg,null,,,,,,0,,,,,,,,,,,,,,,,,
decision,103,478834,0.0-36.0-1.0,,1307.2,run_exp/static/images/task_images/land.jpg,65,,,,,,0,,,2,,,,,,,,78663,1,4,FALSE,,,
dig,104,480549,0.0-37.0-0.0,,,,,,,,,,,"[{""stimulus"":""run_exp/static/images/task_images/dig.jpg"",""time"":0.9000000953674316},{""stimulus"":""run_exp/static/images/task_images/land.jpg"",""time"":581.7000000476837},{""stimulus"":""run_exp/static/images/task_images/dig.jpg"",""time"":1133.7999999523163}]",[],2,,,,,,,,,,,,,,
harvest,105,481575,0.0-37.0-1.0,,null,run_exp/static/images/task_images/gems/0.jpg,null,,,,,,0,,,2,,,,,0,0.236364222,NaN,,,,,,,
decision,106,482563,0.0-37.0-2.0,,983,run_exp/static/images/task_images/land.jpg,76,,,,,,0,,,2,,,,,,,,82392,1,5,TRUE,,,
travel,107,491600,0.0-38.0-0.0,,,,,,,,,,,"[{""stimulus"":""run_exp/static/images/task_images/rocket-01.jpg"",""time"":0.9000000953674316},{""stimulus"":""run_exp/static/images/task_images/rocket-02.jpg"",""time"":1015},{""stimulus"":""run_exp/static/images/task_images/rocket-03.jpg"",""time"":2025.1000001430511},{""stimulus"":""run_exp/static/images/task_images/rocket-04.jpg"",""time"":3014.7000000476837},{""stimulus"":""run_exp/static/images/task_images/rocket-05.jpg"",""time"":4014.7000000476837},{""stimulus"":""run_exp/static/images/task_images/rocket-06.jpg"",""time"":5025.200000047684},{""stimulus"":""run_exp/static/images/task_images/rocket-07.jpg"",""time"":6013.900000095367},{""stimulus"":""run_exp/static/images/task_images/rocket-08.jpg"",""time"":7015},{""stimulus"":""run_exp/static/images/task_images/rocket-09.jpg"",""time"":8024.400000095367}]",[],2,,,,,,,,,,,,,,
alien_welcome,108,496622,0.0-38.0-1.0,,null,run_exp/static/images/task_images/aliens/old_aliens/planet/alien_planet-56.jpg,null,,,,,,,,,,,,56,"12,17,56,44,50,63,25,3,20,35,52,30,38,47,69,51,58,45,62,57,33,31,4,11,61,34,78,60,6,40",,,,,,,,,,
land,109,497129,0.0-38.0-2.0,,null,run_exp/static/images/task_images/land.jpg,null,,,,,,96,,,3,,,,,,,,,,,,,,
dig,110,499151,0.0-38.0-3.0,,,,,,,,,,,"[{""stimulus"":""run_exp/static/images/task_images/dig.jpg"",""time"":0.7999999523162842},{""stimulus"":""run_exp/static/images/task_images/land.jpg"",""time"":683.5},{""stimulus"":""run_exp/static/images/task_images/dig.jpg"",""time"":1351.2999999523163}]",[],3,,,,,,,,,,,,,,
harvest,111,500594,0.0-38.0-4.0,,null,run_exp/static/images/task_images/gems/96.jpg,null,,,,,,52,,,3,,,,,96,0.540784146,0.541666667,,,,,,,
decision,112,501894,0.0-38.0-5.0,,1296.8,run_exp/static/images/task_images/land.jpg,65,,,,,,52,,,3,,,,,,,,101723,1,0,FALSE,,,
dig,113,503621,0.0-39.0-0.0,,,,,,,,,,,"[{""stimulus"":""run_exp/static/images/task_images/dig.jpg"",""time"":0.8999998569488525},{""stimulus"":""run_exp/static/images/task_images/land.jpg"",""time"":585.6999998092651},{""stimulus"":""run_exp/static/images/task_images/dig.jpg"",""time"":1143.6999998092651}]",[],3,,,,,,,,,,,,,,
harvest,114,504627,0.0-39.0-1.0,,null,run_exp/static/images/task_images/gems/52.jpg,null,,,,,,32,,,3,,,,,52,0.605919171,0.615384615,,,,,,,
decision,115,507053,0.0-39.0-2.0,,2422.3,run_exp/static/images/task_images/land.jpg,65,,,,,,32,,,3,,,,,,,,106882,1,1,FALSE,,,
dig,116,507651,0.0-40.0-0.0,,,,,,,,,,,"[{""stimulus"":""run_exp/static/images/task_images/dig.jpg"",""time"":0.8000001907348633},{""stimulus"":""run_exp/static/images/task_images/land.jpg"",""time"":204},{""stimulus"":""run_exp/static/images/task_images/dig.jpg"",""time"":405.7000000476837}]",[],3,,,,,,,,,,,,,,
harvest,117,509208,0.0-40.0-1.0,,null,run_exp/static/images/task_images/gems/32.jpg,null,,,,,,18,,,3,,,,,32,0.574639426,0.5625,,,,,,,
decision,118,511871,0.0-40.0-2.0,,2658.2,run_exp/static/images/task_images/land.jpg,65,,,,,,18,,,3,,,,,,,,111700,1,2,FALSE,,,
dig,119,512238,0.0-41.0-0.0,,,,,,,,,,,"[{""stimulus"":""run_exp/static/images/task_images/dig.jpg"",""time"":1.2000000476837158},{""stimulus"":""run_exp/static/images/task_images/land.jpg"",""time"":122.20000004768372},{""stimulus"":""run_exp/static/images/task_images/dig.jpg"",""time"":242.10000014305115}]",[],3,,,,,,,,,,,,,,
harvest,120,513794,0.0-41.0-1.0,,null,run_exp/static/images/task_images/gems/18.jpg,null,,,,,,9,,,3,,,,,18,0.495677378,0.5,,,,,,,
decision,121,516808,0.0-41.0-2.0,,null,run_exp/static/images/task_images/land.jpg,null,,,,,,9,,,3,,,,,,,,116638,1,3,FALSE,,,
time_out,122,518831,0.0-42.0-0.0,,null,run_exp/static/images/task_images/time_out.jpg,null,,,,,,9,,,,,,,,,,,,,,,,,
decision,123,520013,0.0-42.0-1.0,,1176.7,run_exp/static/images/task_images/land.jpg,65,,,,,,9,,,3,,,,,,,,119843,1,3,FALSE,,,
dig,124,521857,0.0-43.0-0.0,,,,,,,,,,,"[{""stimulus"":""run_exp/static/images/task_images/dig.jpg"",""time"":0.8000001907348633},{""stimulus"":""run_exp/static/images/task_images/land.jpg"",""time"":630.4000000953674},{""stimulus"":""run_exp/static/images/task_images/dig.jpg"",""time"":1229.1000001430511}]",[],3,,,,,,,,,,,,,,
harvest,125,523303,0.0-43.0-1.0,,null,run_exp/static/images/task_images/gems/9.jpg,null,,,,,,4,,,3,,,,,9,0.45326291,0.444444444,,,,,,,
decision,126,523936,0.0-43.0-2.0,,629.3,run_exp/static/images/task_images/land.jpg,76,,,,,,4,,,3,,,,,,,,123765,1,4,TRUE,,,
travel,127,533338,0.0-44.0-0.0,,,,,,,,,,,"[{""stimulus"":""run_exp/static/images/task_images/rocket-01.jpg"",""time"":0.9000000953674316},{""stimulus"":""run_exp/static/images/task_images/rocket-02.jpg"",""time"":1055.5999999046326},{""stimulus"":""run_exp/static/images/task_images/rocket-03.jpg"",""time"":2095.2000000476837},{""stimulus"":""run_exp/static/images/task_images/rocket-04.jpg"",""time"":3145.7000000476837},{""stimulus"":""run_exp/static/images/task_images/rocket-05.jpg"",""time"":4186.799999952316},{""stimulus"":""run_exp/static/images/task_images/rocket-06.jpg"",""time"":5216.299999952316},{""stimulus"":""run_exp/static/images/task_images/rocket-07.jpg"",""time"":6257},{""stimulus"":""run_exp/static/images/task_images/rocket-08.jpg"",""time"":7290.5},{""stimulus"":""run_exp/static/images/task_images/rocket-09.jpg"",""time"":8347.099999904633}]",[],3,,,,,,,,,,,,,,
alien_welcome,128,538358,0.0-44.0-1.0,,null,run_exp/static/images/task_images/aliens/old_aliens/planet/alien_planet-44.jpg,null,,,,,,,,,,,,44,"12,17,56,44,50,63,25,3,20,35,52,30,38,47,69,51,58,45,62,57,33,31,4,11,61,34,78,60,6,40",,,,,,,,,,
land,129,538867,0.0-44.0-2.0,,null,run_exp/static/images/task_images/land.jpg,null,,,,,,107,,,4,,,,,,,,,,,,,,
dig,130,540892,0.0-44.0-3.0,,,,,,,,,,,"[{""stimulus"":""run_exp/static/images/task_images/dig.jpg"",""time"":0.9000000953674316},{""stimulus"":""run_exp/static/images/task_images/land.jpg"",""time"":681.4000000953674},{""stimulus"":""run_exp/static/images/task_images/dig.jpg"",""time"":1346.9000000953674}]",[],4,,,,,,,,,,,,,,
harvest,131,541905,0.0-44.0-4.0,,null,run_exp/static/images/task_images/gems/107.jpg,null,,,,,,55,,,4,,,,,107,0.511317559,0.514018692,,,,,,,
decision,132,544125,0.0-44.0-5.0,,2216.7,run_exp/static/images/task_images/land.jpg,65,,,,,,55,,,4,,,,,,,,143954,1,0,FALSE,,,
dig,133,544936,0.0-45.0-0.0,,,,,,,,,,,"[{""stimulus"":""run_exp/static/images/task_images/dig.jpg"",""time"":1.4000000953674316},{""stimulus"":""run_exp/static/images/task_images/land.jpg"",""time"":274.7000000476837},{""stimulus"":""run_exp/static/images/task_images/dig.jpg"",""time"":535.2999999523163}]",[],4,,,,,,,,,,,,,,
harvest,134,546558,0.0-45.0-1.0,,null,run_exp/static/images/task_images/gems/55.jpg,null,,,,,,28,,,4,,,,,55,0.505270575,0.509090909,,,,,,,
decision,135,547430,0.0-45.0-2.0,,868.7,run_exp/static/images/task_images/land.jpg,65,,,,,,28,,,4,,,,,,,,147259,1,1,FALSE,,,
dig,136,549595,0.0-46.0-0.0,,,,,,,,,,,"[{""stimulus"":""run_exp/static/images/task_images/dig.jpg"",""time"":1.4000000953674316},{""stimulus"":""run_exp/static/images/task_images/land.jpg"",""time"":719.2000000476837},{""stimulus"":""run_exp/static/images/task_images/dig.jpg"",""time"":1431.9000000953674}]",[],4,,,,,,,,,,,,,,
harvest,137,551009,0.0-46.0-1.0,,null,run_exp/static/images/task_images/gems/28.jpg,null,,,,,,15,,,4,,,,,28,0.521012722,0.535714286,,,,,,,
decision,138,552329,0.0-46.0-2.0,,1316.3,run_exp/static/images/task_images/land.jpg,65,,,,,,15,,,4,,,,,,,,152158,1,2,FALSE,,,
dig,139,554037,0.0-47.0-0.0,,,,,,,,,,,"[{""stimulus"":""run_exp/static/images/task_images/dig.jpg"",""time"":1},{""stimulus"":""run_exp/static/images/task_images/land.jpg"",""time"":571.2000000476837},{""stimulus"":""run_exp/static/images/task_images/dig.jpg"",""time"":1131.9000000953674}]",[],4,,,,,,,,,,,,,,
harvest,140,555693,0.0-47.0-1.0,,null,run_exp/static/images/task_images/gems/15.jpg,null,,,,,,10,,,4,,,,,15,0.637574912,0.666666667,,,,,,,
decision,141,556063,0.0-47.0-2.0,,366.8999999,run_exp/static/images/task_images/land.jpg,65,,,,,,10,,,4,,,,,,,,155892,1,3,FALSE,,,
dig,142,558717,0.0-48.0-0.0,,,,,,,,,,,"[{""stimulus"":""run_exp/static/images/task_images/dig.jpg"",""time"":0.8999998569488525},{""stimulus"":""run_exp/static/images/task_images/land.jpg"",""time"":888.2999999523163},{""stimulus"":""run_exp/static/images/task_images/dig.jpg"",""time"":1768.6999998092651}]",[],4,,,,,,,,,,,,,,
harvest,143,559724,0.0-48.0-1.0,,null,run_exp/static/images/task_images/gems/10.jpg,null,,,,,,5,,,4,,,,,10,0.532763538,0.5,,,,,,,
decision,144,561494,0.0-48.0-2.0,,1766.9,run_exp/static/images/task_images/land.jpg,65,,,,,,5,,,4,,,,,,,,161324,1,4,FALSE,,,
dig,145,562754,0.0-49.0-0.0,,,,,,,,,,,"[{""stimulus"":""run_exp/static/images/task_images/dig.jpg"",""time"":1.3000001907348633},{""stimulus"":""run_exp/static/images/task_images/land.jpg"",""time"":415.2000000476837},{""stimulus"":""run_exp/static/images/task_images/dig.jpg"",""time"":846.4000000953674}]",[],4,,,,,,,,,,,,,,
harvest,146,564424,0.0-49.0-1.0,,null,run_exp/static/images/task_images/gems/5.jpg,null,,,,,,2,,,4,,,,,5,0.42404101,0.4,,,,,,,
decision,147,565827,0.0-49.0-2.0,,1399.1,run_exp/static/images/task_images/land.jpg,65,,,,,,2,,,4,,,,,,,,165657,1,5,FALSE,,,
dig,148,567457,0.0-50.0-0.0,,,,,,,,,,,"[{""stimulus"":""run_exp/static/images/task_images/dig.jpg"",""time"":1.1000001430511475},{""stimulus"":""run_exp/static/images/task_images/land.jpg"",""time"":553.6000001430511},{""stimulus"":""run_exp/static/images/task_images/dig.jpg"",""time"":1089.1000001430511}]",[],4,,,,,,,,,,,,,,
harvest,149,568491,0.0-50.0-1.0,,null,run_exp/static/images/task_images/gems/2.jpg,null,,,,,,1,,,4,,,,,2,0.446576192,0.5,,,,,,,
decision,150,569362,0.0-50.0-2.0,,867.2,run_exp/static/images/task_images/land.jpg,65,,,,,,1,,,4,,,,,,,,169191,1,6,FALSE,,,
dig,151,571526,0.0-51.0-0.0,,,,,,,,,,,"[{""stimulus"":""run_exp/static/images/task_images/dig.jpg"",""time"":1},{""stimulus"":""run_exp/static/images/task_images/land.jpg"",""time"":717.7000000476837},{""stimulus"":""run_exp/static/images/task_images/dig.jpg"",""time"":1428.0999999046326}]",[],4,,,,,,,,,,,,,,
harvest,152,572538,0.0-51.0-1.0,,null,run_exp/static/images/task_images/gems/1.jpg,null,,,,,,0,,,4,,,,,1,0.444996998,0,,,,,,,
decision,153,572997,0.0-51.0-2.0,,454.7,run_exp/static/images/task_images/land.jpg,65,,,,,,0,,,4,,,,,,,,172826,1,7,FALSE,,,
dig,154,575577,0.0-52.0-0.0,,,,,,,,,,,"[{""stimulus"":""run_exp/static/images/task_images/dig.jpg"",""time"":1},{""stimulus"":""run_exp/static/images/task_images/land.jpg"",""time"":875.5},{""stimulus"":""run_exp/static/images/task_images/dig.jpg"",""time"":1703.7000000476837}]",[],4,,,,,,,,,,,,,,
harvest,155,576595,0.0-52.0-1.0,,null,run_exp/static/images/task_images/gems/0.jpg,null,,,,,,0,,,4,,,,,0,0.544232635,NaN,,,,,,,
decision,156,577502,0.0-52.0-2.0,,902,run_exp/static/images/task_images/land.jpg,76,,,,,,0,,,4,,,,,,,,177331,1,8,TRUE,,,
travel,157,586615,0.0-53.0-0.0,,,,,,,,,,,"[{""stimulus"":""run_exp/static/images/task_images/rocket-01.jpg"",""time"":0.7999999523162842},{""stimulus"":""run_exp/static/images/task_images/rocket-02.jpg"",""time"":1018.5},{""stimulus"":""run_exp/static/images/task_images/rocket-03.jpg"",""time"":2038.7000000476837},{""stimulus"":""run_exp/static/images/task_images/rocket-04.jpg"",""time"":3038.2000000476837},{""stimulus"":""run_exp/static/images/task_images/rocket-05.jpg"",""time"":4057.7000000476837},{""stimulus"":""run_exp/static/images/task_images/rocket-06.jpg"",""time"":5058},{""stimulus"":""run_exp/static/images/task_images/rocket-07.jpg"",""time"":6079.600000143051},{""stimulus"":""run_exp/static/images/task_images/rocket-08.jpg"",""time"":7079},{""stimulus"":""run_exp/static/images/task_images/rocket-09.jpg"",""time"":8097.5}]",[],4,,,,,,,,,,,,,,
alien_welcome,158,591679,0.0-53.0-1.0,,null,run_exp/static/images/task_images/aliens/old_aliens/planet/alien_planet-50.jpg,null,,,,,,,,,,,,50,"12,17,56,44,50,63,25,3,20,35,52,30,38,47,69,51,58,45,62,57,33,31,4,11,61,34,78,60,6,40",,,,,,,,,,
land,159,592186,0.0-53.0-2.0,,null,run_exp/static/images/task_images/land.jpg,null,,,,,,103,,,5,,,,,,,,,,,,,,
dig,160,594214,0.0-53.0-3.0,,,,,,,,,,,"[{""stimulus"":""run_exp/static/images/task_images/dig.jpg"",""time"":1.7000000476837158},{""stimulus"":""run_exp/static/images/task_images/land.jpg"",""time"":684.3999998569489},{""stimulus"":""run_exp/static/images/task_images/dig.jpg"",""time"":1352.3999998569489}]",[],5,,,,,,,,,,,,,,
harvest,161,595816,0.0-53.0-4.0,,null,run_exp/static/images/task_images/gems/103.jpg,null,,,,,,50,,,5,,,,,103,0.489562474,0.485436893,,,,,,,
decision,162,596528,0.0-53.0-5.0,,708.5999999,run_exp/static/images/task_images/land.jpg,65,,,,,,50,,,5,,,,,,,,196357,1,0,FALSE,,,
dig,163,598858,0.0-54.0-0.0,,,,,,,,,,,"[{""stimulus"":""run_exp/static/images/task_images/dig.jpg"",""time"":2.6000001430511475},{""stimulus"":""run_exp/static/images/task_images/land.jpg"",""time"":770.5},{""stimulus"":""run_exp/static/images/task_images/dig.jpg"",""time"":1540.6000001430511}]",[],5,,,,,,,,,,,,,,
harvest,164,600752,0.0-54.0-1.0,,null,run_exp/static/images/task_images/gems/50.jpg,null,,,,,,24,,,5,,,,,50,0.471752879,0.48,,,,,,,
decision,165,601728,0.0-54.0-2.0,,970.2,run_exp/static/images/task_images/land.jpg,65,,,,,,24,,,5,,,,,,,,201557,1,1,FALSE,,,
dig,166,603787,0.0-55.0-0.0,,,,,,,,,,,"[{""stimulus"":""run_exp/static/images/task_images/dig.jpg"",""time"":0.7999999523162842},{""stimulus"":""run_exp/static/images/task_images/land.jpg"",""time"":692.8999998569489},{""stimulus"":""run_exp/static/images/task_images/dig.jpg"",""time"":1361.7000000476837}]",[],5,,,,,,,,,,,,,,
harvest,167,605458,0.0-55.0-1.0,,null,run_exp/static/images/task_images/gems/24.jpg,null,,,,,,10,,,5,,,,,24,0.404903319,0.416666667,,,,,,,
decision,168,606272,0.0-55.0-2.0,,808.1000001,run_exp/static/images/task_images/land.jpg,65,,,,,,10,,,5,,,,,,,,206101,1,2,FALSE,,,
dig,169,608477,0.0-56.0-0.0,,,,,,,,,,,"[{""stimulus"":""run_exp/static/images/task_images/dig.jpg"",""time"":0.7999999523162842},{""stimulus"":""run_exp/static/images/task_images/land.jpg"",""time"":751.9000000953674},{""stimulus"":""run_exp/static/images/task_images/dig.jpg"",""time"":1481.4000000953674}]",[],5,,,,,,,,,,,,,,
harvest,170,609497,0.0-56.0-1.0,,null,run_exp/static/images/task_images/gems/10.jpg,null,,,,,,4,,,5,,,,,10,0.407948909,0.4,,,,,,,
decision,171,609946,0.0-56.0-2.0,,445.3999999,run_exp/static/images/task_images/land.jpg,65,,,,,,4,,,5,,,,,,,,209775,1,3,FALSE,,,
dig,172,612527,0.0-57.0-0.0,,,,,,,,,,,"[{""stimulus"":""run_exp/static/images/task_images/dig.jpg"",""time"":0.7000000476837158},{""stimulus"":""run_exp/static/images/task_images/land.jpg"",""time"":861.5},{""stimulus"":""run_exp/static/images/task_images/dig.jpg"",""time"":1720.7999999523163}]",[],5,,,,,,,,,,,,,,
harvest,173,613532,0.0-57.0-1.0,,null,run_exp/static/images/task_images/gems/4.jpg,null,,,,,,2,,,5,,,,,4,0.434605859,0.5,,,,,,,
decision,174,614815,0.0-57.0-2.0,,1280.3,run_exp/static/images/task_images/land.jpg,65,,,,,,2,,,5,,,,,,,,214645,1,4,FALSE,,,
dig,175,616567,0.0-58.0-0.0,,,,,,,,,,,"[{""stimulus"":""run_exp/static/images/task_images/dig.jpg"",""time"":0.7000000476837158},{""stimulus"":""run_exp/static/images/task_images/land.jpg"",""time"":590.9000000953674},{""stimulus"":""run_exp/static/images/task_images/dig.jpg"",""time"":1168.4000000953674}]",[],5,,,,,,,,,,,,,,
harvest,176,617587,0.0-58.0-1.0,,null,run_exp/static/images/task_images/gems/2.jpg,null,,,,,,1,,,5,,,,,2,0.49145721,0.5,,,,,,,
decision,177,618003,0.0-58.0-2.0,,411.2,run_exp/static/images/task_images/land.jpg,65,,,,,,1,,,5,,,,,,,,217832,1,5,FALSE,,,
dig,178,620606,0.0-59.0-0.0,,,,,,,,,,,"[{""stimulus"":""run_exp/static/images/task_images/dig.jpg"",""time"":0.9000000953674316},{""stimulus"":""run_exp/static/images/task_images/land.jpg"",""time"":873.1000001430511},{""stimulus"":""run_exp/static/images/task_images/dig.jpg"",""time"":1730.7999999523163}]",[],5,,,,,,,,,,,,,,
harvest,179,621625,0.0-59.0-1.0,,null,run_exp/static/images/task_images/gems/1.jpg,null,,,,,,1,,,5,,,,,1,0.588889238,1,,,,,,,
decision,180,622013,0.0-59.0-2.0,,384.8,run_exp/static/images/task_images/land.jpg,65,,,,,,1,,,5,,,,,,,,221842,1,6,FALSE,,,
dig,181,624653,0.0-60.0-0.0,,,,,,,,,,,"[{""stimulus"":""run_exp/static/images/task_images/dig.jpg"",""time"":0.7000000476837158},{""stimulus"":""run_exp/static/images/task_images/land.jpg"",""time"":878},{""stimulus"":""run_exp/static/images/task_images/dig.jpg"",""time"":1752.9000000953674}]",[],5,,,,,,,,,,,,,,
harvest,182,625677,0.0-60.0-1.0,,null,run_exp/static/images/task_images/gems/1.jpg,null,,,,,,1,,,5,,,,,1,0.578822354,1,,,,,,,
decision,183,626117,0.0-60.0-2.0,,434.7,run_exp/static/images/task_images/land.jpg,65,,,,,,0,,,5,,,,,,,,225946,1,7,FALSE,,,
dig,184,628717,0.0-61.0-0.0,,,,,,,,,,,"[{""stimulus"":""run_exp/static/images/task_images/dig.jpg"",""time"":0.5999999046325684},{""stimulus"":""run_exp/static/images/task_images/land.jpg"",""time"":867.0999999046326},{""stimulus"":""run_exp/static/images/task_images/dig.jpg"",""time"":1717.7999999523163}]",[],5,,,,,,,,,,,,,,
harvest,185,629735,0.0-61.0-1.0,,null,run_exp/static/images/task_images/gems/0.jpg,null,,,,,,0,,,5,,,,,0,0.488757041,NaN,,,,,,,
decision,186,630604,0.0-61.0-2.0,,864.5,run_exp/static/images/task_images/land.jpg,76,,,,,,0,,,5,,,,,,,,230433,1,8,TRUE,,,
travel,187,639755,0.0-62.0-0.0,,,,,,,,,,,"[{""stimulus"":""run_exp/static/images/task_images/rocket-01.jpg"",""time"":0.7000000476837158},{""stimulus"":""run_exp/static/images/task_images/rocket-02.jpg"",""time"":1032.2000000476837},{""stimulus"":""run_exp/static/images/task_images/rocket-03.jpg"",""time"":2051.9000000953674},{""stimulus"":""run_exp/static/images/task_images/rocket-04.jpg"",""time"":3062},{""stimulus"":""run_exp/static/images/task_images/rocket-05.jpg"",""time"":4071.2000000476837},{""stimulus"":""run_exp/static/images/task_images/rocket-06.jpg"",""time"":5092},{""stimulus"":""run_exp/static/images/task_images/rocket-07.jpg"",""time"":6099.900000095367},{""stimulus"":""run_exp/static/images/task_images/rocket-08.jpg"",""time"":7122.099999904633},{""stimulus"":""run_exp/static/images/task_images/rocket-09.jpg"",""time"":8130.599999904633}]",[],5,,,,,,,,,,,,,,
alien_welcome,188,644768,0.0-62.0-1.0,,null,run_exp/static/images/task_images/aliens/old_aliens/planet/alien_planet-63.jpg,null,,,,,,,,,,,,63,"12,17,56,44,50,63,25,3,20,35,52,30,38,47,69,51,58,45,62,57,33,31,4,11,61,34,78,60,6,40",,,,,,,,,,
land,189,645296,0.0-62.0-2.0,,null,run_exp/static/images/task_images/land.jpg,null,,,,,,98,,,6,,,,,,,,,,,,,,
dig,190,647316,0.0-62.0-3.0,,,,,,,,,,,"[{""stimulus"":""run_exp/static/images/task_images/dig.jpg"",""time"":0.7000000476837158},{""stimulus"":""run_exp/static/images/task_images/land.jpg"",""time"":674.7000000476837},{""stimulus"":""run_exp/static/images/task_images/dig.jpg"",""time"":1339.2999999523163}]",[],6,,,,,,,,,,,,,,
harvest,191,649058,0.0-62.0-4.0,,null,run_exp/static/images/task_images/gems/98.jpg,null,,,,,,88,,,6,,,,,98,0.893273989,0.897959184,,,,,,,
decision,192,649590,0.0-62.0-5.0,,529.1000001,run_exp/static/images/task_images/land.jpg,65,,,,,,88,,,6,,,,,,,,249419,1,0,FALSE,,,
dig,193,652085,0.0-63.0-0.0,,,,,,,,,,,"[{""stimulus"":""run_exp/static/images/task_images/dig.jpg"",""time"":0.6000001430511475},{""stimulus"":""run_exp/static/images/task_images/land.jpg"",""time"":845.2000000476837},{""stimulus"":""run_exp/static/images/task_images/dig.jpg"",""time"":1662.9000000953674}]",[],6,,,,,,,,,,,,,,
harvest,194,653093,0.0-63.0-1.0,,null,run_exp/static/images/task_images/gems/88.jpg,null,,,,,,66,,,6,,,,,88,0.74815841,0.75,,,,,,,
decision,195,654530,0.0-63.0-2.0,,1433.6,run_exp/static/images/task_images/land.jpg,65,,,,,,66,,,6,,,,,,,,254359,1,1,FALSE,,,
dig,196,656116,0.0-64.0-0.0,,,,,,,,,,,"[{""stimulus"":""run_exp/static/images/task_images/dig.jpg"",""time"":0.7000000476837158},{""stimulus"":""run_exp/static/images/task_images/land.jpg"",""time"":545.2000000476837},{""stimulus"":""run_exp/static/images/task_images/dig.jpg"",""time"":1053.9000000953674}]",[],6,,,,,,,,,,,,,,
harvest,197,657123,0.0-64.0-1.0,,null,run_exp/static/images/task_images/gems/66.jpg,null,,,,,,56,,,6,,,,,66,0.853920205,0.848484848,,,,,,,
decision,198,658631,0.0-64.0-2.0,,1505.6,run_exp/static/images/task_images/land.jpg,65,,,,,,56,,,6,,,,,,,,258460,1,2,FALSE,,,
dig,199,660144,0.0-65.0-0.0,,,,,,,,,,,"[{""stimulus"":""run_exp/static/images/task_images/dig.jpg"",""time"":0.5999999046325684},{""stimulus"":""run_exp/static/images/task_images/land.jpg"",""time"":513.7999999523163},{""stimulus"":""run_exp/static/images/task_images/dig.jpg"",""time"":1013}]",[],6,,,,,,,,,,,,,,
harvest,200,661153,0.0-65.0-1.0,,null,run_exp/static/images/task_images/gems/56.jpg,null,,,,,,45,,,6,,,,,56,0.802459896,0.803571429,,,,,,,
decision,201,662257,0.0-65.0-2.0,,1102,run_exp/static/images/task_images/land.jpg,65,,,,,,45,,,6,,,,,,,,262087,1,3,FALSE,,,
dig,202,664184,0.0-66.0-0.0,,,,,,,,,,,"[{""stimulus"":""run_exp/static/images/task_images/dig.jpg"",""time"":0.7999999523162842},{""stimulus"":""run_exp/static/images/task_images/land.jpg"",""time"":647.5},{""stimulus"":""run_exp/static/images/task_images/dig.jpg"",""time"":1284.7999999523163}]",[],6,,,,,,,,,,,,,,
harvest,203,665728,0.0-66.0-1.0,,null,run_exp/static/images/task_images/gems/45.jpg,null,,,,,,33,,,6,,,,,45,0.739312958,0.733333333,,,,,,,
decision,204,666482,0.0-66.0-2.0,,750.5999999,run_exp/static/images/task_images/land.jpg,65,,,,,,33,,,6,,,,,,,,266311,1,4,FALSE,,,
dig,205,668755,0.0-67.0-0.0,,,,,,,,,,,"[{""stimulus"":""run_exp/static/images/task_images/dig.jpg"",""time"":0.7999999523162842},{""stimulus"":""run_exp/static/images/task_images/land.jpg"",""time"":760.4000000953674},{""stimulus"":""run_exp/static/images/task_images/dig.jpg"",""time"":1512}]",[],6,,,,,,,,,,,,,,
harvest,206,670236,0.0-67.0-1.0,,null,run_exp/static/images/task_images/gems/33.jpg,null,,,,,,29,,,6,,,,,33,0.882891883,0.878787879,,,,,,,
decision,207,671360,0.0-67.0-2.0,,1121,run_exp/static/images/task_images/land.jpg,65,,,,,,29,,,6,,,,,,,,271189,1,5,FALSE,,,
dig,208,673255,0.0-68.0-0.0,,,,,,,,,,,"[{""stimulus"":""run_exp/static/images/task_images/dig.jpg"",""time"":0.9000000953674316},{""stimulus"":""run_exp/static/images/task_images/land.jpg"",""time"":642.7999999523163},{""stimulus"":""run_exp/static/images/task_images/dig.jpg"",""time"":1262.1000001430511}]",[],6,,,,,,,,,,,,,,
harvest,209,674263,0.0-68.0-1.0,,null,run_exp/static/images/task_images/gems/29.jpg,null,,,,,,24,,,6,,,,,29,0.838143544,0.827586207,,,,,,,
decision,210,675773,0.0-68.0-2.0,,1507.5,run_exp/static/images/task_images/land.jpg,65,,,,,,24,,,6,,,,,,,,275602,1,6,FALSE,,,
dig,211,677294,0.0-69.0-0.0,,,,,,,,,,,"[{""stimulus"":""run_exp/static/images/task_images/dig.jpg"",""time"":0.7000000476837158},{""stimulus"":""run_exp/static/images/task_images/land.jpg"",""time"":500.5},{""stimulus"":""run_exp/static/images/task_images/dig.jpg"",""time"":1009.7999999523163}]",[],6,,,,,,,,,,,,,,
harvest,212,678316,0.0-69.0-1.0,,null,run_exp/static/images/task_images/gems/24.jpg,null,,,,,,20,,,6,,,,,24,0.821754376,0.833333333,,,,,,,
decision,213,678881,0.0-69.0-2.0,,560.3999999,run_exp/static/images/task_images/land.jpg,65,,,,,,20,,,6,,,,,,,,278710,1,7,FALSE,,,
dig,214,681355,0.0-70.0-0.0,,,,,,,,,,,"[{""stimulus"":""run_exp/static/images/task_images/dig.jpg"",""time"":0.7999999523162842},{""stimulus"":""run_exp/static/images/task_images/land.jpg"",""time"":835.2999999523163},{""stimulus"":""run_exp/static/images/task_images/dig.jpg"",""time"":1636.8999998569489}]",[],6,,,,,,,,,,,,,,
harvest,215,683115,0.0-70.0-1.0,,null,run_exp/static/images/task_images/gems/20.jpg,null,,,,,,15,,,6,,,,,20,0.773632523,0.75,,,,,,,
decision,216,683602,0.0-70.0-2.0,,483,run_exp/static/images/task_images/land.jpg,65,,,,,,15,,,6,,,,,,,,283431,1,8,FALSE,,,
dig,217,686155,0.0-71.0-0.0,,,,,,,,,,,"[{""stimulus"":""run_exp/static/images/task_images/dig.jpg"",""time"":0.7999999523162842},{""stimulus"":""run_exp/static/images/task_images/land.jpg"",""time"":860},{""stimulus"":""run_exp/static/images/task_images/dig.jpg"",""time"":1701.5}]",[],6,,,,,,,,,,,,,,
harvest,218,687164,0.0-71.0-1.0,,null,run_exp/static/images/task_images/gems/15.jpg,null,,,,,,11,,,6,,,,,15,0.758978029,0.733333333,,,,,,,
decision,219,687569,0.0-71.0-2.0,,400.5,run_exp/static/images/task_images/land.jpg,65,,,,,,11,,,6,,,,,,,,287398,1,9,FALSE,,,
dig,220,690184,0.0-72.0-0.0,,,,,,,,,,,"[{""stimulus"":""run_exp/static/images/task_images/dig.jpg"",""time"":0.7000000476837158},{""stimulus"":""run_exp/static/images/task_images/land.jpg"",""time"":874.7000000476837},{""stimulus"":""run_exp/static/images/task_images/dig.jpg"",""time"":1755.3999998569489}]",[],6,,,,,,,,,,,,,,
harvest,221,691786,0.0-72.0-1.0,,null,run_exp/static/images/task_images/gems/11.jpg,null,,,,,,8,,,6,,,,,11,0.707017806,0.727272727,,,,,,,
decision,222,692196,0.0-72.0-2.0,,407.0999999,run_exp/static/images/task_images/land.jpg,65,,,,,,8,,,6,,,,,,,,292025,1,10,FALSE,,,
dig,223,694816,0.0-73.0-0.0,,,,,,,,,,,"[{""stimulus"":""run_exp/static/images/task_images/dig.jpg"",""time"":0.7000000476837158},{""stimulus"":""run_exp/static/images/task_images/land.jpg"",""time"":873.5},{""stimulus"":""run_exp/static/images/task_images/dig.jpg"",""time"":1738.4000000953674}]",[],6,,,,,,,,,,,,,,
harvest,224,695823,0.0-73.0-1.0,,null,run_exp/static/images/task_images/gems/8.jpg,null,,,,,,6,,,6,,,,,8,0.705114274,0.75,,,,,,,
decision,225,696776,0.0-73.0-2.0,,950.5999999,run_exp/static/images/task_images/land.jpg,65,,,,,,6,,,6,,,,,,,,296605,1,11,FALSE,,,
dig,226,698848,0.0-74.0-0.0,,,,,,,,,,,"[{""stimulus"":""run_exp/static/images/task_images/dig.jpg"",""time"":0.8999998569488525},{""stimulus"":""run_exp/static/images/task_images/land.jpg"",""time"":707.2999999523163},{""stimulus"":""run_exp/static/images/task_images/dig.jpg"",""time"":1376.2000000476837}]",[],6,,,,,,,,,,,,,,
harvest,227,700274,0.0-74.0-1.0,,null,run_exp/static/images/task_images/gems/6.jpg,null,,,,,,5,,,6,,,,,6,0.827886219,0.833333333,,,,,,,
decision,228,700657,0.0-74.0-2.0,,380.1000001,run_exp/static/images/task_images/land.jpg,65,,,,,,5,,,6,,,,,,,,300486,1,12,TRUE,,,
end_of_block_continue,229,709570,0.0-75.0-0.0,,null,run_exp/static/audio/clip_32_block_end.m4a,,,,,,null,,,,,,,,,,,,,,,,,,
alien_welcome,230,714611,0.0-76.0-0.0,,null,run_exp/static/images/task_images/aliens/old_aliens/planet/alien_planet-25.jpg,null,,,,,,,,,,,,25,"12,17,56,44,50,63,25,3,20,35,52,30,38,47,69,51,58,45,62,57,33,31,4,11,61,34,78,60,6,40",,,,,,,,,,
land,231,715138,0.0-76.0-1.0,,null,run_exp/static/images/task_images/land.jpg,null,,,,,,97,,,7,,,,,,,,,,,,,,
dig,232,717153,0.0-76.0-2.0,,,,,,,,,,,"[{""stimulus"":""run_exp/static/images/task_images/dig.jpg"",""time"":1},{""stimulus"":""run_exp/static/images/task_images/land.jpg"",""time"":688.4000000953674},{""stimulus"":""run_exp/static/images/task_images/dig.jpg"",""time"":1347.1000001430511}]",[],7,,,,,,,,,,,,,,
harvest,233,718163,0.0-76.0-3.0,,null,run_exp/static/images/task_images/gems/97.jpg,null,,,,,,24,,,7,,,,,97,0.243769091,0.24742268,,,,,,,
decision,234,719460,0.0-76.0-4.0,,1293.2,run_exp/static/images/task_images/land.jpg,65,,,,,,24,,,7,,,,,,,,9876,2,0,FALSE,,,
dig,235,721195,0.0-77.0-0.0,,,,,,,,,,,"[{""stimulus"":""run_exp/static/images/task_images/dig.jpg"",""time"":0.8999998569488525},{""stimulus"":""run_exp/static/images/task_images/land.jpg"",""time"":590.7999999523163},{""stimulus"":""run_exp/static/images/task_images/dig.jpg"",""time"":1145.7999999523163}]",[],7,,,,,,,,,,,,,,
harvest,236,722208,0.0-77.0-1.0,,null,run_exp/static/images/task_images/gems/24.jpg,null,,,,,,7,,,7,,,,,24,0.299783147,0.291666667,,,,,,,
decision,237,722671,0.0-77.0-2.0,,457.5999999,run_exp/static/images/task_images/land.jpg,65,,,,,,7,,,7,,,,,,,,13087,2,1,FALSE,,,
dig,238,725246,0.0-78.0-0.0,,,,,,,,,,,"[{""stimulus"":""run_exp/static/images/task_images/dig.jpg"",""time"":0.7999999523162842},{""stimulus"":""run_exp/static/images/task_images/land.jpg"",""time"":858},{""stimulus"":""run_exp/static/images/task_images/dig.jpg"",""time"":1699.1000001430511}]",[],7,,,,,,,,,,,,,,
harvest,239,726889,0.0-78.0-1.0,,null,run_exp/static/images/task_images/gems/7.jpg,null,,,,,,2,,,7,,,,,7,0.231745722,0.285714286,,,,,,,
decision,240,727267,0.0-78.0-2.0,,374.8000002,run_exp/static/images/task_images/land.jpg,65,,,,,,2,,,7,,,,,,,,17683,2,2,FALSE,,,
dig,241,729926,0.0-79.0-0.0,,,,,,,,,,,"[{""stimulus"":""run_exp/static/images/task_images/dig.jpg"",""time"":0.7999999523162842},{""stimulus"":""run_exp/static/images/task_images/land.jpg"",""time"":893.2000000476837},{""stimulus"":""run_exp/static/images/task_images/dig.jpg"",""time"":1762.4000000953674}]",[],7,,,,,,,,,,,,,,
harvest,242,730946,0.0-79.0-1.0,,null,run_exp/static/images/task_images/gems/2.jpg,null,,,,,,0,,,7,,,,,2,0.214081391,0,,,,,,,
decision,243,731479,0.0-79.0-2.0,,528.5999999,run_exp/static/images/task_images/land.jpg,65,,,,,,0,,,7,,,,,,,,21895,2,3,FALSE,,,
dig,244,733974,0.0-80.0-0.0,,,,,,,,,,,"[{""stimulus"":""run_exp/static/images/task_images/dig.jpg"",""time"":0.9000000953674316},{""stimulus"":""run_exp/static/images/task_images/land.jpg"",""time"":829.2000000476837},{""stimulus"":""run_exp/static/images/task_images/dig.jpg"",""time"":1670}]",[],7,,,,,,,,,,,,,,
harvest,245,734980,0.0-80.0-1.0,,null,run_exp/static/images/task_images/gems/0.jpg,null,,,,,,0,,,7,,,,,0,0.197664913,NaN,,,,,,,
decision,246,736478,0.0-80.0-2.0,,1494,run_exp/static/images/task_images/land.jpg,76,,,,,,0,,,7,,,,,,,,26894,2,4,TRUE,,,
travel,247,745004,0.0-81.0-0.0,,,,,,,,,,,"[{""stimulus"":""run_exp/static/images/task_images/rocket-01.jpg"",""time"":0.7000000476837158},{""stimulus"":""run_exp/static/images/task_images/rocket-02.jpg"",""time"":952.7999999523163},{""stimulus"":""run_exp/static/images/task_images/rocket-03.jpg"",""time"":1911.8999998569489},{""stimulus"":""run_exp/static/images/task_images/rocket-04.jpg"",""time"":2851.399999856949},{""stimulus"":""run_exp/static/images/task_images/rocket-05.jpg"",""time"":3793.5},{""stimulus"":""run_exp/static/images/task_images/rocket-06.jpg"",""time"":4731.799999952316},{""stimulus"":""run_exp/static/images/task_images/rocket-07.jpg"",""time"":5691.700000047684},{""stimulus"":""run_exp/static/images/task_images/rocket-08.jpg"",""time"":6631},{""stimulus"":""run_exp/static/images/task_images/rocket-09.jpg"",""time"":7571.200000047684}]",[],7,,,,,,,,,,,,,,
alien_welcome,248,750015,0.0-81.0-1.0,,null,run_exp/static/images/task_images/aliens/old_aliens/planet/alien_planet-3.jpg,null,,,,,,,,,,,,3,"12,17,56,44,50,63,25,3,20,35,52,30,38,47,69,51,58,45,62,57,33,31,4,11,61,34,78,60,6,40",,,,,,,,,,
land,249,750537,0.0-81.0-2.0,,null,run_exp/static/images/task_images/land.jpg,null,,,,,,101,,,8,,,,,,,,,,,,,,
dig,250,752565,0.0-81.0-3.0,,,,,,,,,,,"[{""stimulus"":""run_exp/static/images/task_images/dig.jpg"",""time"":0.9000000953674316},{""stimulus"":""run_exp/static/images/task_images/land.jpg"",""time"":682.9000000953674},{""stimulus"":""run_exp/static/images/task_images/dig.jpg"",""time"":1340.4000000953674}]",[],8,,,,,,,,,,,,,,
harvest,251,754308,0.0-81.0-4.0,,null,run_exp/static/images/task_images/gems/101.jpg,null,,,,,,19,,,8,,,,,101,0.192497449,0.188118812,,,,,,,
decision,252,754696,0.0-81.0-5.0,,384.6000001,run_exp/static/images/task_images/land.jpg,65,,,,,,19,,,8,,,,,,,,45112,2,0,FALSE,,,
dig,253,757345,0.0-82.0-0.0,,,,,,,,,,,"[{""stimulus"":""run_exp/static/images/task_images/dig.jpg"",""time"":1.0999999046325684},{""stimulus"":""run_exp/static/images/task_images/land.jpg"",""time"":891.5},{""stimulus"":""run_exp/static/images/task_images/dig.jpg"",""time"":1752.3999998569489}]",[],8,,,,,,,,,,,,,,
harvest,254,758891,0.0-82.0-1.0,,null,run_exp/static/images/task_images/gems/19.jpg,null,,,,,,3,,,8,,,,,19,0.182479766,0.157894737,,,,,,,
decision,255,759260,0.0-82.0-2.0,,365.3999999,run_exp/static/images/task_images/land.jpg,65,,,,,,3,,,8,,,,,,,,49677,2,1,FALSE,,,
dig,256,761924,0.0-83.0-0.0,,,,,,,,,,,"[{""stimulus"":""run_exp/static/images/task_images/dig.jpg"",""time"":0.9000000953674316},{""stimulus"":""run_exp/static/images/task_images/land.jpg"",""time"":899.7999999523163},{""stimulus"":""run_exp/static/images/task_images/dig.jpg"",""time"":1778.7000000476837}]",[],8,,,,,,,,,,,,,,
harvest,257,762942,0.0-83.0-1.0,,null,run_exp/static/images/task_images/gems/3.jpg,null,,,,,,1,,,8,,,,,3,0.233082604,0.333333333,,,,,,,
decision,258,763351,0.0-83.0-2.0,,404.3999999,run_exp/static/images/task_images/land.jpg,65,,,,,,1,,,8,,,,,,,,53767,2,2,FALSE,,,
dig,259,765983,0.0-84.0-0.0,,,,,,,,,,,"[{""stimulus"":""run_exp/static/images/task_images/dig.jpg"",""time"":0.7000000476837158},{""stimulus"":""run_exp/static/images/task_images/land.jpg"",""time"":877.5999999046326},{""stimulus"":""run_exp/static/images/task_images/dig.jpg"",""time"":1737.2000000476837}]",[],8,,,,,,,,,,,,,,
harvest,260,767006,0.0-84.0-1.0,,null,run_exp/static/images/task_images/gems/1.jpg,null,,,,,,0,,,8,,,,,1,0.295958327,0,,,,,,,
decision,261,767431,0.0-84.0-2.0,,420.4000001,run_exp/static/images/task_images/land.jpg,65,,,,,,0,,,8,,,,,,,,57847,2,3,FALSE,,,
dig,262,770044,0.0-85.0-0.0,,,,,,,,,,,"[{""stimulus"":""run_exp/static/images/task_images/dig.jpg"",""time"":0.7999999523162842},{""stimulus"":""run_exp/static/images/task_images/land.jpg"",""time"":868.2000000476837},{""stimulus"":""run_exp/static/images/task_images/dig.jpg"",""time"":1737.7000000476837}]",[],8,,,,,,,,,,,,,,
harvest,263,771064,0.0-85.0-1.0,,null,run_exp/static/images/task_images/gems/0.jpg,null,,,,,,0,,,8,,,,,0,0.218465525,NaN,,,,,,,
decision,264,772066,0.0-85.0-2.0,,997.8,run_exp/static/images/task_images/land.jpg,76,,,,,,0,,,8,,,,,,,,62484,2,4,TRUE,,,
travel,265,781104,0.0-86.0-0.0,,,,,,,,,,,"[{""stimulus"":""run_exp/static/images/task_images/rocket-01.jpg"",""time"":0.9000000953674316},{""stimulus"":""run_exp/static/images/task_images/rocket-02.jpg"",""time"":1021.5},{""stimulus"":""run_exp/static/images/task_images/rocket-03.jpg"",""time"":2021.6000001430511},{""stimulus"":""run_exp/static/images/task_images/rocket-04.jpg"",""time"":3020.9000000953674},{""stimulus"":""run_exp/static/images/task_images/rocket-05.jpg"",""time"":4009.600000143051},{""stimulus"":""run_exp/static/images/task_images/rocket-06.jpg"",""time"":5021.5},{""stimulus"":""run_exp/static/images/task_images/rocket-07.jpg"",""time"":6021.799999952316},{""stimulus"":""run_exp/static/images/task_images/rocket-08.jpg"",""time"":7009.900000095367},{""stimulus"":""run_exp/static/images/task_images/rocket-09.jpg"",""time"":8009.299999952316}]",[],8,,,,,,,,,,,,,,
alien_welcome,266,786123,0.0-86.0-1.0,,null,run_exp/static/images/task_images/aliens/old_aliens/planet/alien_planet-20.jpg,null,,,,,,,,,,,,20,"12,17,56,44,50,63,25,3,20,35,52,30,38,47,69,51,58,45,62,57,33,31,4,11,61,34,78,60,6,40",,,,,,,,,,
land,267,786634,0.0-86.0-2.0,,null,run_exp/static/images/task_images/land.jpg,null,,,,,,100,,,9,,,,,,,,,,,,,,
dig,268,788652,0.0-86.0-3.0,,,,,,,,,,,"[{""stimulus"":""run_exp/static/images/task_images/dig.jpg"",""time"":1.2000000476837158},{""stimulus"":""run_exp/static/images/task_images/land.jpg"",""time"":673.2999999523163},{""stimulus"":""run_exp/static/images/task_images/dig.jpg"",""time"":1352}]",[],9,,,,,,,,,,,,,,
harvest,269,790199,0.0-86.0-4.0,,null,run_exp/static/images/task_images/gems/100.jpg,null,,,,,,20,,,9,,,,,100,0.203896283,0.2,,,,,,,
decision,270,790708,0.0-86.0-5.0,,504.7,run_exp/static/images/task_images/land.jpg,65,,,,,,20,,,9,,,,,,,,81124,2,0,FALSE,,,
dig,271,793230,0.0-87.0-0.0,,,,,,,,,,,"[{""stimulus"":""run_exp/static/images/task_images/dig.jpg"",""time"":0.6999998092651367},{""stimulus"":""run_exp/static/images/task_images/land.jpg"",""time"":839.6999998092651},{""stimulus"":""run_exp/static/images/task_images/dig.jpg"",""time"":1669.3999998569489}]",[],9,,,,,,,,,,,,,,
harvest,272,794257,0.0-87.0-1.0,,null,run_exp/static/images/task_images/gems/20.jpg,null,,,,,,3,,,9,,,,,20,0.144477986,0.15,,,,,,,
decision,273,794655,0.0-87.0-2.0,,392.8,run_exp/static/images/task_images/land.jpg,65,,,,,,3,,,9,,,,,,,,85072,2,1,FALSE,,,
dig,274,797293,0.0-88.0-0.0,,,,,,,,,,,"[{""stimulus"":""run_exp/static/images/task_images/dig.jpg"",""time"":0.8999998569488525},{""stimulus"":""run_exp/static/images/task_images/land.jpg"",""time"":891.1999998092651},{""stimulus"":""run_exp/static/images/task_images/dig.jpg"",""time"":1761}]",[],9,,,,,,,,,,,,,,
harvest,275,798302,0.0-88.0-1.0,,null,run_exp/static/images/task_images/gems/3.jpg,null,,,,,,1,,,9,,,,,3,0.207497121,0.333333333,,,,,,,
decision,276,798746,0.0-88.0-2.0,,440.4000001,run_exp/static/images/task_images/land.jpg,65,,,,,,1,,,9,,,,,,,,89163,2,2,FALSE,,,
dig,277,801345,0.0-89.0-0.0,,,,,,,,,,,"[{""stimulus"":""run_exp/static/images/task_images/dig.jpg"",""time"":0.7999999523162842},{""stimulus"":""run_exp/static/images/task_images/land.jpg"",""time"":872.5999999046326},{""stimulus"":""run_exp/static/images/task_images/dig.jpg"",""time"":1711.7999999523163}]",[],9,,,,,,,,,,,,,,
harvest,278,802363,0.0-89.0-1.0,,null,run_exp/static/images/task_images/gems/1.jpg,null,,,,,,0,,,9,,,,,1,0.202376363,0,,,,,,,
decision,279,802715,0.0-89.0-2.0,,347.5,run_exp/static/images/task_images/land.jpg,65,,,,,,0,,,9,,,,,,,,93131,2,3,FALSE,,,
dig,280,805407,0.0-90.0-0.0,,,,,,,,,,,"[{""stimulus"":""run_exp/static/images/task_images/dig.jpg"",""time"":1.7000000476837158},{""stimulus"":""run_exp/static/images/task_images/land.jpg"",""time"":906.0999999046326},{""stimulus"":""run_exp/static/images/task_images/dig.jpg"",""time"":1793.5}]",[],9,,,,,,,,,,,,,,
harvest,281,806412,0.0-90.0-1.0,,null,run_exp/static/images/task_images/gems/0.jpg,null,,,,,,0,,,9,,,,,0,0.171816626,NaN,,,,,,,
decision,282,809433,0.0-90.0-2.0,,null,run_exp/static/images/task_images/land.jpg,null,,,,,,0,,,9,,,,,,,,99849,2,4,FALSE,,,
time_out,283,811457,0.0-91.0-0.0,,null,run_exp/static/images/task_images/time_out.jpg,null,,,,,,0,,,,,,,,,,,,,,,,,
decision,284,812246,0.0-91.0-1.0,,782.4000001,run_exp/static/images/task_images/land.jpg,76,,,,,,0,,,9,,,,,,,,102662,2,4,TRUE,,,
travel,285,821483,0.0-92.0-0.0,,,,,,,,,,,"[{""stimulus"":""run_exp/static/images/task_images/rocket-01.jpg"",""time"":0.8000001907348633},{""stimulus"":""run_exp/static/images/task_images/rocket-02.jpg"",""time"":1042.6000001430511},{""stimulus"":""run_exp/static/images/task_images/rocket-03.jpg"",""time"":2062.9000000953674},{""stimulus"":""run_exp/static/images/task_images/rocket-04.jpg"",""time"":3083.4000000953674},{""stimulus"":""run_exp/static/images/task_images/rocket-05.jpg"",""time"":4112},{""stimulus"":""run_exp/static/images/task_images/rocket-06.jpg"",""time"":5143.300000190735},{""stimulus"":""run_exp/static/images/task_images/rocket-07.jpg"",""time"":6162.700000047684},{""stimulus"":""run_exp/static/images/task_images/rocket-08.jpg"",""time"":7189.900000095367},{""stimulus"":""run_exp/static/images/task_images/rocket-09.jpg"",""time"":8202.900000095367}]",[],9,,,,,,,,,,,,,,
alien_welcome,286,826539,0.0-92.0-1.0,,null,run_exp/static/images/task_images/aliens/old_aliens/planet/alien_planet-35.jpg,null,,,,,,,,,,,,35,"12,17,56,44,50,63,25,3,20,35,52,30,38,47,69,51,58,45,62,57,33,31,4,11,61,34,78,60,6,40",,,,,,,,,,
land,287,827042,0.0-92.0-2.0,,null,run_exp/static/images/task_images/land.jpg,null,,,,,,98,,,10,,,,,,,,,,,,,,
dig,288,829074,0.0-92.0-3.0,,,,,,,,,,,"[{""stimulus"":""run_exp/static/images/task_images/dig.jpg"",""time"":0.7000000476837158},{""stimulus"":""run_exp/static/images/task_images/land.jpg"",""time"":676.0999999046326},{""stimulus"":""run_exp/static/images/task_images/dig.jpg"",""time"":1353.4000000953674}]",[],10,,,,,,,,,,,,,,
harvest,289,830113,0.0-92.0-4.0,,null,run_exp/static/images/task_images/gems/98.jpg,null,,,,,,82,,,10,,,,,98,0.831999386,0.836734694,,,,,,,
decision,290,830738,0.0-92.0-5.0,,621,run_exp/static/images/task_images/land.jpg,65,,,,,,82,,,10,,,,,,,,121154,2,0,FALSE,,,
dig,291,833144,0.0-93.0-0.0,,,,,,,,,,,"[{""stimulus"":""run_exp/static/images/task_images/dig.jpg"",""time"":0.8999998569488525},{""stimulus"":""run_exp/static/images/task_images/land.jpg"",""time"":807},{""stimulus"":""run_exp/static/images/task_images/dig.jpg"",""time"":1608.5}]",[],10,,,,,,,,,,,,,,
harvest,292,834747,0.0-93.0-1.0,,null,run_exp/static/images/task_images/gems/82.jpg,null,,,,,,68,,,10,,,,,82,0.833467238,0.829268293,,,,,,,
decision,293,835550,0.0-93.0-2.0,,799.5,run_exp/static/images/task_images/land.jpg,65,,,,,,68,,,10,,,,,,,,125966,2,1,FALSE,,,
dig,294,837783,0.0-94.0-0.0,,,,,,,,,,,"[{""stimulus"":""run_exp/static/images/task_images/dig.jpg"",""time"":1},{""stimulus"":""run_exp/static/images/task_images/land.jpg"",""time"":756.4000000953674},{""stimulus"":""run_exp/static/images/task_images/dig.jpg"",""time"":1475.5}]",[],10,,,,,,,,,,,,,,
harvest,295,839291,0.0-94.0-1.0,,null,run_exp/static/images/task_images/gems/68.jpg,null,,,,,,57,,,10,,,,,68,0.839910348,0.838235294,,,,,,,
decision,296,839855,0.0-94.0-2.0,,560.1000001,run_exp/static/images/task_images/land.jpg,65,,,,,,57,,,10,,,,,,,,130271,2,2,FALSE,,,
dig,297,842326,0.0-95.0-0.0,,,,,,,,,,,"[{""stimulus"":""run_exp/static/images/task_images/dig.jpg"",""time"":0.9000000953674316},{""stimulus"":""run_exp/static/images/task_images/land.jpg"",""time"":834.6000001430511},{""stimulus"":""run_exp/static/images/task_images/dig.jpg"",""time"":1643.6000001430511}]",[],10,,,,,,,,,,,,,,
harvest,298,843884,0.0-95.0-1.0,,null,run_exp/static/images/task_images/gems/57.jpg,null,,,,,,47,,,10,,,,,57,0.815886918,0.824561404,,,,,,,
decision,299,844386,0.0-95.0-2.0,,498.8,run_exp/static/images/task_images/land.jpg,65,,,,,,47,,,10,,,,,,,,134802,2,3,FALSE,,,
dig,300,846922,0.0-96.0-0.0,,,,,,,,,,,"[{""stimulus"":""run_exp/static/images/task_images/dig.jpg"",""time"":1.0999999046325684},{""stimulus"":""run_exp/static/images/task_images/land.jpg"",""time"":851.5},{""stimulus"":""run_exp/static/images/task_images/dig.jpg"",""time"":1683.5}]",[],10,,,,,,,,,,,,,,
harvest,301,847931,0.0-96.0-1.0,,null,run_exp/static/images/task_images/gems/47.jpg,null,,,,,,38,,,10,,,,,47,0.814378688,0.808510638,,,,,,,
decision,302,848734,0.0-96.0-2.0,,800.7,run_exp/static/images/task_images/land.jpg,65,,,,,,38,,,10,,,,,,,,139151,2,4,FALSE,,,
dig,303,850953,0.0-97.0-0.0,,,,,,,,,,,"[{""stimulus"":""run_exp/static/images/task_images/dig.jpg"",""time"":0.7999999523162842},{""stimulus"":""run_exp/static/images/task_images/land.jpg"",""time"":753.4000000953674},{""stimulus"":""run_exp/static/images/task_images/dig.jpg"",""time"":1483.7000000476837}]",[],10,,,,,,,,,,,,,,
harvest,304,851961,0.0-97.0-1.0,,null,run_exp/static/images/task_images/gems/38.jpg,null,,,,,,29,,,10,,,,,38,0.775292859,0.763157895,,,,,,,
decision,305,852839,0.0-97.0-2.0,,875.5999999,run_exp/static/images/task_images/land.jpg,65,,,,,,29,,,10,,,,,,,,143255,2,5,FALSE,,,
dig,306,854984,0.0-98.0-0.0,,,,,,,,,,,"[{""stimulus"":""run_exp/static/images/task_images/dig.jpg"",""time"":0.5999999046325684},{""stimulus"":""run_exp/static/images/task_images/land.jpg"",""time"":719},{""stimulus"":""run_exp/static/images/task_images/dig.jpg"",""time"":1431.2000000476837}]",[],10,,,,,,,,,,,,,,
harvest,307,856004,0.0-98.0-1.0,,null,run_exp/static/images/task_images/gems/29.jpg,null,,,,,,22,,,10,,,,,29,0.755636146,0.75862069,,,,,,,
decision,308,856363,0.0-98.0-2.0,,354.7,run_exp/static/images/task_images/land.jpg,65,,,,,,22,,,10,,,,,,,,146779,2,6,FALSE,,,
dig,309,859032,0.0-99.0-0.0,,,,,,,,,,,"[{""stimulus"":""run_exp/static/images/task_images/dig.jpg"",""time"":0.6000001430511475},{""stimulus"":""run_exp/static/images/task_images/land.jpg"",""time"":886.2000000476837},{""stimulus"":""run_exp/static/images/task_images/dig.jpg"",""time"":1777.7999999523163}]",[],10,,,,,,,,,,,,,,
harvest,310,860041,0.0-99.0-1.0,,null,run_exp/static/images/task_images/gems/22.jpg,null,,,,,,19,,,10,,,,,22,0.874744571,0.863636364,,,,,,,
decision,311,860984,0.0-99.0-2.0,,941.0999999,run_exp/static/images/task_images/land.jpg,65,,,,,,19,,,10,,,,,,,,151401,2,7,FALSE,,,
dig,312,863063,0.0-100.0-0.0,,,,,,,,,,,"[{""stimulus"":""run_exp/static/images/task_images/dig.jpg"",""time"":0.5},{""stimulus"":""run_exp/static/images/task_images/land.jpg"",""time"":715.2000000476837},{""stimulus"":""run_exp/static/images/task_images/dig.jpg"",""time"":1383.5999999046326}]",[],10,,,,,,,,,,,,,,
harvest,313,864072,0.0-100.0-1.0,,null,run_exp/static/images/task_images/gems/19.jpg,null,,,,,,15,,,10,,,,,19,0.80896117,0.789473684,,,,,,,
decision,314,864560,0.0-100.0-2.0,,483.3999999,run_exp/static/images/task_images/land.jpg,65,,,,,,15,,,10,,,,,,,,154977,2,8,FALSE,,,
dig,315,867092,0.0-101.0-0.0,,,,,,,,,,,"[{""stimulus"":""run_exp/static/images/task_images/dig.jpg"",""time"":0.8999998569488525},{""stimulus"":""run_exp/static/images/task_images/land.jpg"",""time"":849.5},{""stimulus"":""run_exp/static/images/task_images/dig.jpg"",""time"":1694.3999998569489}]",[],10,,,,,,,,,,,,,,
harvest,316,868112,0.0-101.0-1.0,,null,run_exp/static/images/task_images/gems/15.jpg,null,,,,,,11,,,10,,,,,15,0.76346751,0.733333333,,,,,,,
decision,317,868612,0.0-101.0-2.0,,496.8,run_exp/static/images/task_images/land.jpg,65,,,,,,11,,,10,,,,,,,,159029,2,9,FALSE,,,
dig,318,871142,0.0-102.0-0.0,,,,,,,,,,,"[{""stimulus"":""run_exp/static/images/task_images/dig.jpg"",""time"":0.7000000476837158},{""stimulus"":""run_exp/static/images/task_images/land.jpg"",""time"":846.7000000476837},{""stimulus"":""run_exp/static/images/task_images/dig.jpg"",""time"":1685.3000001907349}]",[],10,,,,,,,,,,,,,,
harvest,319,872162,0.0-102.0-1.0,,null,run_exp/static/images/task_images/gems/11.jpg,null,,,,,,9,,,10,,,,,11,0.788893814,0.818181818,,,,,,,
decision,320,872568,0.0-102.0-2.0,,402.5999999,run_exp/static/images/task_images/land.jpg,65,,,,,,9,,,10,,,,,,,,162984,2,10,FALSE,,,
dig,321,875193,0.0-103.0-0.0,,,,,,,,,,,"[{""stimulus"":""run_exp/static/images/task_images/dig.jpg"",""time"":2.0999999046325684},{""stimulus"":""run_exp/static/images/task_images/land.jpg"",""time"":881},{""stimulus"":""run_exp/static/images/task_images/dig.jpg"",""time"":1752.2000000476837}]",[],10,,,,,,,,,,,,,,
harvest,322,876212,0.0-103.0-1.0,,null,run_exp/static/images/task_images/gems/9.jpg,null,,,,,,8,,,10,,,,,9,0.848862682,0.888888889,,,,,,,
decision,323,876964,0.0-103.0-2.0,,745.5,run_exp/static/images/task_images/land.jpg,65,,,,,,8,,,10,,,,,,,,167380,2,11,FALSE,,,
dig,324,879253,0.0-104.0-0.0,,,,,,,,,,,"[{""stimulus"":""run_exp/static/images/task_images/dig.jpg"",""time"":0.7999999523162842},{""stimulus"":""run_exp/static/images/task_images/land.jpg"",""time"":765.7999999523163},{""stimulus"":""run_exp/static/images/task_images/dig.jpg"",""time"":1521.5999999046326}]",[],10,,,,,,,,,,,,,,
harvest,325,880268,0.0-104.0-1.0,,null,run_exp/static/images/task_images/gems/8.jpg,null,,,,,,7,,,10,,,,,8,0.857762276,0.875,,,,,,,
decision,326,880686,0.0-104.0-2.0,,413.5,run_exp/static/images/task_images/land.jpg,65,,,,,,7,,,10,,,,,,,,171102,2,12,FALSE,,,
dig,327,883291,0.0-105.0-0.0,,,,,,,,,,,"[{""stimulus"":""run_exp/static/images/task_images/dig.jpg"",""time"":0.5999999046325684},{""stimulus"":""run_exp/static/images/task_images/land.jpg"",""time"":883.5999999046326},{""stimulus"":""run_exp/static/images/task_images/dig.jpg"",""time"":1735.3999998569489}]",[],10,,,,,,,,,,,,,,
harvest,328,884302,0.0-105.0-1.0,,null,run_exp/static/images/task_images/gems/7.jpg,null,,,,,,5,,,10,,,,,7,0.777777718,0.714285714,,,,,,,
decision,329,884827,0.0-105.0-2.0,,519.9000001,run_exp/static/images/task_images/land.jpg,65,,,,,,5,,,10,,,,,,,,175243,2,13,FALSE,,,
dig,330,887334,0.0-106.0-0.0,,,,,,,,,,,"[{""stimulus"":""run_exp/static/images/task_images/dig.jpg"",""time"":0.5999999046325684},{""stimulus"":""run_exp/static/images/task_images/land.jpg"",""time"":834.2000000476837},{""stimulus"":""run_exp/static/images/task_images/dig.jpg"",""time"":1674.2000000476837}]",[],10,,,,,,,,,,,,,,
harvest,331,888357,0.0-106.0-1.0,,null,run_exp/static/images/task_images/gems/5.jpg,null,,,,,,4,,,10,,,,,5,0.719100937,0.8,,,,,,,
decision,332,889020,0.0-106.0-2.0,,656.8,run_exp/static/images/task_images/land.jpg,65,,,,,,4,,,10,,,,,,,,179437,2,14,FALSE,,,
dig,333,891392,0.0-107.0-0.0,,,,,,,,,,,"[{""stimulus"":""run_exp/static/images/task_images/dig.jpg"",""time"":0.7999999523162842},{""stimulus"":""run_exp/static/images/task_images/land.jpg"",""time"":789.7999999523163},{""stimulus"":""run_exp/static/images/task_images/dig.jpg"",""time"":1566.2999999523163}]",[],10,,,,,,,,,,,,,,
harvest,334,892418,0.0-107.0-1.0,,null,run_exp/static/images/task_images/gems/4.jpg,null,,,,,,3,,,10,,,,,4,0.815225791,0.75,,,,,,,
decision,335,892974,0.0-107.0-2.0,,553.3000002,run_exp/static/images/task_images/land.jpg,65,,,,,,3,,,10,,,,,,,,183391,2,15,FALSE,,,
dig,336,895442,0.0-108.0-0.0,,,,,,,,,,,"[{""stimulus"":""run_exp/static/images/task_images/dig.jpg"",""time"":0.6000001430511475},{""stimulus"":""run_exp/static/images/task_images/land.jpg"",""time"":825.9000000953674},{""stimulus"":""run_exp/static/images/task_images/dig.jpg"",""time"":1635.5}]",[],10,,,,,,,,,,,,,,
harvest,337,896451,0.0-108.0-1.0,,null,run_exp/static/images/task_images/gems/3.jpg,null,,,,,,3,,,10,,,,,3,0.850829941,1,,,,,,,
decision,338,896995,0.0-108.0-2.0,,539.9000001,run_exp/static/images/task_images/land.jpg,65,,,,,,3,,,10,,,,,,,,187413,2,16,FALSE,,,
dig,339,899482,0.0-109.0-0.0,,,,,,,,,,,"[{""stimulus"":""run_exp/static/images/task_images/dig.jpg"",""time"":0.7000000476837158},{""stimulus"":""run_exp/static/images/task_images/land.jpg"",""time"":832.7000000476837},{""stimulus"":""run_exp/static/images/task_images/dig.jpg"",""time"":1663}]",[],10,,,,,,,,,,,,,,
harvest,340,900506,0.0-109.0-1.0,,null,run_exp/static/images/task_images/gems/3.jpg,null,,,,,,3,,,10,,,,,3,0.861053813,1,,,,,,,
decision,341,901065,0.0-109.0-2.0,,555.3999999,run_exp/static/images/task_images/land.jpg,65,,,,,,0,,,10,,,,,,,,191481,2,17,FALSE,,,
dig,342,903533,0.0-110.0-0.0,,,,,,,,,,,"[{""stimulus"":""run_exp/static/images/task_images/dig.jpg"",""time"":0.7999999523162842},{""stimulus"":""run_exp/static/images/task_images/land.jpg"",""time"":826.0999999046326},{""stimulus"":""run_exp/static/images/task_images/dig.jpg"",""time"":1640.5999999046326}]",[],10,,,,,,,,,,,,,,
harvest,343,904553,0.0-110.0-1.0,,null,run_exp/static/images/task_images/gems/0.jpg,null,,,,,,0,,,10,,,,,0,0.817620872,NaN,,,,,,,
decision,344,905335,0.0-110.0-2.0,,776.0999999,run_exp/static/images/task_images/land.jpg,76,,,,,,0,,,10,,,,,,,,195751,2,18,TRUE,,,
travel,345,914572,0.0-111.0-0.0,,,,,,,,,,,"[{""stimulus"":""run_exp/static/images/task_images/rocket-01.jpg"",""time"":0.7999999523162842},{""stimulus"":""run_exp/static/images/task_images/rocket-02.jpg"",""time"":1033.2999999523163},{""stimulus"":""run_exp/static/images/task_images/rocket-03.jpg"",""time"":2052.7000000476837},{""stimulus"":""run_exp/static/images/task_images/rocket-04.jpg"",""time"":3093.2999999523163},{""stimulus"":""run_exp/static/images/task_images/rocket-05.jpg"",""time"":4111.899999856949},{""stimulus"":""run_exp/static/images/task_images/rocket-06.jpg"",""time"":5142.200000047684},{""stimulus"":""run_exp/static/images/task_images/rocket-07.jpg"",""time"":6162.599999904633},{""stimulus"":""run_exp/static/images/task_images/rocket-08.jpg"",""time"":7172.899999856949},{""stimulus"":""run_exp/static/images/task_images/rocket-09.jpg"",""time"":8213.200000047684}]",[],10,,,,,,,,,,,,,,
alien_welcome,346,919596,0.0-111.0-1.0,,null,run_exp/static/images/task_images/aliens/old_aliens/planet/alien_planet-52.jpg,null,,,,,,,,,,,,52,"12,17,56,44,50,63,25,3,20,35,52,30,38,47,69,51,58,45,62,57,33,31,4,11,61,34,78,60,6,40",,,,,,,,,,
land,347,920117,0.0-111.0-2.0,,null,run_exp/static/images/task_images/land.jpg,null,,,,,,98,,,11,,,,,,,,,,,,,,
dig,348,922134,0.0-111.0-3.0,,,,,,,,,,,"[{""stimulus"":""run_exp/static/images/task_images/dig.jpg"",""time"":0.6999998092651367},{""stimulus"":""run_exp/static/images/task_images/land.jpg"",""time"":689.2999999523163},{""stimulus"":""run_exp/static/images/task_images/dig.jpg"",""time"":1348.3999998569489}]",[],11,,,,,,,,,,,,,,
harvest,349,923143,0.0-111.0-4.0,,null,run_exp/static/images/task_images/gems/98.jpg,null,,,,,,78,,,11,,,,,98,0.798439553,0.795918367,,,,,,,
decision,350,923657,0.0-111.0-5.0,,510.5,run_exp/static/images/task_images/land.jpg,65,,,,,,78,,,11,,,,,,,,214074,2,0,FALSE,,,
dig,351,926183,0.0-112.0-0.0,,,,,,,,,,,"[{""stimulus"":""run_exp/static/images/task_images/dig.jpg"",""time"":0.7000000476837158},{""stimulus"":""run_exp/static/images/task_images/land.jpg"",""time"":838.2000000476837},{""stimulus"":""run_exp/static/images/task_images/dig.jpg"",""time"":1669.5}]",[],11,,,,,,,,,,,,,,
harvest,352,927720,0.0-112.0-1.0,,null,run_exp/static/images/task_images/gems/78.jpg,null,,,,,,64,,,11,,,,,78,0.823988343,0.820512821,,,,,,,
decision,353,928477,0.0-112.0-2.0,,753.1999998,run_exp/static/images/task_images/land.jpg,65,,,,,,64,,,11,,,,,,,,218893,2,1,FALSE,,,
dig,354,930754,0.0-113.0-0.0,,,,,,,,,,,"[{""stimulus"":""run_exp/static/images/task_images/dig.jpg"",""time"":0.5999999046325684},{""stimulus"":""run_exp/static/images/task_images/land.jpg"",""time"":763.2999999523163},{""stimulus"":""run_exp/static/images/task_images/dig.jpg"",""time"":1503.0999999046326}]",[],11,,,,,,,,,,,,,,
harvest,355,931766,0.0-113.0-1.0,,null,run_exp/static/images/task_images/gems/64.jpg,null,,,,,,48,,,11,,,,,64,0.756144698,0.75,,,,,,,
decision,356,933063,0.0-113.0-2.0,,1294.3,run_exp/static/images/task_images/land.jpg,65,,,,,,48,,,11,,,,,,,,223480,2,2,FALSE,,,
dig,357,934807,0.0-114.0-0.0,,,,,,,,,,,"[{""stimulus"":""run_exp/static/images/task_images/dig.jpg"",""time"":0.5},{""stimulus"":""run_exp/static/images/task_images/land.jpg"",""time"":579.7999999523163},{""stimulus"":""run_exp/static/images/task_images/dig.jpg"",""time"":1140.4000000953674}]",[],11,,,,,,,,,,,,,,
harvest,358,936370,0.0-114.0-1.0,,null,run_exp/static/images/task_images/gems/48.jpg,null,,,,,,38,,,11,,,,,48,0.793987363,0.791666667,,,,,,,
decision,359,936882,0.0-114.0-2.0,,510,run_exp/static/images/task_images/land.jpg,65,,,,,,38,,,11,,,,,,,,227299,2,3,FALSE,,,
dig,360,939405,0.0-115.0-0.0,,,,,,,,,,,"[{""stimulus"":""run_exp/static/images/task_images/dig.jpg"",""time"":0.6000001430511475},{""stimulus"":""run_exp/static/images/task_images/land.jpg"",""time"":839.5},{""stimulus"":""run_exp/static/images/task_images/dig.jpg"",""time"":1678}]",[],11,,,,,,,,,,,,,,
harvest,361,940417,0.0-115.0-1.0,,null,run_exp/static/images/task_images/gems/38.jpg,null,,,,,,31,,,11,,,,,38,0.80869874,0.815789474,,,,,,,
decision,362,940927,0.0-115.0-2.0,,506,run_exp/static/images/task_images/land.jpg,65,,,,,,31,,,11,,,,,,,,231343,2,4,FALSE,,,
dig,363,943437,0.0-116.0-0.0,,,,,,,,,,,"[{""stimulus"":""run_exp/static/images/task_images/dig.jpg"",""time"":0.5},{""stimulus"":""run_exp/static/images/task_images/land.jpg"",""time"":839.7000000476837},{""stimulus"":""run_exp/static/images/task_images/dig.jpg"",""time"":1680}]",[],11,,,,,,,,,,,,,,
harvest,364,945072,0.0-116.0-1.0,,null,run_exp/static/images/task_images/gems/31.jpg,null,,,,,,24,,,11,,,,,31,0.784155374,0.774193548,,,,,,,
decision,365,945591,0.0-116.0-2.0,,515.9000001,run_exp/static/images/task_images/land.jpg,65,,,,,,24,,,11,,,,,,,,236007,2,5,FALSE,,,
dig,366,948096,0.0-117.0-0.0,,,,,,,,,,,"[{""stimulus"":""run_exp/static/images/task_images/dig.jpg"",""time"":0.6999998092651367},{""stimulus"":""run_exp/static/images/task_images/land.jpg"",""time"":850.2999999523163},{""stimulus"":""run_exp/static/images/task_images/dig.jpg"",""time"":1660.5999999046326}]",[],11,,,,,,,,,,,,,,
harvest,367,949106,0.0-117.0-1.0,,null,run_exp/static/images/task_images/gems/24.jpg,null,,,,,,17,,,11,,,,,24,0.704489225,0.708333333,,,,,,,
decision,368,949518,0.0-117.0-2.0,,408.0999999,run_exp/static/images/task_images/land.jpg,65,,,,,,17,,,11,,,,,,,,239934,2,6,FALSE,,,
dig,369,952136,0.0-118.0-0.0,,,,,,,,,,,"[{""stimulus"":""run_exp/static/images/task_images/dig.jpg"",""time"":0.7999999523162842},{""stimulus"":""run_exp/static/images/task_images/land.jpg"",""time"":882.6000001430511},{""stimulus"":""run_exp/static/images/task_images/dig.jpg"",""time"":1741.2999999523163}]",[],11,,,,,,,,,,,,,,
harvest,370,953144,0.0-118.0-1.0,,null,run_exp/static/images/task_images/gems/17.jpg,null,,,,,,14,,,11,,,,,17,0.79412492,0.823529412,,,,,,,
decision,371,954402,0.0-118.0-2.0,,1255.1,run_exp/static/images/task_images/land.jpg,65,,,,,,14,,,11,,,,,,,,244819,2,7,FALSE,,,
dig,372,956176,0.0-119.0-0.0,,,,,,,,,,,"[{""stimulus"":""run_exp/static/images/task_images/dig.jpg"",""time"":0.7000000476837158},{""stimulus"":""run_exp/static/images/task_images/land.jpg"",""time"":598.2000000476837},{""stimulus"":""run_exp/static/images/task_images/dig.jpg"",""time"":1169.1000001430511}]",[],11,,,,,,,,,,,,,,
harvest,373,957186,0.0-119.0-1.0,,null,run_exp/static/images/task_images/gems/14.jpg,null,,,,,,11,,,11,,,,,14,0.76575728,0.785714286,,,,,,,
decision,374,957644,0.0-119.0-2.0,,452.4000001,run_exp/static/images/task_images/land.jpg,65,,,,,,11,,,11,,,,,,,,248060,2,8,FALSE,,,
dig,375,960227,0.0-120.0-0.0,,,,,,,,,,,"[{""stimulus"":""run_exp/static/images/task_images/dig.jpg"",""time"":0.6000001430511475},{""stimulus"":""run_exp/static/images/task_images/land.jpg"",""time"":855.3000001907349},{""stimulus"":""run_exp/static/images/task_images/dig.jpg"",""time"":1716.4000000953674}]",[],11,,,,,,,,,,,,,,
harvest,376,961235,0.0-120.0-1.0,,null,run_exp/static/images/task_images/gems/11.jpg,null,,,,,,8,,,11,,,,,11,0.738212032,0.727272727,,,,,,,
decision,377,961834,0.0-120.0-2.0,,595.5,run_exp/static/images/task_images/land.jpg,65,,,,,,8,,,11,,,,,,,,252250,2,9,FALSE,,,
dig,378,964267,0.0-121.0-0.0,,,,,,,,,,,"[{""stimulus"":""run_exp/static/images/task_images/dig.jpg"",""time"":0.7000000476837158},{""stimulus"":""run_exp/static/images/task_images/land.jpg"",""time"":816.5999999046326},{""stimulus"":""run_exp/static/images/task_images/dig.jpg"",""time"":1605.5999999046326}]",[],11,,,,,,,,,,,,,,
harvest,379,965276,0.0-121.0-1.0,,null,run_exp/static/images/task_images/gems/8.jpg,null,,,,,,6,,,11,,,,,8,0.768484534,0.75,,,,,,,
decision,380,965808,0.0-121.0-2.0,,527.8,run_exp/static/images/task_images/land.jpg,65,,,,,,6,,,11,,,,,,,,256225,2,10,FALSE,,,
dig,381,968307,0.0-122.0-0.0,,,,,,,,,,,"[{""stimulus"":""run_exp/static/images/task_images/dig.jpg"",""time"":0.6000001430511475},{""stimulus"":""run_exp/static/images/task_images/land.jpg"",""time"":837.7000000476837},{""stimulus"":""run_exp/static/images/task_images/dig.jpg"",""time"":1663.7000000476837}]",[],11,,,,,,,,,,,,,,
harvest,382,969321,0.0-122.0-1.0,,null,run_exp/static/images/task_images/gems/6.jpg,null,,,,,,5,,,11,,,,,6,0.774918139,0.833333333,,,,,,,
decision,383,969975,0.0-122.0-2.0,,650.2,run_exp/static/images/task_images/land.jpg,65,,,,,,5,,,11,,,,,,,,260391,2,11,FALSE,,,
dig,384,972357,0.0-123.0-0.0,,,,,,,,,,,"[{""stimulus"":""run_exp/static/images/task_images/dig.jpg"",""time"":0.7000000476837158},{""stimulus"":""run_exp/static/images/task_images/land.jpg"",""time"":795.7999999523163},{""stimulus"":""run_exp/static/images/task_images/dig.jpg"",""time"":1575.8999998569489}]",[],11,,,,,,,,,,,,,,
harvest,385,973380,0.0-123.0-1.0,,null,run_exp/static/images/task_images/gems/5.jpg,null,,,,,,4,,,11,,,,,5,0.705608282,0.8,,,,,,,
decision,386,974000,0.0-123.0-2.0,,616.6000001,run_exp/static/images/task_images/land.jpg,65,,,,,,4,,,11,,,,,,,,264417,2,12,FALSE,,,
dig,387,976407,0.0-124.0-0.0,,,,,,,,,,,"[{""stimulus"":""run_exp/static/images/task_images/dig.jpg"",""time"":0.9000000953674316},{""stimulus"":""run_exp/static/images/task_images/land.jpg"",""time"":808.2999999523163},{""stimulus"":""run_exp/static/images/task_images/dig.jpg"",""time"":1599.2000000476837}]",[],11,,,,,,,,,,,,,,
harvest,388,977416,0.0-124.0-1.0,,null,run_exp/static/images/task_images/gems/4.jpg,null,,,,,,3,,,11,,,,,4,0.737971021,0.75,,,,,,,
decision,389,978255,0.0-124.0-2.0,,835.0999999,run_exp/static/images/task_images/land.jpg,65,,,,,,3,,,11,,,,,,,,268671,2,13,FALSE,,,
dig,390,980447,0.0-125.0-0.0,,,,,,,,,,,"[{""stimulus"":""run_exp/static/images/task_images/dig.jpg"",""time"":0.5999999046325684},{""stimulus"":""run_exp/static/images/task_images/land.jpg"",""time"":733.2999999523163},{""stimulus"":""run_exp/static/images/task_images/dig.jpg"",""time"":1464.5999999046326}]",[],11,,,,,,,,,,,,,,
harvest,391,981462,0.0-125.0-1.0,,null,run_exp/static/images/task_images/gems/3.jpg,null,,,,,,2,,,11,,,,,3,0.820868269,0.666666667,,,,,,,
decision,392,981965,0.0-125.0-2.0,,497.5,run_exp/static/images/task_images/land.jpg,76,,,,,,2,,,11,,,,,,,,272381,2,14,TRUE,,,
travel,393,991487,0.0-126.0-0.0,,,,,,,,,,,"[{""stimulus"":""run_exp/static/images/task_images/rocket-01.jpg"",""time"":0.7000000476837158},{""stimulus"":""run_exp/static/images/task_images/rocket-02.jpg"",""time"":1064.0999999046326},{""stimulus"":""run_exp/static/images/task_images/rocket-03.jpg"",""time"":2114.2000000476837},{""stimulus"":""run_exp/static/images/task_images/rocket-04.jpg"",""time"":3181.5999999046326},{""stimulus"":""run_exp/static/images/task_images/rocket-05.jpg"",""time"":4235.400000095367},{""stimulus"":""run_exp/static/images/task_images/rocket-06.jpg"",""time"":5285.599999904633},{""stimulus"":""run_exp/static/images/task_images/rocket-07.jpg"",""time"":6344.900000095367},{""stimulus"":""run_exp/static/images/task_images/rocket-08.jpg"",""time"":7395.200000047684},{""stimulus"":""run_exp/static/images/task_images/rocket-09.jpg"",""time"":8445.299999952316}]",[],11,,,,,,,,,,,,,,
alien_welcome,394,996497,0.0-126.0-1.0,,null,run_exp/static/images/task_images/aliens/old_aliens/planet/alien_planet-30.jpg,null,,,,,,,,,,,,30,"12,17,56,44,50,63,25,3,20,35,52,30,38,47,69,51,58,45,62,57,33,31,4,11,61,34,78,60,6,40",,,,,,,,,,
land,395,997019,0.0-126.0-2.0,,null,run_exp/static/images/task_images/land.jpg,null,,,,,,104,,,12,,,,,,,,,,,,,,
dig,396,999034,0.0-126.0-3.0,,,,,,,,,,,"[{""stimulus"":""run_exp/static/images/task_images/dig.jpg"",""time"":1.2000000476837158},{""stimulus"":""run_exp/static/images/task_images/land.jpg"",""time"":691.5},{""stimulus"":""run_exp/static/images/task_images/dig.jpg"",""time"":1348.2000000476837}]",[],12,,,,,,,,,,,,,,
harvest,397,1000058,0.0-126.0-4.0,,null,run_exp/static/images/task_images/gems/104.jpg,null,,,,,,82,,,12,,,,,104,0.788794815,0.788461538,,,,,,,
decision,398,1000576,0.0-126.0-5.0,,513.7,run_exp/static/images/task_images/land.jpg,65,,,,,,82,,,12,,,,,,,,290993,2,0,FALSE,,,
dig,399,1003085,0.0-127.0-0.0,,,,,,,,,,,"[{""stimulus"":""run_exp/static/images/task_images/dig.jpg"",""time"":0.7999999523162842},{""stimulus"":""run_exp/static/images/task_images/land.jpg"",""time"":833.9000000953674},{""stimulus"":""run_exp/static/images/task_images/dig.jpg"",""time"":1671.2000000476837}]",[],12,,,,,,,,,,,,,,
harvest,400,1004104,0.0-127.0-1.0,,null,run_exp/static/images/task_images/gems/82.jpg,null,,,,,,63,,,12,,,,,82,0.76583504,0.768292683,,,,,,,
decision,401,1004578,0.0-127.0-2.0,,469.3,run_exp/static/images/task_images/land.jpg,65,,,,,,63,,,12,,,,,,,,294994,2,1,FALSE,,,
dig,402,1007135,0.0-128.0-0.0,,,,,,,,,,,"[{""stimulus"":""run_exp/static/images/task_images/dig.jpg"",""time"":0.6999998092651367},{""stimulus"":""run_exp/static/images/task_images/land.jpg"",""time"":859.8999998569489},{""stimulus"":""run_exp/static/images/task_images/dig.jpg"",""time"":1690.3999998569489}]",[],12,,,,,,,,,,,,,,
harvest,403,1008143,0.0-128.0-1.0,,null,run_exp/static/images/task_images/gems/63.jpg,null,,,,,,51,,,12,,,,,63,0.802833761,0.80952381,,,,,,,
decision,404,1009353,0.0-128.0-2.0,,1207.1,run_exp/static/images/task_images/land.jpg,65,,,,,,51,,,12,,,,,,,,299769,2,2,FALSE,,,
dig,405,1011165,0.0-129.0-0.0,,,,,,,,,,,"[{""stimulus"":""run_exp/static/images/task_images/dig.jpg"",""time"":0.5999999046325684},{""stimulus"":""run_exp/static/images/task_images/land.jpg"",""time"":614},{""stimulus"":""run_exp/static/images/task_images/dig.jpg"",""time"":1205.0999999046326}]",[],12,,,,,,,,,,,,,,
harvest,406,1012170,0.0-129.0-1.0,,null,run_exp/static/images/task_images/gems/51.jpg,null,,,,,,43,,,12,,,,,51,0.844668416,0.843137255,,,,,,,
decision,407,1013097,0.0-129.0-2.0,,923.8,run_exp/static/images/task_images/land.jpg,65,,,,,,43,,,12,,,,,,,,303513,2,3,TRUE,,,
end_of_block_continue,408,1022018,0.0-130.0-0.0,,null,run_exp/static/audio/clip_32_block_end.m4a,,,,,,null,,,,,,,,,,,,,,,,,,
alien_welcome,409,1027043,0.0-131.0-0.0,,null,run_exp/static/images/task_images/aliens/old_aliens/planet/alien_planet-38.jpg,null,,,,,,,,,,,,38,"12,17,56,44,50,63,25,3,20,35,52,30,38,47,69,51,58,45,62,57,33,31,4,11,61,34,78,60,6,40",,,,,,,,,,
land,410,1027568,0.0-131.0-1.0,,null,run_exp/static/images/task_images/land.jpg,null,,,,,,102,,,13,,,,,,,,,,,,,,
dig,411,1029595,0.0-131.0-2.0,,,,,,,,,,,"[{""stimulus"":""run_exp/static/images/task_images/dig.jpg"",""time"":0.7999999523162842},{""stimulus"":""run_exp/static/images/task_images/land.jpg"",""time"":680.7999999523163},{""stimulus"":""run_exp/static/images/task_images/dig.jpg"",""time"":1352.0999999046326}]",[],13,,,,,,,,,,,,,,
harvest,412,1030619,0.0-131.0-3.0,,null,run_exp/static/images/task_images/gems/102.jpg,null,,,,,,53,,,13,,,,,102,0.515260669,0.519607843,,,,,,,
decision,413,1031613,0.0-131.0-4.0,,989.2,run_exp/static/images/task_images/land.jpg,65,,,,,,53,,,13,,,,,,,,9577,3,0,FALSE,,,
dig,414,1033658,0.0-132.0-0.0,,,,,,,,,,,"[{""stimulus"":""run_exp/static/images/task_images/dig.jpg"",""time"":0.7999999523162842},{""stimulus"":""run_exp/static/images/task_images/land.jpg"",""time"":693.1000001430511},{""stimulus"":""run_exp/static/images/task_images/dig.jpg"",""time"":1352.5}]",[],13,,,,,,,,,,,,,,
harvest,415,1035102,0.0-132.0-1.0,,null,run_exp/static/images/task_images/gems/53.jpg,null,,,,,,27,,,13,,,,,53,0.505537754,0.509433962,,,,,,,
decision,416,1036135,0.0-132.0-2.0,,1029.6,run_exp/static/images/task_images/land.jpg,65,,,,,,27,,,13,,,,,,,,14098,3,1,FALSE,,,
dig,417,1038145,0.0-133.0-0.0,,,,,,,,,,,"[{""stimulus"":""run_exp/static/images/task_images/dig.jpg"",""time"":0.7999999523162842},{""stimulus"":""run_exp/static/images/task_images/land.jpg"",""time"":663.7000000476837},{""stimulus"":""run_exp/static/images/task_images/dig.jpg"",""time"":1320.5999999046326}]",[],13,,,,,,,,,,,,,,
harvest,418,1039661,0.0-133.0-1.0,,null,run_exp/static/images/task_images/gems/27.jpg,null,,,,,,15,,,13,,,,,27,0.540408609,0.555555556,,,,,,,
decision,419,1040545,0.0-133.0-2.0,,879.5,run_exp/static/images/task_images/land.jpg,65,,,,,,15,,,13,,,,,,,,18508,3,2,FALSE,,,
dig,420,1042703,0.0-134.0-0.0,,,,,,,,,,,"[{""stimulus"":""run_exp/static/images/task_images/dig.jpg"",""time"":0.7000000476837158},{""stimulus"":""run_exp/static/images/task_images/land.jpg"",""time"":722.2000000476837},{""stimulus"":""run_exp/static/images/task_images/dig.jpg"",""time"":1432.9000000953674}]",[],13,,,,,,,,,,,,,,
harvest,421,1043717,0.0-134.0-1.0,,null,run_exp/static/images/task_images/gems/15.jpg,null,,,,,,8,,,13,,,,,15,0.557281116,0.533333333,,,,,,,
decision,422,1044186,0.0-134.0-2.0,,464.9000001,run_exp/static/images/task_images/land.jpg,65,,,,,,8,,,13,,,,,,,,22150,3,3,FALSE,,,
dig,423,1046745,0.0-135.0-0.0,,,,,,,,,,,"[{""stimulus"":""run_exp/static/images/task_images/dig.jpg"",""time"":0.8000001907348633},{""stimulus"":""run_exp/static/images/task_images/land.jpg"",""time"":849.5},{""stimulus"":""run_exp/static/images/task_images/dig.jpg"",""time"":1725.5}]",[],13,,,,,,,,,,,,,,
harvest,424,1047768,0.0-135.0-1.0,,null,run_exp/static/images/task_images/gems/8.jpg,null,,,,,,4,,,13,,,,,8,0.481192874,0.5,,,,,,,
decision,425,1048189,0.0-135.0-2.0,,417.3999999,run_exp/static/images/task_images/land.jpg,65,,,,,,4,,,13,,,,,,,,26153,3,4,FALSE,,,
dig,426,1050794,0.0-136.0-0.0,,,,,,,,,,,"[{""stimulus"":""run_exp/static/images/task_images/dig.jpg"",""time"":0.5},{""stimulus"":""run_exp/static/images/task_images/land.jpg"",""time"":867},{""stimulus"":""run_exp/static/images/task_images/dig.jpg"",""time"":1731.1000001430511}]",[],13,,,,,,,,,,,,,,
harvest,427,1051809,0.0-136.0-1.0,,null,run_exp/static/images/task_images/gems/4.jpg,null,,,,,,2,,,13,,,,,4,0.451096704,0.5,,,,,,,
decision,428,1052186,0.0-136.0-2.0,,372.1999998,run_exp/static/images/task_images/land.jpg,76,,,,,,2,,,13,,,,,,,,30149,3,5,TRUE,,,
travel,429,1061836,0.0-137.0-0.0,,,,,,,,,,,"[{""stimulus"":""run_exp/static/images/task_images/rocket-01.jpg"",""time"":0.7999999523162842},{""stimulus"":""run_exp/static/images/task_images/rocket-02.jpg"",""time"":1082},{""stimulus"":""run_exp/static/images/task_images/rocket-03.jpg"",""time"":2150.2999999523163},{""stimulus"":""run_exp/static/images/task_images/rocket-04.jpg"",""time"":3230.5},{""stimulus"":""run_exp/static/images/task_images/rocket-05.jpg"",""time"":4291.400000095367},{""stimulus"":""run_exp/static/images/task_images/rocket-06.jpg"",""time"":5351.299999952316},{""stimulus"":""run_exp/static/images/task_images/rocket-07.jpg"",""time"":6422.400000095367},{""stimulus"":""run_exp/static/images/task_images/rocket-08.jpg"",""time"":7502.599999904633},{""stimulus"":""run_exp/static/images/task_images/rocket-09.jpg"",""time"":8560.900000095367}]",[],13,,,,,,,,,,,,,,
alien_welcome,430,1066868,0.0-137.0-1.0,,null,run_exp/static/images/task_images/aliens/old_aliens/planet/alien_planet-47.jpg,null,,,,,,,,,,,,47,"12,17,56,44,50,63,25,3,20,35,52,30,38,47,69,51,58,45,62,57,33,31,4,11,61,34,78,60,6,40",,,,,,,,,,
land,431,1067391,0.0-137.0-2.0,,null,run_exp/static/images/task_images/land.jpg,null,,,,,,96,,,14,,,,,,,,,,,,,,
dig,432,1069416,0.0-137.0-3.0,,,,,,,,,,,"[{""stimulus"":""run_exp/static/images/task_images/dig.jpg"",""time"":0.7999999523162842},{""stimulus"":""run_exp/static/images/task_images/land.jpg"",""time"":680},{""stimulus"":""run_exp/static/images/task_images/dig.jpg"",""time"":1344.6000001430511}]",[],14,,,,,,,,,,,,,,
