trial_type,trial_index,time_elapsed,internal_node_id,interactions,blur_events,focus_events,fullscreenenter_events,fullscreenexit_events,success,rt,stimulus,key_press,prompt,subject_id,participant_id,age,gender,button_pressed,next_reward,animation_sequence,responses,planet,curr_prac_trial,n_prac_rounds,alien,aliens,reward_received,decay_rate_actual,decay_rate_exp,time_in_block,block_num,prt,last_trial_on_planet,button_html,bonus,num_failures
pavlovia,0,12,0.0-0.0,"""event"",""trial"",""time""
""blur"",""0"",""0""
""focus"",""1"",""2795""
""fullscreenenter"",""1"",""5152""
","""event"",""trial"",""time""
""blur"",""0"",""0""
","""event"",""trial"",""time""
""focus"",""1"",""2795""
","""event"",""trial"",""time""
""fullscreenenter"",""1"",""5152""
","
",,,,,,,,,,,,,,,,,,,,,,,,,,,,
fullscreen,1,5985,0.0-1.0,"""event"",""trial"",""time""
""blur"",""0"",""0""
""focus"",""1"",""2795""
""fullscreenenter"",""1"",""5152""
","""event"",""trial"",""time""
""blur"",""0"",""0""
","""event"",""trial"",""time""
""focus"",""1"",""2795""
","""event"",""trial"",""time""
""fullscreenenter"",""1"",""5152""
","
",TRUE,,,,,,,,,,,,,,,,,,,,,,,,,,,
instruc_welcome,2,16805,0.0-2.0,"""event"",""trial"",""time""
""blur"",""0"",""0""
""focus"",""1"",""2795""
""fullscreenenter"",""1"",""5152""
","""event"",""trial"",""time""
""blur"",""0"",""0""
","""event"",""trial"",""time""
""focus"",""1"",""2795""
","""event"",""trial"",""time""
""fullscreenenter"",""1"",""5152""
","
",,null,run_exp/static/audio/clip_1_welcome.m4a,null,"<p>Howdy! In this experiment, you’ll be an explorer traveling through space to collect space treasure.</p><p>Your mission is to collect as much treasure as possible.</p><br><br><p><img src='run_exp/static/images/task_images/opening_img-01.jpg' height='300' width='auto'></p>",8866,4200,23.25,Male,,,,,,,,,,,,,,,,,,,
audio-keyboard-response,3,33521,0.0-3.0,"""event"",""trial"",""time""
""blur"",""0"",""0""
""focus"",""1"",""2795""
""fullscreenenter"",""1"",""5152""
","""event"",""trial"",""time""
""blur"",""0"",""0""
","""event"",""trial"",""time""
""focus"",""1"",""2795""
","""event"",""trial"",""time""
""fullscreenenter"",""1"",""5152""
","
",,null,run_exp/static/audio/clip_2_move.m4a,null,,,,,,,,,,,,,,,,,,,,,,,,
welcome_dec,4,36033,0.0-4.0,"""event"",""trial"",""time""
""blur"",""0"",""0""
""focus"",""1"",""2795""
""fullscreenenter"",""1"",""5152""
","""event"",""trial"",""time""
""blur"",""0"",""0""
","""event"",""trial"",""time""
""focus"",""1"",""2795""
","""event"",""trial"",""time""
""fullscreenenter"",""1"",""5152""
","
",,2497.6,"<p>Howdy! In this experiment, you’ll be an explorer traveling through space to collect space treasure.</p><p>Your mission is to collect as much treasure as possible.</p><br><br><p><img src='run_exp/static/images/task_images/opening_img-01.jpg' height='300' width='auto'></p>",,,,,,,1,,,,,,,,,,,,,,,,,,
html-keyboard-response,5,37951,0.0-5.0,"""event"",""trial"",""time""
""blur"",""0"",""0""
""focus"",""1"",""2795""
""fullscreenenter"",""1"",""5152""
","""event"",""trial"",""time""
""blur"",""0"",""0""
","""event"",""trial"",""time""
""focus"",""1"",""2795""
","""event"",""trial"",""time""
""fullscreenenter"",""1"",""5152""
","
",,1906.3,"<p>Howdy! In this experiment, you’ll be an explorer traveling through space to collect space treasure.</p><p>Your mission is to collect as much treasure as possible.</p><br><br><p><img src='run_exp/static/images/task_images/opening_img-01.jpg' height='300' width='auto'></p><button class=""jspsych-html-btn-unchosen""><img src=""run_exp/static/images/task_images/planet-01.jpg"" height=""50""></button><button class=""jspsych-html-btn-chosen""><img src=""run_exp/static/images/task_images/planet-02.jpg"" height=""50""></button><p><b>[press the space bar to lock in your answer]<b><br></p>",32,,,,,,,,,,,,,,,,,,,,,,,,
instruc_goal,6,48141,0.0-6.0-0.0,"""event"",""trial"",""time""
""blur"",""0"",""0""
""focus"",""1"",""2795""
""fullscreenenter"",""1"",""5152""
","""event"",""trial"",""time""
""blur"",""0"",""0""
","""event"",""trial"",""time""
""focus"",""1"",""2795""
","""event"",""trial"",""time""
""fullscreenenter"",""1"",""5152""
","
",,null,run_exp/static/audio/clip_3_goal.m4a,null,"<p> As a space explorer, you’ll visit different planets to dig for space treasure, these pink gems.</p> <p> The more treasure you dig up, the more bonus money you’ll win! </p><br><br><p><img src='run_exp/static/images/task_images/pink_gem.jpg' height='300' width='auto'></p>",,,,,,,,,,,,,,,,,,,,,,,
instruc_goal,7,50385,0.0-6.0-1.0,"""event"",""trial"",""time""
""blur"",""0"",""0""
""focus"",""1"",""2795""
""fullscreenenter"",""1"",""5152""
","""event"",""trial"",""time""
""blur"",""0"",""0""
","""event"",""trial"",""time""
""focus"",""1"",""2795""
","""event"",""trial"",""time""
""fullscreenenter"",""1"",""5152""
","
",,2233.9,"<p> As a space explorer, you’ll visit different planets to dig for space treasure, these pink gems.</p> <p> The more treasure you dig up, the more bonus money you’ll win! </p><br><br><p><img src='run_exp/static/images/task_images/pink_gem.jpg' height='300' width='auto'></p>",,,,,,,1,,,,,,,,,,,,,,,,,,
html-keyboard-response,8,51363,0.0-6.0-2.0,"""event"",""trial"",""time""
""blur"",""0"",""0""
""focus"",""1"",""2795""
""fullscreenenter"",""1"",""5152""
","""event"",""trial"",""time""
""blur"",""0"",""0""
","""event"",""trial"",""time""
""focus"",""1"",""2795""
","""event"",""trial"",""time""
""fullscreenenter"",""1"",""5152""
","
",,929.7,"<p> As a space explorer, you’ll visit different planets to dig for space treasure, these pink gems.</p> <p> The more treasure you dig up, the more bonus money you’ll win! </p><br><br><p><img src='run_exp/static/images/task_images/pink_gem.jpg' height='300' width='auto'></p><button class=""jspsych-html-btn-unchosen""><img src=""run_exp/static/images/task_images/planet-01.jpg"" height=""50""></button><button class=""jspsych-html-btn-chosen""><img src=""run_exp/static/images/task_images/planet-02.jpg"" height=""50""></button><p><b>[press the space bar to lock in your answer]<b><br></p>",32,,,,,,,,,,,,,,,,,,,,,,,,
instruc_dig,9,67521,0.0-7.0-0.0,"""event"",""trial"",""time""
""blur"",""0"",""0""
""focus"",""1"",""2795""
""fullscreenenter"",""1"",""5152""
","""event"",""trial"",""time""
""blur"",""0"",""0""
","""event"",""trial"",""time""
""focus"",""1"",""2795""
","""event"",""trial"",""time""
""fullscreenenter"",""1"",""5152""
","
",,null,run_exp/static/audio/clip_4_dig.m4a,null,,,,,,,100,,,,,,,,,,,,,,,,,
instruc_dig_try,10,68384,0.0-7.0-1.0,"""event"",""trial"",""time""
""blur"",""0"",""0""
""focus"",""1"",""2795""
""fullscreenenter"",""1"",""5152""
","""event"",""trial"",""time""
""blur"",""0"",""0""
","""event"",""trial"",""time""
""focus"",""1"",""2795""
","""event"",""trial"",""time""
""fullscreenenter"",""1"",""5152""
","
",,854.9,"<p> When you’ve arrived at a new planet, you will dig once. </p> <p>Then, you get to decide if you want to stay on the planet and dig again or travel to a new planet and dig there.</p> <p> To stay and dig, press the letter <strong>‘A’</strong> on your keyboard. Try pressing it now! </p><p><img src='run_exp/static/images/task_images/land.jpg'  height='700' width='auto'></p>",65,"<p> When you’ve arrived at a new planet, you will dig once. </p> <p>Then, you get to decide if you want to stay on the planet and dig again or travel to a new planet and dig there.</p> <p> To stay and dig, press the letter <strong>‘A’</strong> on your keyboard. Try pressing it now! </p><p><img src='run_exp/static/images/task_images/land.jpg'  height='700' width='auto'></p>",,,,,,100,,,,,,,,,,,,,,,,,
dig_prac,11,70479,0.0-7.0-2.0,"""event"",""trial"",""time""
""blur"",""0"",""0""
""focus"",""1"",""2795""
""fullscreenenter"",""1"",""5152""
","""event"",""trial"",""time""
""blur"",""0"",""0""
","""event"",""trial"",""time""
""focus"",""1"",""2795""
","""event"",""trial"",""time""
""fullscreenenter"",""1"",""5152""
","
",,,,,,,,,,,,"[{""stimulus"":""run_exp/static/images/task_images/dig.jpg"",""time"":1.1999999997206032},{""stimulus"":""run_exp/static/images/task_images/land.jpg"",""time"":672.2999999998137},{""stimulus"":""run_exp/static/images/task_images/dig.jpg"",""time"":1338.1999999997206}]",[],,,,,,,,,,,,,,,
instruc_travel,12,106779,0.0-7.0-3.0,"""event"",""trial"",""time""
""blur"",""0"",""0""
""focus"",""1"",""2795""
""fullscreenenter"",""1"",""5152""
","""event"",""trial"",""time""
""blur"",""0"",""0""
","""event"",""trial"",""time""
""focus"",""1"",""2795""
","""event"",""trial"",""time""
""fullscreenenter"",""1"",""5152""
","
",,null,run_exp/static/audio/clip_5_travel.m4a,null,"<p>Every time you dig up gems, there are less gems on the planet, so the more you dig on a planet the fewer gems you’ll get with each dig.</p><p>When gems are running low, you may want to travel to a new planet. </p> <p>  Planets are very far apart in this galaxy, so it will take some time to travel between them. </p> <br><p>There are lots and lots of planets for you to visit, so you won’t be able to return to any planets you’ve seen before. </p><br><p>To leave this planet and travel to a new one, press the letter <strong>‘L’</strong> on your keyboard. Try pressing it now! </p><p><img src='run_exp/static/images/task_images/rocket-01.jpg'  height='600' width='auto'></p>",,,,,,,,,,,,,,,,,,,,,,,
instruc_travel_try,13,107056,0.0-7.0-4.0,"""event"",""trial"",""time""
""blur"",""0"",""0""
""focus"",""1"",""2795""
""fullscreenenter"",""1"",""5152""
","""event"",""trial"",""time""
""blur"",""0"",""0""
","""event"",""trial"",""time""
""focus"",""1"",""2795""
","""event"",""trial"",""time""
""fullscreenenter"",""1"",""5152""
","
",,269.7,"<p>Every time you dig up gems, there are less gems on the planet, so the more you dig on a planet the fewer gems you’ll get with each dig.</p><p>When gems are running low, you may want to travel to a new planet. </p> <p>  Planets are very far apart in this galaxy, so it will take some time to travel between them. </p> <br><p>There are lots and lots of planets for you to visit, so you won’t be able to return to any planets you’ve seen before. </p><br><p>To leave this planet and travel to a new one, press the letter <strong>‘L’</strong> on your keyboard. Try pressing it now! </p><p><img src='run_exp/static/images/task_images/rocket-01.jpg'  height='600' width='auto'></p>",76,"<p>Every time you dig up gems, there are less gems on the planet, so the more you dig on a planet the fewer gems you’ll get with each dig.</p><p>When gems are running low, you may want to travel to a new planet. </p> <p>  Planets are very far apart in this galaxy, so it will take some time to travel between them. </p> <br><p>There are lots and lots of planets for you to visit, so you won’t be able to return to any planets you’ve seen before. </p><br><p>To leave this planet and travel to a new one, press the letter <strong>‘L’</strong> on your keyboard. Try pressing it now! </p><p><img src='run_exp/static/images/task_images/rocket-01.jpg'  height='600' width='auto'></p>",,,,,,,,,,,,,,,,,,,,,,,
travel_prac,14,117066,0.0-7.0-5.0,"""event"",""trial"",""time""
""blur"",""0"",""0""
""focus"",""1"",""2795""
""fullscreenenter"",""1"",""5152""
","""event"",""trial"",""time""
""blur"",""0"",""0""
","""event"",""trial"",""time""
""focus"",""1"",""2795""
","""event"",""trial"",""time""
""fullscreenenter"",""1"",""5152""
","
",,,,,,,,,,,,"[{""stimulus"":""run_exp/static/images/task_images/rocket-01.jpg"",""time"":1},{""stimulus"":""run_exp/static/images/task_images/rocket-02.jpg"",""time"":1129.5},{""stimulus"":""run_exp/static/images/task_images/rocket-03.jpg"",""time"":2239.100000000093},{""stimulus"":""run_exp/static/images/task_images/rocket-04.jpg"",""time"":3344.600000000093},{""stimulus"":""run_exp/static/images/task_images/rocket-05.jpg"",""time"":4464.899999999907},{""stimulus"":""run_exp/static/images/task_images/rocket-06.jpg"",""time"":5566.600000000093},{""stimulus"":""run_exp/static/images/task_images/rocket-07.jpg"",""time"":6685},{""stimulus"":""run_exp/static/images/task_images/rocket-08.jpg"",""time"":7784.700000000186},{""stimulus"":""run_exp/static/images/task_images/rocket-09.jpg"",""time"":8895.399999999907}]",[],0,,,,,,,,,,,,,,
instruc_alien_greet,15,144378,0.0-7.0-6.0,"""event"",""trial"",""time""
""blur"",""0"",""0""
""focus"",""1"",""2795""
""fullscreenenter"",""1"",""5152""
","""event"",""trial"",""time""
""blur"",""0"",""0""
","""event"",""trial"",""time""
""focus"",""1"",""2795""
","""event"",""trial"",""time""
""fullscreenenter"",""1"",""5152""
","
",,null,run_exp/static/audio/clip_6_alien.m4a,null,"<p>When you arrive at a new planet, the alien who owns the treasure mine on that planet will greet you!</p><p>The better an alien takes care of their mine the easier it is to dig for gems. Some aliens take better care of their mine than others. So, you won’t get exactly the same amount of gems on each planet.</p><p>What the alien looks like does not tell you anything about how many gems there are on the planet.</p><br><p><img src=""run_exp/static/images/task_images/aliens/instructions_aliens/planet/alien_planet-1.jpg""  height=""600"" width=""auto""></p>",,,,,,,,,,,,,,,,,,,,,,,
instruc_alien_greet,16,152796,0.0-7.0-7.0,"""event"",""trial"",""time""
""blur"",""0"",""0""
""focus"",""1"",""2795""
""fullscreenenter"",""1"",""5152""
","""event"",""trial"",""time""
""blur"",""0"",""0""
","""event"",""trial"",""time""
""focus"",""1"",""2795""
","""event"",""trial"",""time""
""fullscreenenter"",""1"",""5152""
","
",,8407.4,"<p>When you arrive at a new planet, the alien who owns the treasure mine on that planet will greet you!</p><p>The better an alien takes care of their mine the easier it is to dig for gems. Some aliens take better care of their mine than others. So, you won’t get exactly the same amount of gems on each planet.</p><p>What the alien looks like does not tell you anything about how many gems there are on the planet.</p><br><p><img src=""run_exp/static/images/task_images/aliens/instructions_aliens/planet/alien_planet-1.jpg""  height=""600"" width=""auto""></p>",,,,,,,1,,,,,,,,,,,,,,,,,,
html-keyboard-response,17,156596,0.0-7.0-8.0,"""event"",""trial"",""time""
""blur"",""0"",""0""
""focus"",""1"",""2795""
""fullscreenenter"",""1"",""5152""
","""event"",""trial"",""time""
""blur"",""0"",""0""
","""event"",""trial"",""time""
""focus"",""1"",""2795""
","""event"",""trial"",""time""
""fullscreenenter"",""1"",""5152""
","
",,3791.2,"<p>When you arrive at a new planet, the alien who owns the treasure mine on that planet will greet you!</p><p>The better an alien takes care of their mine the easier it is to dig for gems. Some aliens take better care of their mine than others. So, you won’t get exactly the same amount of gems on each planet.</p><p>What the alien looks like does not tell you anything about how many gems there are on the planet.</p><br><p><img src=""run_exp/static/images/task_images/aliens/instructions_aliens/planet/alien_planet-1.jpg""  height=""600"" width=""auto""></p><button class=""jspsych-html-btn-unchosen""><img src=""run_exp/static/images/task_images/planet-01.jpg"" height=""50""></button><button class=""jspsych-html-btn-chosen""><img src=""run_exp/static/images/task_images/planet-02.jpg"" height=""50""></button><p><b>[press the space bar to lock in your answer]<b><br></p>",32,,,,,,,,,,,,,,,,,,,,,,,,
time_out,18,167769,0.0-8.0-0.0,"""event"",""trial"",""time""
""blur"",""0"",""0""
""focus"",""1"",""2795""
""fullscreenenter"",""1"",""5152""
","""event"",""trial"",""time""
""blur"",""0"",""0""
","""event"",""trial"",""time""
""focus"",""1"",""2795""
","""event"",""trial"",""time""
""fullscreenenter"",""1"",""5152""
","
",,null,run_exp/static/audio/clip_7_timeout.m4a,null,"<p>If you don't make your choice fast enough, you’ll have to wait a few seconds before you can make another one.</p><p>You can’t dig for more gems or travel to new planets. You just have to sit and wait.</p><br><p><img src='run_exp/static/images/task_images/time_out.jpg'  height='600' width='auto'></p>",,,,,,,,,,,,,,,,,,,,,,,
time_out,19,170727,0.0-8.0-1.0,"""event"",""trial"",""time""
""blur"",""0"",""0""
""focus"",""1"",""2795""
""fullscreenenter"",""1"",""5152""
","""event"",""trial"",""time""
""blur"",""0"",""0""
","""event"",""trial"",""time""
""focus"",""1"",""2795""
","""event"",""trial"",""time""
""fullscreenenter"",""1"",""5152""
","
",,2945.7,"<p>If you don't make your choice fast enough, you’ll have to wait a few seconds before you can make another one.</p><p>You can’t dig for more gems or travel to new planets. You just have to sit and wait.</p><br><p><img src='run_exp/static/images/task_images/time_out.jpg'  height='600' width='auto'></p>",,,,,,,1,,,,,,,,,,,,,,,,,,
html-keyboard-response,20,174079,0.0-8.0-2.0,"""event"",""trial"",""time""
""blur"",""0"",""0""
""focus"",""1"",""2795""
""fullscreenenter"",""1"",""5152""
","""event"",""trial"",""time""
""blur"",""0"",""0""
","""event"",""trial"",""time""
""focus"",""1"",""2795""
","""event"",""trial"",""time""
""fullscreenenter"",""1"",""5152""
","
",,3344.7,"<p>If you don't make your choice fast enough, you’ll have to wait a few seconds before you can make another one.</p><p>You can’t dig for more gems or travel to new planets. You just have to sit and wait.</p><br><p><img src='run_exp/static/images/task_images/time_out.jpg'  height='600' width='auto'></p><button class=""jspsych-html-btn-unchosen""><img src=""run_exp/static/images/task_images/planet-01.jpg"" height=""50""></button><button class=""jspsych-html-btn-chosen""><img src=""run_exp/static/images/task_images/planet-02.jpg"" height=""50""></button><p><b>[press the space bar to lock in your answer]<b><br></p>",32,,,,,,,,,,,,,,,,,,,,,,,,
instruc_break,21,189871,0.0-9.0-0.0,"""event"",""trial"",""time""
""blur"",""0"",""0""
""focus"",""1"",""2795""
""fullscreenenter"",""1"",""5152""
","""event"",""trial"",""time""
""blur"",""0"",""0""
","""event"",""trial"",""time""
""focus"",""1"",""2795""
","""event"",""trial"",""time""
""fullscreenenter"",""1"",""5152""
","
",,null,run_exp/static/audio/clip_8_break.m4a,null,"<p> After digging and traveling for a while, you’ll be able to take a break at home base. </p><p>The game will last 20 minutes no matter what.</p><p>You will visit home base every 5 minutes, so, you will visit home base three times during the game.</p><br><p><img src='run_exp/static/images/task_images/home_base.jpg' height='600' width='auto'></p>",,,,,,,,,,,,,,,,,,,,,,,
instruc_break,22,211501,0.0-9.0-1.0,"""event"",""trial"",""time""
""blur"",""0"",""0""
""focus"",""1"",""2795""
""fullscreenenter"",""1"",""5152""
","""event"",""trial"",""time""
""blur"",""0"",""0""
","""event"",""trial"",""time""
""focus"",""1"",""2795""
","""event"",""trial"",""time""
""fullscreenenter"",""1"",""5152""
","
",,21618.2,"<p> After digging and traveling for a while, you’ll be able to take a break at home base. </p><p>The game will last 20 minutes no matter what.</p><p>You will visit home base every 5 minutes, so, you will visit home base three times during the game.</p><br><p><img src='run_exp/static/images/task_images/home_base.jpg' height='600' width='auto'></p>",,,,,,,1,,,,,,,,,,,,,,,,,,
html-keyboard-response,23,212215,0.0-9.0-2.0,"""event"",""trial"",""time""
""blur"",""0"",""0""
""focus"",""1"",""2795""
""fullscreenenter"",""1"",""5152""
","""event"",""trial"",""time""
""blur"",""0"",""0""
","""event"",""trial"",""time""
""focus"",""1"",""2795""
","""event"",""trial"",""time""
""fullscreenenter"",""1"",""5152""
","
",,705.4,"<p> After digging and traveling for a while, you’ll be able to take a break at home base. </p><p>The game will last 20 minutes no matter what.</p><p>You will visit home base every 5 minutes, so, you will visit home base three times during the game.</p><br><p><img src='run_exp/static/images/task_images/home_base.jpg' height='600' width='auto'></p><button class=""jspsych-html-btn-unchosen""><img src=""run_exp/static/images/task_images/planet-01.jpg"" height=""50""></button><button class=""jspsych-html-btn-chosen""><img src=""run_exp/static/images/task_images/planet-02.jpg"" height=""50""></button><p><b>[press the space bar to lock in your answer]<b><br></p>",32,,,,,,,,,,,,,,,,,,,,,,,,
instruc_prac_game,24,222549,0.0-10.0-0.0,"""event"",""trial"",""time""
""blur"",""0"",""0""
""focus"",""1"",""2795""
""fullscreenenter"",""1"",""5152""
","""event"",""trial"",""time""
""blur"",""0"",""0""
","""event"",""trial"",""time""
""focus"",""1"",""2795""
","""event"",""trial"",""time""
""fullscreenenter"",""1"",""5152""
","
",,null,run_exp/static/audio/clip_9_practice.m4a,null,"<p> Are you ready to play a practice game? </p> <p>In this practice game, you'll be digging up barrels of gems. But, in the real game, you'll be digging up the gems themselves. </p>",,,,,,,,,,,,,,,,,,,,,,,
html-button-response,25,225109,0.0-10.0-1.0,"""event"",""trial"",""time""
""blur"",""0"",""0""
""focus"",""1"",""2795""
""fullscreenenter"",""1"",""5152""
","""event"",""trial"",""time""
""blur"",""0"",""0""
","""event"",""trial"",""time""
""focus"",""1"",""2795""
","""event"",""trial"",""time""
""fullscreenenter"",""1"",""5152""
","
",,2553.9,"<p> Are you ready to play a practice game? </p> <p>In this practice game, you'll be digging up barrels of gems. But, in the real game, you'll be digging up the gems themselves. </p>",,,,,,,0,,,,,,,,,,,,,,,,,,
alien_welcome_prac,26,230131,0.0-11.0-0.0,"""event"",""trial"",""time""
""blur"",""0"",""0""
""focus"",""1"",""2795""
""fullscreenenter"",""1"",""5152""
","""event"",""trial"",""time""
""blur"",""0"",""0""
","""event"",""trial"",""time""
""focus"",""1"",""2795""
","""event"",""trial"",""time""
""fullscreenenter"",""1"",""5152""
","
",,null,run_exp/static/images/task_images/aliens/practice_aliens/planet/alien_planet-5.jpg,null,,,,,,,,,,,,,,,,,,,,,,,,
land_prac,27,230657,0.0-11.0-1.0,"""event"",""trial"",""time""
""blur"",""0"",""0""
""focus"",""1"",""2795""
""fullscreenenter"",""1"",""5152""
","""event"",""trial"",""time""
""blur"",""0"",""0""
","""event"",""trial"",""time""
""focus"",""1"",""2795""
","""event"",""trial"",""time""
""fullscreenenter"",""1"",""5152""
","
",,null,run_exp/static/images/task_images/land.jpg,null,,,,,,,98,,,0,,,,,,,,,,,,,,
dig_prac,28,232677,0.0-11.0-2.0,"""event"",""trial"",""time""
""blur"",""0"",""0""
""focus"",""1"",""2795""
""fullscreenenter"",""1"",""5152""
","""event"",""trial"",""time""
""blur"",""0"",""0""
","""event"",""trial"",""time""
""focus"",""1"",""2795""
","""event"",""trial"",""time""
""fullscreenenter"",""1"",""5152""
","
",,,,,,,,,,,,"[{""stimulus"":""run_exp/static/images/task_images/dig.jpg"",""time"":0.8999999999068677},{""stimulus"":""run_exp/static/images/task_images/land.jpg"",""time"":671},{""stimulus"":""run_exp/static/images/task_images/dig.jpg"",""time"":1337.3999999999069}]",[],,,,,,,,,,,,,,,
harvest_prac,29,233681,0.0-11.0-3.0,"""event"",""trial"",""time""
""blur"",""0"",""0""
""focus"",""1"",""2795""
""fullscreenenter"",""1"",""5152""
","""event"",""trial"",""time""
""blur"",""0"",""0""
","""event"",""trial"",""time""
""focus"",""1"",""2795""
","""event"",""trial"",""time""
""fullscreenenter"",""1"",""5152""
","
",,null,run_exp/static/images/task_images/barrel_text.jpg,null,,,,,,,,,,,,,,,,,,,,,,,,
decision_prac,30,236687,0.0-11.0-4.0,"""event"",""trial"",""time""
""blur"",""0"",""0""
""focus"",""1"",""2795""
""fullscreenenter"",""1"",""5152""
","""event"",""trial"",""time""
""blur"",""0"",""0""
","""event"",""trial"",""time""
""focus"",""1"",""2795""
","""event"",""trial"",""time""
""fullscreenenter"",""1"",""5152""
","
",,null,run_exp/static/images/task_images/land.jpg,null,,,,,,,,,,,1,,,,,,,,,,,,,
time_out,31,238706,0.0-12.0-0.0,"""event"",""trial"",""time""
""blur"",""0"",""0""
""focus"",""1"",""2795""
""fullscreenenter"",""1"",""5152""
","""event"",""trial"",""time""
""blur"",""0"",""0""
","""event"",""trial"",""time""
""focus"",""1"",""2795""
","""event"",""trial"",""time""
""fullscreenenter"",""1"",""5152""
","
",,null,run_exp/static/images/task_images/time_out.jpg,null,,,,,,,,,,,,,,,,,,,,,,,,
decision_prac,32,241711,0.0-12.0-1.0,"""event"",""trial"",""time""
""blur"",""0"",""0""
""focus"",""1"",""2795""
""fullscreenenter"",""1"",""5152""
","""event"",""trial"",""time""
""blur"",""0"",""0""
","""event"",""trial"",""time""
""focus"",""1"",""2795""
","""event"",""trial"",""time""
""fullscreenenter"",""1"",""5152""
","
",,null,run_exp/static/images/task_images/land.jpg,null,,,,,,,,,,,2,,,,,,,,,,,,,
time_out,33,243724,0.0-13.0-0.0,"""event"",""trial"",""time""
""blur"",""0"",""0""
""focus"",""1"",""2795""
""fullscreenenter"",""1"",""5152""
","""event"",""trial"",""time""
""blur"",""0"",""0""
","""event"",""trial"",""time""
""focus"",""1"",""2795""
","""event"",""trial"",""time""
""fullscreenenter"",""1"",""5152""
","
",,null,run_exp/static/images/task_images/time_out.jpg,null,,,,,,,,,,,,,,,,,,,,,,,,
decision_prac,34,245504,0.0-13.0-1.0,"""event"",""trial"",""time""
""blur"",""0"",""0""
""focus"",""1"",""2795""
""fullscreenenter"",""1"",""5152""
","""event"",""trial"",""time""
""blur"",""0"",""0""
","""event"",""trial"",""time""
""focus"",""1"",""2795""
","""event"",""trial"",""time""
""fullscreenenter"",""1"",""5152""
","
",,1773.6,run_exp/static/images/task_images/land.jpg,76,,,,,,,,,,,3,,,,,,,,,,,,,
travel,35,253754,0.0-14.0-0.0,"""event"",""trial"",""time""
""blur"",""0"",""0""
""focus"",""1"",""2795""
""fullscreenenter"",""1"",""5152""
","""event"",""trial"",""time""
""blur"",""0"",""0""
","""event"",""trial"",""time""
""focus"",""1"",""2795""
","""event"",""trial"",""time""
""fullscreenenter"",""1"",""5152""
","
",,,,,,,,,,,,"[{""stimulus"":""run_exp/static/images/task_images/rocket-01.jpg"",""time"":0.8999999999068677},{""stimulus"":""run_exp/static/images/task_images/rocket-02.jpg"",""time"":932.1000000000931},{""stimulus"":""run_exp/static/images/task_images/rocket-03.jpg"",""time"":1842.3999999999069},{""stimulus"":""run_exp/static/images/task_images/rocket-04.jpg"",""time"":2745.2000000001863},{""stimulus"":""run_exp/static/images/task_images/rocket-05.jpg"",""time"":3672.899999999907},{""stimulus"":""run_exp/static/images/task_images/rocket-06.jpg"",""time"":4582.5},{""stimulus"":""run_exp/static/images/task_images/rocket-07.jpg"",""time"":5510.5},{""stimulus"":""run_exp/static/images/task_images/rocket-08.jpg"",""time"":6418.399999999907},{""stimulus"":""run_exp/static/images/task_images/rocket-09.jpg"",""time"":7320.300000000279}]",[],0,,,,,,,,,,,,,,
alien_welcome_prac,36,258773,0.0-14.0-1.0,"""event"",""trial"",""time""
""blur"",""0"",""0""
""focus"",""1"",""2795""
""fullscreenenter"",""1"",""5152""
","""event"",""trial"",""time""
""blur"",""0"",""0""
","""event"",""trial"",""time""
""focus"",""1"",""2795""
","""event"",""trial"",""time""
""fullscreenenter"",""1"",""5152""
","
",,null,run_exp/static/images/task_images/aliens/practice_aliens/planet/alien_planet-4.jpg,null,,,,,,,,,,,,,,,,,,,,,,,,
land_prac,37,259293,0.0-14.0-2.0,"""event"",""trial"",""time""
""blur"",""0"",""0""
""focus"",""1"",""2795""
""fullscreenenter"",""1"",""5152""
","""event"",""trial"",""time""
""blur"",""0"",""0""
","""event"",""trial"",""time""
""focus"",""1"",""2795""
","""event"",""trial"",""time""
""fullscreenenter"",""1"",""5152""
","
",,null,run_exp/static/images/task_images/land.jpg,null,,,,,,,99,,,0,,,,,,,,,,,,,,
dig_prac,38,261314,0.0-14.0-3.0,"""event"",""trial"",""time""
""blur"",""0"",""0""
""focus"",""1"",""2795""
""fullscreenenter"",""1"",""5152""
","""event"",""trial"",""time""
""blur"",""0"",""0""
","""event"",""trial"",""time""
""focus"",""1"",""2795""
","""event"",""trial"",""time""
""fullscreenenter"",""1"",""5152""
","
",,,,,,,,,,,,"[{""stimulus"":""run_exp/static/images/task_images/dig.jpg"",""time"":0.7999999998137355},{""stimulus"":""run_exp/static/images/task_images/land.jpg"",""time"":684.7999999998137},{""stimulus"":""run_exp/static/images/task_images/dig.jpg"",""time"":1338.5}]",[],,,,,,,,,,,,,,,
harvest_prac,39,262337,0.0-14.0-4.0,"""event"",""trial"",""time""
""blur"",""0"",""0""
""focus"",""1"",""2795""
""fullscreenenter"",""1"",""5152""
","""event"",""trial"",""time""
""blur"",""0"",""0""
","""event"",""trial"",""time""
""focus"",""1"",""2795""
","""event"",""trial"",""time""
""fullscreenenter"",""1"",""5152""
","
",,null,run_exp/static/images/task_images/barrel_text.jpg,null,,,,,,,,,,,,,,,,,,,,,,,,
decision_prac,40,265344,0.0-14.0-5.0,"""event"",""trial"",""time""
""blur"",""0"",""0""
""focus"",""1"",""2795""
""fullscreenenter"",""1"",""5152""
","""event"",""trial"",""time""
""blur"",""0"",""0""
","""event"",""trial"",""time""
""focus"",""1"",""2795""
","""event"",""trial"",""time""
""fullscreenenter"",""1"",""5152""
","
",,null,run_exp/static/images/task_images/land.jpg,null,,,,,,,,,,,4,,,,,,,,,,,,,
time_out,41,267356,0.0-15.0-0.0,"""event"",""trial"",""time""
""blur"",""0"",""0""
""focus"",""1"",""2795""
""fullscreenenter"",""1"",""5152""
","""event"",""trial"",""time""
""blur"",""0"",""0""
","""event"",""trial"",""time""
""focus"",""1"",""2795""
","""event"",""trial"",""time""
""fullscreenenter"",""1"",""5152""
","
",,null,run_exp/static/images/task_images/time_out.jpg,null,,,,,,,,,,,,,,,,,,,,,,,,
decision_prac,42,268698,0.0-15.0-1.0,"""event"",""trial"",""time""
""blur"",""0"",""0""
""focus"",""1"",""2795""
""fullscreenenter"",""1"",""5152""
","""event"",""trial"",""time""
""blur"",""0"",""0""
","""event"",""trial"",""time""
""focus"",""1"",""2795""
","""event"",""trial"",""time""
""fullscreenenter"",""1"",""5152""
","
",,1337.6,run_exp/static/images/task_images/land.jpg,65,,,,,,,,,,,,1,,,,,,,,,,,,
quiz_instruc,43,271752,0.0-16.0-0.0,"""event"",""trial"",""time""
""blur"",""0"",""0""
""focus"",""1"",""2795""
""fullscreenenter"",""1"",""5152""
","""event"",""trial"",""time""
""blur"",""0"",""0""
","""event"",""trial"",""time""
""focus"",""1"",""2795""
","""event"",""trial"",""time""
""fullscreenenter"",""1"",""5152""
","
",,3035.7,run_exp/static/audio/clip_10_quiz.m4a,,,,,,,0,,,,,,,,,,,,,,,,,,
instruc_repeat,44,314595,0.0-16.0-1.0,"""event"",""trial"",""time""
""blur"",""0"",""0""
""focus"",""1"",""2795""
""fullscreenenter"",""1"",""5152""
","""event"",""trial"",""time""
""blur"",""0"",""0""
","""event"",""trial"",""time""
""focus"",""1"",""2795""
","""event"",""trial"",""time""
""fullscreenenter"",""1"",""5152""
","
",,null,"<p> Are you ready to play a practice game? </p> <p>In this practice game, you'll be digging up barrels of gems. But, in the real game, you'll be digging up the gems themselves. </p>",null,"<p>In this game, your goal is to collect as many gems as you can. That’s how you will win bonus money. </p> <p>The entire game will last 20 minutes no matter how many gems you collect or how many planets you visit. </p><p>To stay on a planet and dig again, press the letter A on your keyboard. To leave for a new planet, press the letter L.</p><p>The more you dig on a planet, the fewer gems you’ll get with each dig which is why you might consider leaving for a new planet. </p><p>When you arrive at a new planet, you’ll be greeted by an alien. What the alien looks like does not tell you anything about how much treasure is on the planet. </p>",,,,,,,,,,,,,,,,,,,,,,,
instruc_repeat_continue,45,318512,0.0-16.0-2.0,"""event"",""trial"",""time""
""blur"",""0"",""0""
""focus"",""1"",""2795""
""fullscreenenter"",""1"",""5152""
""blur"",""46"",""323660""
""focus"",""46"",""328005""
","""event"",""trial"",""time""
""blur"",""0"",""0""
""blur"",""46"",""323660""
","""event"",""trial"",""time""
""focus"",""1"",""2795""
""focus"",""46"",""328005""
","""event"",""trial"",""time""
""fullscreenenter"",""1"",""5152""
","
",,3911.5,"<p> Are you ready to play a practice game? </p> <p>In this practice game, you'll be digging up barrels of gems. But, in the real game, you'll be digging up the gems themselves. </p>",,,,,,,0,,,,,,,,,,,,,,,,,,
quiz_q_1_ask,46,332629,0.0-16.0-3.0,"""event"",""trial"",""time""
""blur"",""0"",""0""
""focus"",""1"",""2795""
""fullscreenenter"",""1"",""5152""
""blur"",""46"",""323660""
""focus"",""46"",""328005""
","""event"",""trial"",""time""
""blur"",""0"",""0""
""blur"",""46"",""323660""
","""event"",""trial"",""time""
""focus"",""1"",""2795""
""focus"",""46"",""328005""
","""event"",""trial"",""time""
""fullscreenenter"",""1"",""5152""
","
",,14109.9,run_exp/static/audio/clip_11_q1_ask.m4a,,,,,,,2,,,,,,,,,,,,,,,,,,
quiz_q_1_fb_correct,47,336575,0.0-17.0-0.0,"""event"",""trial"",""time""
""blur"",""0"",""0""
""focus"",""1"",""2795""
""fullscreenenter"",""1"",""5152""
""blur"",""46"",""323660""
""focus"",""46"",""328005""
","""event"",""trial"",""time""
""blur"",""0"",""0""
""blur"",""46"",""323660""
","""event"",""trial"",""time""
""focus"",""1"",""2795""
""focus"",""46"",""328005""
","""event"",""trial"",""time""
""fullscreenenter"",""1"",""5152""
","
",,null,run_exp/static/audio/clip_12_q1_correct.m4a,null,<p>That’s correct. You win extra money by collecting more gems.</p>,,,,,,,,,,,,,,,,,,,,,,,
quiz_q_2_ask,48,348986,0.0-17.0-1.0,"""event"",""trial"",""time""
""blur"",""0"",""0""
""focus"",""1"",""2795""
""fullscreenenter"",""1"",""5152""
""blur"",""46"",""323660""
""focus"",""46"",""328005""
","""event"",""trial"",""time""
""blur"",""0"",""0""
""blur"",""46"",""323660""
","""event"",""trial"",""time""
""focus"",""1"",""2795""
""focus"",""46"",""328005""
","""event"",""trial"",""time""
""fullscreenenter"",""1"",""5152""
","
",,12405.8,run_exp/static/audio/clip_14_q2_ask.m4a,,,,,,,1,,,,,,,,,,,,,,,,,,
quiz_q_2_fb_correct,49,353054,0.0-18.0-0.0,"""event"",""trial"",""time""
""blur"",""0"",""0""
""focus"",""1"",""2795""
""fullscreenenter"",""1"",""5152""
""blur"",""46"",""323660""
""focus"",""46"",""328005""
","""event"",""trial"",""time""
""blur"",""0"",""0""
""blur"",""46"",""323660""
","""event"",""trial"",""time""
""focus"",""1"",""2795""
""focus"",""46"",""328005""
","""event"",""trial"",""time""
""fullscreenenter"",""1"",""5152""
","
",,null,run_exp/static/audio/clip_15_q2_correct.m4a,null,<p>That’s correct. The experiment is 20 minutes no matter what.</p>,,,,,,,,,,,,,,,,,,,,,,,
quiz_q_3_ask,50,365210,0.0-18.0-1.0,"""event"",""trial"",""time""
""blur"",""0"",""0""
""focus"",""1"",""2795""
""fullscreenenter"",""1"",""5152""
""blur"",""46"",""323660""
""focus"",""46"",""328005""
","""event"",""trial"",""time""
""blur"",""0"",""0""
""blur"",""46"",""323660""
","""event"",""trial"",""time""
""focus"",""1"",""2795""
""focus"",""46"",""328005""
","""event"",""trial"",""time""
""fullscreenenter"",""1"",""5152""
","
",,12150.1,run_exp/static/audio/clip_17_q3_ask.m4a,,,,,,,1,,,,,,,,,,,,,,,,,,
quiz_q_3_fb_correct,51,369275,0.0-19.0-0.0,"""event"",""trial"",""time""
""blur"",""0"",""0""
""focus"",""1"",""2795""
""fullscreenenter"",""1"",""5152""
""blur"",""46"",""323660""
""focus"",""46"",""328005""
","""event"",""trial"",""time""
""blur"",""0"",""0""
""blur"",""46"",""323660""
","""event"",""trial"",""time""
""focus"",""1"",""2795""
""focus"",""46"",""328005""
","""event"",""trial"",""time""
""fullscreenenter"",""1"",""5152""
","
",,null,run_exp/static/audio/clip_18_q3_correct.m4a,null,<p> That’s correct. You press the letter L to travel to a new planet.</p>,,,,,,,,,,,,,,,,,,,,,,,
quiz_q_4_ask,52,378383,0.0-19.0-1.0,"""event"",""trial"",""time""
""blur"",""0"",""0""
""focus"",""1"",""2795""
""fullscreenenter"",""1"",""5152""
""blur"",""46"",""323660""
""focus"",""46"",""328005""
","""event"",""trial"",""time""
""blur"",""0"",""0""
""blur"",""46"",""323660""
","""event"",""trial"",""time""
""focus"",""1"",""2795""
""focus"",""46"",""328005""
","""event"",""trial"",""time""
""fullscreenenter"",""1"",""5152""
","
",,9102.4,run_exp/static/audio/clip_20_q4_ask.m4a,,,,,,,0,,,,,,,,,,,,,,,,,,
quiz_q_4_fb_correct,53,383796,0.0-20.0-0.0,"""event"",""trial"",""time""
""blur"",""0"",""0""
""focus"",""1"",""2795""
""fullscreenenter"",""1"",""5152""
""blur"",""46"",""323660""
""focus"",""46"",""328005""
","""event"",""trial"",""time""
""blur"",""0"",""0""
""blur"",""46"",""323660""
","""event"",""trial"",""time""
""focus"",""1"",""2795""
""focus"",""46"",""328005""
","""event"",""trial"",""time""
""fullscreenenter"",""1"",""5152""
","
",,null,run_exp/static/audio/clip_21_q4_correct.m4a,null,<p> That’s correct. The more you dig on a planet the fewer gems you’ll get with each dig. </p>,,,,,,,,,,,,,,,,,,,,,,,
quiz_q_5_ask,54,389065,0.0-20.0-1.0,"""event"",""trial"",""time""
""blur"",""0"",""0""
""focus"",""1"",""2795""
""fullscreenenter"",""1"",""5152""
""blur"",""46"",""323660""
""focus"",""46"",""328005""
","""event"",""trial"",""time""
""blur"",""0"",""0""
""blur"",""46"",""323660""
","""event"",""trial"",""time""
""focus"",""1"",""2795""
""focus"",""46"",""328005""
","""event"",""trial"",""time""
""fullscreenenter"",""1"",""5152""
","
",,5263.7,run_exp/static/audio/clip_23_q5_ask.m4a,,,,,,,0,,,,,,,,,,,,,,,,,,
quiz_q_5_fb_incorrect,55,394954,0.0-21.0-0.0,"""event"",""trial"",""time""
""blur"",""0"",""0""
""focus"",""1"",""2795""
""fullscreenenter"",""1"",""5152""
""blur"",""46"",""323660""
""focus"",""46"",""328005""
","""event"",""trial"",""time""
""blur"",""0"",""0""
""blur"",""46"",""323660""
","""event"",""trial"",""time""
""focus"",""1"",""2795""
""focus"",""46"",""328005""
","""event"",""trial"",""time""
""fullscreenenter"",""1"",""5152""
","
",,null,run_exp/static/audio/clip_25_q5_incorrect.m4a,null,<p>That’s incorrect. The alien tells you nothing about how much treasure is on the planet.</p>,,,,,,,,,,,,,,,,,,,,,,,
quiz_incorrect,56,400614,0.0-22.0-0.0,"""event"",""trial"",""time""
""blur"",""0"",""0""
""focus"",""1"",""2795""
""fullscreenenter"",""1"",""5152""
""blur"",""46"",""323660""
""focus"",""46"",""328005""
","""event"",""trial"",""time""
""blur"",""0"",""0""
""blur"",""46"",""323660""
","""event"",""trial"",""time""
""focus"",""1"",""2795""
""focus"",""46"",""328005""
","""event"",""trial"",""time""
""fullscreenenter"",""1"",""5152""
","
",,null,run_exp/static/audio/clip_27_incorrect_quiz.m4a,null,,,,,,,,,,,,,,,,,,,,,,,,
quiz_incorrect_continue,57,403463,0.0-22.0-1.0,"""event"",""trial"",""time""
""blur"",""0"",""0""
""focus"",""1"",""2795""
""fullscreenenter"",""1"",""5152""
""blur"",""46"",""323660""
""focus"",""46"",""328005""
","""event"",""trial"",""time""
""blur"",""0"",""0""
""blur"",""46"",""323660""
","""event"",""trial"",""time""
""focus"",""1"",""2795""
""focus"",""46"",""328005""
","""event"",""trial"",""time""
""fullscreenenter"",""1"",""5152""
","
",,2842.4,"<p>Oops, you missed some questions.</p><p>Now that you’ve heard the correct answers. Try the quiz again!</p>",,,,,,,0,,,,,,,,,,,,,,,,,,
quiz_q_1_ask,58,407956,0.0-22.0-2.0,"""event"",""trial"",""time""
""blur"",""0"",""0""
""focus"",""1"",""2795""
""fullscreenenter"",""1"",""5152""
""blur"",""46"",""323660""
""focus"",""46"",""328005""
","""event"",""trial"",""time""
""blur"",""0"",""0""
""blur"",""46"",""323660""
","""event"",""trial"",""time""
""focus"",""1"",""2795""
""focus"",""46"",""328005""
","""event"",""trial"",""time""
""fullscreenenter"",""1"",""5152""
","
",,4482.3,run_exp/static/audio/clip_11_q1_ask.m4a,,,,,,,2,,,,,,,,,,,,,,,,,,
quiz_q_1_fb_correct,59,411894,0.0-23.0-0.0,"""event"",""trial"",""time""
""blur"",""0"",""0""
""focus"",""1"",""2795""
""fullscreenenter"",""1"",""5152""
""blur"",""46"",""323660""
""focus"",""46"",""328005""
","""event"",""trial"",""time""
""blur"",""0"",""0""
""blur"",""46"",""323660""
","""event"",""trial"",""time""
""focus"",""1"",""2795""
""focus"",""46"",""328005""
","""event"",""trial"",""time""
""fullscreenenter"",""1"",""5152""
","
",,null,run_exp/static/audio/clip_12_q1_correct.m4a,null,<p>That’s correct. You win extra money by collecting more gems.</p>,,,,,,,,,,,,,,,,,,,,,,,
quiz_q_2_ask,60,413299,0.0-23.0-1.0,"""event"",""trial"",""time""
""blur"",""0"",""0""
""focus"",""1"",""2795""
""fullscreenenter"",""1"",""5152""
""blur"",""46"",""323660""
""focus"",""46"",""328005""
","""event"",""trial"",""time""
""blur"",""0"",""0""
""blur"",""46"",""323660""
","""event"",""trial"",""time""
""focus"",""1"",""2795""
""focus"",""46"",""328005""
","""event"",""trial"",""time""
""fullscreenenter"",""1"",""5152""
","
",,1398.3,run_exp/static/audio/clip_14_q2_ask.m4a,,,,,,,1,,,,,,,,,,,,,,,,,,
quiz_q_2_fb_correct,61,417395,0.0-24.0-0.0,"""event"",""trial"",""time""
""blur"",""0"",""0""
""focus"",""1"",""2795""
""fullscreenenter"",""1"",""5152""
""blur"",""46"",""323660""
""focus"",""46"",""328005""
","""event"",""trial"",""time""
""blur"",""0"",""0""
""blur"",""46"",""323660""
","""event"",""trial"",""time""
""focus"",""1"",""2795""
""focus"",""46"",""328005""
","""event"",""trial"",""time""
""fullscreenenter"",""1"",""5152""
","
",,null,run_exp/static/audio/clip_15_q2_correct.m4a,null,<p>That’s correct. The experiment is 20 minutes no matter what.</p>,,,,,,,,,,,,,,,,,,,,,,,
quiz_q_3_ask,62,419504,0.0-24.0-1.0,"""event"",""trial"",""time""
""blur"",""0"",""0""
""focus"",""1"",""2795""
""fullscreenenter"",""1"",""5152""
""blur"",""46"",""323660""
""focus"",""46"",""328005""
","""event"",""trial"",""time""
""blur"",""0"",""0""
""blur"",""46"",""323660""
","""event"",""trial"",""time""
""focus"",""1"",""2795""
""focus"",""46"",""328005""
","""event"",""trial"",""time""
""fullscreenenter"",""1"",""5152""
","
",,2101.1,run_exp/static/audio/clip_17_q3_ask.m4a,,,,,,,1,,,,,,,,,,,,,,,,,,
quiz_q_3_fb_correct,63,423554,0.0-25.0-0.0,"""event"",""trial"",""time""
""blur"",""0"",""0""
""focus"",""1"",""2795""
""fullscreenenter"",""1"",""5152""
""blur"",""46"",""323660""
""focus"",""46"",""328005""
","""event"",""trial"",""time""
""blur"",""0"",""0""
""blur"",""46"",""323660""
","""event"",""trial"",""time""
""focus"",""1"",""2795""
""focus"",""46"",""328005""
","""event"",""trial"",""time""
""fullscreenenter"",""1"",""5152""
","
",,null,run_exp/static/audio/clip_18_q3_correct.m4a,null,<p> That’s correct. You press the letter L to travel to a new planet.</p>,,,,,,,,,,,,,,,,,,,,,,,
quiz_q_4_ask,64,430238,0.0-25.0-1.0,"""event"",""trial"",""time""
""blur"",""0"",""0""
""focus"",""1"",""2795""
""fullscreenenter"",""1"",""5152""
""blur"",""46"",""323660""
""focus"",""46"",""328005""
","""event"",""trial"",""time""
""blur"",""0"",""0""
""blur"",""46"",""323660""
","""event"",""trial"",""time""
""focus"",""1"",""2795""
""focus"",""46"",""328005""
","""event"",""trial"",""time""
""fullscreenenter"",""1"",""5152""
","
",,6677,run_exp/static/audio/clip_20_q4_ask.m4a,,,,,,,0,,,,,,,,,,,,,,,,,,
quiz_q_4_fb_correct,65,435634,0.0-26.0-0.0,"""event"",""trial"",""time""
""blur"",""0"",""0""
""focus"",""1"",""2795""
""fullscreenenter"",""1"",""5152""
""blur"",""46"",""323660""
""focus"",""46"",""328005""
","""event"",""trial"",""time""
""blur"",""0"",""0""
""blur"",""46"",""323660""
","""event"",""trial"",""time""
""focus"",""1"",""2795""
""focus"",""46"",""328005""
","""event"",""trial"",""time""
""fullscreenenter"",""1"",""5152""
","
",,null,run_exp/static/audio/clip_21_q4_correct.m4a,null,<p> That’s correct. The more you dig on a planet the fewer gems you’ll get with each dig. </p>,,,,,,,,,,,,,,,,,,,,,,,
quiz_q_5_ask,66,438468,0.0-26.0-1.0,"""event"",""trial"",""time""
""blur"",""0"",""0""
""focus"",""1"",""2795""
""fullscreenenter"",""1"",""5152""
""blur"",""46"",""323660""
""focus"",""46"",""328005""
","""event"",""trial"",""time""
""blur"",""0"",""0""
""blur"",""46"",""323660""
","""event"",""trial"",""time""
""focus"",""1"",""2795""
""focus"",""46"",""328005""
","""event"",""trial"",""time""
""fullscreenenter"",""1"",""5152""
","
",,2826.1,run_exp/static/audio/clip_23_q5_ask.m4a,,,,,,,1,,,,,,,,,,,,,,,,,,
quiz_q_5_fb_correct,67,443574,0.0-27.0-0.0,"""event"",""trial"",""time""
""blur"",""0"",""0""
""focus"",""1"",""2795""
""fullscreenenter"",""1"",""5152""
""blur"",""46"",""323660""
""focus"",""46"",""328005""
","""event"",""trial"",""time""
""blur"",""0"",""0""
""blur"",""46"",""323660""
","""event"",""trial"",""time""
""focus"",""1"",""2795""
""focus"",""46"",""328005""
","""event"",""trial"",""time""
""fullscreenenter"",""1"",""5152""
","
",,null,run_exp/static/audio/clip_24_q5_correct.m4a,null,<p> That’s correct. The alien tells you nothing about how much treasure is on the planet.</p>,,,,,,,,,,,,,,,,,,,,,,,
quiz_correct,68,447114,0.0-28.0-0.0,"""event"",""trial"",""time""
""blur"",""0"",""0""
""focus"",""1"",""2795""
""fullscreenenter"",""1"",""5152""
""blur"",""46"",""323660""
""focus"",""46"",""328005""
","""event"",""trial"",""time""
""blur"",""0"",""0""
""blur"",""46"",""323660""
","""event"",""trial"",""time""
""focus"",""1"",""2795""
""focus"",""46"",""328005""
","""event"",""trial"",""time""
""fullscreenenter"",""1"",""5152""
","
",,null,run_exp/static/audio/clip_26_correct_quiz.m4a,null,,,,,,,,,,,,,,,,,,,,,,,,
quiz_correct_continue,69,448539,0.0-28.0-1.0,"""event"",""trial"",""time""
""blur"",""0"",""0""
""focus"",""1"",""2795""
""fullscreenenter"",""1"",""5152""
""blur"",""46"",""323660""
""focus"",""46"",""328005""
","""event"",""trial"",""time""
""blur"",""0"",""0""
""blur"",""46"",""323660""
","""event"",""trial"",""time""
""focus"",""1"",""2795""
""focus"",""46"",""328005""
","""event"",""trial"",""time""
""fullscreenenter"",""1"",""5152""
","
",,1421.7,<p>Good job! You're now ready to move on to the real game!</p>,,,,,,,0,,,,,,,,,,,,,,,,,,
audio-keyboard-response,70,458775,0.0-28.0-2.0,"""event"",""trial"",""time""
""blur"",""0"",""0""
""focus"",""1"",""2795""
""fullscreenenter"",""1"",""5152""
""blur"",""46"",""323660""
""focus"",""46"",""328005""
","""event"",""trial"",""time""
""blur"",""0"",""0""
""blur"",""46"",""323660""
","""event"",""trial"",""time""
""focus"",""1"",""2795""
""focus"",""46"",""328005""
","""event"",""trial"",""time""
""fullscreenenter"",""1"",""5152""
","
",,null,run_exp/static/audio/clip_28_real_game.m4a,null,,,,,,,,,,,,,,,,,,,,,,,,
instruc_begin_exp_contine,71,462043,0.0-28.0-3.0,"""event"",""trial"",""time""
""blur"",""0"",""0""
""focus"",""1"",""2795""
""fullscreenenter"",""1"",""5152""
""blur"",""46"",""323660""
""focus"",""46"",""328005""
","""event"",""trial"",""time""
""blur"",""0"",""0""
""blur"",""46"",""323660""
","""event"",""trial"",""time""
""focus"",""1"",""2795""
""focus"",""46"",""328005""
","""event"",""trial"",""time""
""fullscreenenter"",""1"",""5152""
","
",,3260,"<p>Now that you know how  to dig for space treasure and travel to new planets,you can start exploring! </p><p>Do you want to go over the instructions again or get started with the real game?</p>",,,,,,,1,,,,,,1,,,,,,,,,,,,
alien_welcome,72,467083,0.0-29.0-0.0,"""event"",""trial"",""time""
""blur"",""0"",""0""
""focus"",""1"",""2795""
""fullscreenenter"",""1"",""5152""
""blur"",""46"",""323660""
""focus"",""46"",""328005""
","""event"",""trial"",""time""
""blur"",""0"",""0""
""blur"",""46"",""323660""
","""event"",""trial"",""time""
""focus"",""1"",""2795""
""focus"",""46"",""328005""
","""event"",""trial"",""time""
""fullscreenenter"",""1"",""5152""
","
",,null,run_exp/static/images/task_images/aliens/old_aliens/planet/alien_planet-68.jpg,null,,,,,,,,,,,,,68,"68,37,33,77,29,15,8,72,36,5,10,73,32,76",,,,,,,,,,
land,73,467603,0.0-29.0-1.0,"""event"",""trial"",""time""
""blur"",""0"",""0""
""focus"",""1"",""2795""
""fullscreenenter"",""1"",""5152""
""blur"",""46"",""323660""
""focus"",""46"",""328005""
","""event"",""trial"",""time""
""blur"",""0"",""0""
""blur"",""46"",""323660""
","""event"",""trial"",""time""
""focus"",""1"",""2795""
""focus"",""46"",""328005""
","""event"",""trial"",""time""
""fullscreenenter"",""1"",""5152""
","
",,null,run_exp/static/images/task_images/land.jpg,null,,,,,,,105,,,1,,,,,,,,,,,,,,
dig,74,469632,0.0-29.0-2.0,"""event"",""trial"",""time""
""blur"",""0"",""0""
""focus"",""1"",""2795""
""fullscreenenter"",""1"",""5152""
""blur"",""46"",""323660""
""focus"",""46"",""328005""
","""event"",""trial"",""time""
""blur"",""0"",""0""
""blur"",""46"",""323660""
","""event"",""trial"",""time""
""focus"",""1"",""2795""
""focus"",""46"",""328005""
","""event"",""trial"",""time""
""fullscreenenter"",""1"",""5152""
","
",,,,,,,,,,,,"[{""stimulus"":""run_exp/static/images/task_images/dig.jpg"",""time"":1},{""stimulus"":""run_exp/static/images/task_images/land.jpg"",""time"":682.3999999999069},{""stimulus"":""run_exp/static/images/task_images/dig.jpg"",""time"":1337.5}]",[],1,,,,,,,,,,,,,,
harvest,75,470643,0.0-29.0-3.0,"""event"",""trial"",""time""
""blur"",""0"",""0""
""focus"",""1"",""2795""
""fullscreenenter"",""1"",""5152""
""blur"",""46"",""323660""
""focus"",""46"",""328005""
","""event"",""trial"",""time""
""blur"",""0"",""0""
""blur"",""46"",""323660""
","""event"",""trial"",""time""
""focus"",""1"",""2795""
""focus"",""46"",""328005""
","""event"",""trial"",""time""
""fullscreenenter"",""1"",""5152""
","
",,null,run_exp/static/images/task_images/gems/105.jpg,null,,,,,,,19,,,1,,,,,105,0.18392049,0.180952381,,,,,,,
decision,76,472499,0.0-29.0-4.0,"""event"",""trial"",""time""
""blur"",""0"",""0""
""focus"",""1"",""2795""
""fullscreenenter"",""1"",""5152""
""blur"",""46"",""323660""
""focus"",""46"",""328005""
","""event"",""trial"",""time""
""blur"",""0"",""0""
""blur"",""46"",""323660""
","""event"",""trial"",""time""
""focus"",""1"",""2795""
""focus"",""46"",""328005""
","""event"",""trial"",""time""
""fullscreenenter"",""1"",""5152""
","
",,1851.4,run_exp/static/images/task_images/land.jpg,65,,,,,,,19,,,1,,,,,,,,10448,1,0,FALSE,,,
dig,77,473678,0.0-30.0-0.0,"""event"",""trial"",""time""
""blur"",""0"",""0""
""focus"",""1"",""2795""
""fullscreenenter"",""1"",""5152""
""blur"",""46"",""323660""
""focus"",""46"",""328005""
","""event"",""trial"",""time""
""blur"",""0"",""0""
""blur"",""46"",""323660""
","""event"",""trial"",""time""
""focus"",""1"",""2795""
""focus"",""46"",""328005""
","""event"",""trial"",""time""
""fullscreenenter"",""1"",""5152""
","
",,,,,,,,,,,,"[{""stimulus"":""run_exp/static/images/task_images/dig.jpg"",""time"":1.5},{""stimulus"":""run_exp/static/images/task_images/land.jpg"",""time"":387.20000000018626},{""stimulus"":""run_exp/static/images/task_images/dig.jpg"",""time"":779}]",[],1,,,,,,,,,,,,,,
harvest,78,474681,0.0-30.0-1.0,"""event"",""trial"",""time""
""blur"",""0"",""0""
""focus"",""1"",""2795""
""fullscreenenter"",""1"",""5152""
""blur"",""46"",""323660""
""focus"",""46"",""328005""
","""event"",""trial"",""time""
""blur"",""0"",""0""
""blur"",""46"",""323660""
","""event"",""trial"",""time""
""focus"",""1"",""2795""
""focus"",""46"",""328005""
","""event"",""trial"",""time""
""fullscreenenter"",""1"",""5152""
","
",,null,run_exp/static/images/task_images/gems/19.jpg,null,,,,,,,5,,,1,,,,,19,0.271278483,0.263157895,,,,,,,
decision,79,475992,0.0-30.0-2.0,"""event"",""trial"",""time""
""blur"",""0"",""0""
""focus"",""1"",""2795""
""fullscreenenter"",""1"",""5152""
""blur"",""46"",""323660""
""focus"",""46"",""328005""
","""event"",""trial"",""time""
""blur"",""0"",""0""
""blur"",""46"",""323660""
","""event"",""trial"",""time""
""focus"",""1"",""2795""
""focus"",""46"",""328005""
","""event"",""trial"",""time""
""fullscreenenter"",""1"",""5152""
","
",,1307.3,run_exp/static/images/task_images/land.jpg,65,,,,,,,5,,,1,,,,,,,,13939,1,1,FALSE,,,
dig,80,477717,0.0-31.0-0.0,"""event"",""trial"",""time""
""blur"",""0"",""0""
""focus"",""1"",""2795""
""fullscreenenter"",""1"",""5152""
""blur"",""46"",""323660""
""focus"",""46"",""328005""
","""event"",""trial"",""time""
""blur"",""0"",""0""
""blur"",""46"",""323660""
","""event"",""trial"",""time""
""focus"",""1"",""2795""
""focus"",""46"",""328005""
","""event"",""trial"",""time""
""fullscreenenter"",""1"",""5152""
","
",,,,,,,,,,,,"[{""stimulus"":""run_exp/static/images/task_images/dig.jpg"",""time"":0.8999999999068677},{""stimulus"":""run_exp/static/images/task_images/land.jpg"",""time"":569.2000000001863},{""stimulus"":""run_exp/static/images/task_images/dig.jpg"",""time"":1140.3000000002794}]",[],1,,,,,,,,,,,,,,
harvest,81,478721,0.0-31.0-1.0,"""event"",""trial"",""time""
""blur"",""0"",""0""
""focus"",""1"",""2795""
""fullscreenenter"",""1"",""5152""
""blur"",""46"",""323660""
""focus"",""46"",""328005""
","""event"",""trial"",""time""
""blur"",""0"",""0""
""blur"",""46"",""323660""
","""event"",""trial"",""time""
""focus"",""1"",""2795""
""focus"",""46"",""328005""
","""event"",""trial"",""time""
""fullscreenenter"",""1"",""5152""
","
",,null,run_exp/static/images/task_images/gems/5.jpg,null,,,,,,,1,,,1,,,,,5,0.140998867,0.2,,,,,,,
decision,82,479590,0.0-31.0-2.0,"""event"",""trial"",""time""
""blur"",""0"",""0""
""focus"",""1"",""2795""
""fullscreenenter"",""1"",""5152""
""blur"",""46"",""323660""
""focus"",""46"",""328005""
","""event"",""trial"",""time""
""blur"",""0"",""0""
""blur"",""46"",""323660""
","""event"",""trial"",""time""
""focus"",""1"",""2795""
""focus"",""46"",""328005""
","""event"",""trial"",""time""
""fullscreenenter"",""1"",""5152""
","
",,866.1,run_exp/static/images/task_images/land.jpg,65,,,,,,,1,,,1,,,,,,,,17537,1,2,FALSE,,,
dig,83,481788,0.0-32.0-0.0,"""event"",""trial"",""time""
""blur"",""0"",""0""
""focus"",""1"",""2795""
""fullscreenenter"",""1"",""5152""
""blur"",""46"",""323660""
""focus"",""46"",""328005""
","""event"",""trial"",""time""
""blur"",""0"",""0""
""blur"",""46"",""323660""
","""event"",""trial"",""time""
""focus"",""1"",""2795""
""focus"",""46"",""328005""
","""event"",""trial"",""time""
""fullscreenenter"",""1"",""5152""
","
",,,,,,,,,,,,"[{""stimulus"":""run_exp/static/images/task_images/dig.jpg"",""time"":0.7000000001862645},{""stimulus"":""run_exp/static/images/task_images/land.jpg"",""time"":715.3000000002794},{""stimulus"":""run_exp/static/images/task_images/dig.jpg"",""time"":1425.7000000001863}]",[],1,,,,,,,,,,,,,,
harvest,84,482791,0.0-32.0-1.0,"""event"",""trial"",""time""
""blur"",""0"",""0""
""focus"",""1"",""2795""
""fullscreenenter"",""1"",""5152""
""blur"",""46"",""323660""
""focus"",""46"",""328005""
","""event"",""trial"",""time""
""blur"",""0"",""0""
""blur"",""46"",""323660""
","""event"",""trial"",""time""
""focus"",""1"",""2795""
""focus"",""46"",""328005""
","""event"",""trial"",""time""
""fullscreenenter"",""1"",""5152""
","
",,null,run_exp/static/images/task_images/gems/1.jpg,null,,,,,,,0,,,1,,,,,1,0.090602752,0,,,,,,,
decision,85,485794,0.0-32.0-2.0,"""event"",""trial"",""time""
""blur"",""0"",""0""
""focus"",""1"",""2795""
""fullscreenenter"",""1"",""5152""
""blur"",""46"",""323660""
""focus"",""46"",""328005""
","""event"",""trial"",""time""
""blur"",""0"",""0""
""blur"",""46"",""323660""
","""event"",""trial"",""time""
""focus"",""1"",""2795""
""focus"",""46"",""328005""
","""event"",""trial"",""time""
""fullscreenenter"",""1"",""5152""
","
",,null,run_exp/static/images/task_images/land.jpg,null,,,,,,,0,,,1,,,,,,,,23741,1,3,FALSE,,,
time_out,86,487803,0.0-33.0-0.0,"""event"",""trial"",""time""
""blur"",""0"",""0""
""focus"",""1"",""2795""
""fullscreenenter"",""1"",""5152""
""blur"",""46"",""323660""
""focus"",""46"",""328005""
","""event"",""trial"",""time""
""blur"",""0"",""0""
""blur"",""46"",""323660""
","""event"",""trial"",""time""
""focus"",""1"",""2795""
""focus"",""46"",""328005""
","""event"",""trial"",""time""
""fullscreenenter"",""1"",""5152""
","
",,null,run_exp/static/images/task_images/time_out.jpg,null,,,,,,,0,,,,,,,,,,,,,,,,,
decision,87,490809,0.0-33.0-1.0,"""event"",""trial"",""time""
""blur"",""0"",""0""
""focus"",""1"",""2795""
""fullscreenenter"",""1"",""5152""
""blur"",""46"",""323660""
""focus"",""46"",""328005""
","""event"",""trial"",""time""
""blur"",""0"",""0""
""blur"",""46"",""323660""
","""event"",""trial"",""time""
""focus"",""1"",""2795""
""focus"",""46"",""328005""
","""event"",""trial"",""time""
""fullscreenenter"",""1"",""5152""
","
",,null,run_exp/static/images/task_images/land.jpg,null,,,,,,,0,,,1,,,,,,,,28756,1,3,FALSE,,,
time_out,88,492826,0.0-34.0-0.0,"""event"",""trial"",""time""
""blur"",""0"",""0""
""focus"",""1"",""2795""
""fullscreenenter"",""1"",""5152""
""blur"",""46"",""323660""
""focus"",""46"",""328005""
","""event"",""trial"",""time""
""blur"",""0"",""0""
""blur"",""46"",""323660""
","""event"",""trial"",""time""
""focus"",""1"",""2795""
""focus"",""46"",""328005""
","""event"",""trial"",""time""
""fullscreenenter"",""1"",""5152""
","
",,null,run_exp/static/images/task_images/time_out.jpg,null,,,,,,,0,,,,,,,,,,,,,,,,,
decision,89,494538,0.0-34.0-1.0,"""event"",""trial"",""time""
""blur"",""0"",""0""
""focus"",""1"",""2795""
""fullscreenenter"",""1"",""5152""
""blur"",""46"",""323660""
""focus"",""46"",""328005""
","""event"",""trial"",""time""
""blur"",""0"",""0""
""blur"",""46"",""323660""
","""event"",""trial"",""time""
""focus"",""1"",""2795""
""focus"",""46"",""328005""
","""event"",""trial"",""time""
""fullscreenenter"",""1"",""5152""
","
",,1708.6,run_exp/static/images/task_images/land.jpg,76,,,,,,,0,,,1,,,,,,,,32486,1,3,TRUE,,,
travel,90,502856,0.0-35.0-0.0,"""event"",""trial"",""time""
""blur"",""0"",""0""
""focus"",""1"",""2795""
""fullscreenenter"",""1"",""5152""
""blur"",""46"",""323660""
""focus"",""46"",""328005""
","""event"",""trial"",""time""
""blur"",""0"",""0""
""blur"",""46"",""323660""
","""event"",""trial"",""time""
""focus"",""1"",""2795""
""focus"",""46"",""328005""
","""event"",""trial"",""time""
""fullscreenenter"",""1"",""5152""
","
",,,,,,,,,,,,"[{""stimulus"":""run_exp/static/images/task_images/rocket-01.jpg"",""time"":0.5},{""stimulus"":""run_exp/static/images/task_images/rocket-02.jpg"",""time"":923.5},{""stimulus"":""run_exp/static/images/task_images/rocket-03.jpg"",""time"":1844.7000000001863},{""stimulus"":""run_exp/static/images/task_images/rocket-04.jpg"",""time"":2765},{""stimulus"":""run_exp/static/images/task_images/rocket-05.jpg"",""time"":3687.100000000093},{""stimulus"":""run_exp/static/images/task_images/rocket-06.jpg"",""time"":4608.4000000003725},{""stimulus"":""run_exp/static/images/task_images/rocket-07.jpg"",""time"":5548.5},{""stimulus"":""run_exp/static/images/task_images/rocket-08.jpg"",""time"":6460.200000000186},{""stimulus"":""run_exp/static/images/task_images/rocket-09.jpg"",""time"":7384.200000000186}]",[],1,,,,,,,,,,,,,,
alien_welcome,91,507870,0.0-35.0-1.0,"""event"",""trial"",""time""
""blur"",""0"",""0""
""focus"",""1"",""2795""
""fullscreenenter"",""1"",""5152""
""blur"",""46"",""323660""
""focus"",""46"",""328005""
","""event"",""trial"",""time""
""blur"",""0"",""0""
""blur"",""46"",""323660""
","""event"",""trial"",""time""
""focus"",""1"",""2795""
""focus"",""46"",""328005""
","""event"",""trial"",""time""
""fullscreenenter"",""1"",""5152""
","
",,null,run_exp/static/images/task_images/aliens/old_aliens/planet/alien_planet-37.jpg,null,,,,,,,,,,,,,37,"68,37,33,77,29,15,8,72,36,5,10,73,32,76",,,,,,,,,,
land,92,508375,0.0-35.0-2.0,"""event"",""trial"",""time""
""blur"",""0"",""0""
""focus"",""1"",""2795""
""fullscreenenter"",""1"",""5152""
""blur"",""46"",""323660""
""focus"",""46"",""328005""
","""event"",""trial"",""time""
""blur"",""0"",""0""
""blur"",""46"",""323660""
","""event"",""trial"",""time""
""focus"",""1"",""2795""
""focus"",""46"",""328005""
","""event"",""trial"",""time""
""fullscreenenter"",""1"",""5152""
","
",,null,run_exp/static/images/task_images/land.jpg,null,,,,,,,95,,,2,,,,,,,,,,,,,,
dig,93,510390,0.0-35.0-3.0,"""event"",""trial"",""time""
""blur"",""0"",""0""
""focus"",""1"",""2795""
""fullscreenenter"",""1"",""5152""
""blur"",""46"",""323660""
""focus"",""46"",""328005""
","""event"",""trial"",""time""
""blur"",""0"",""0""
""blur"",""46"",""323660""
","""event"",""trial"",""time""
""focus"",""1"",""2795""
""focus"",""46"",""328005""
","""event"",""trial"",""time""
""fullscreenenter"",""1"",""5152""
","
",,,,,,,,,,,,"[{""stimulus"":""run_exp/static/images/task_images/dig.jpg"",""time"":0.599999999627471},{""stimulus"":""run_exp/static/images/task_images/land.jpg"",""time"":689.5},{""stimulus"":""run_exp/static/images/task_images/dig.jpg"",""time"":1338.5}]",[],2,,,,,,,,,,,,,,
harvest,94,511395,0.0-35.0-4.0,"""event"",""trial"",""time""
""blur"",""0"",""0""
""focus"",""1"",""2795""
""fullscreenenter"",""1"",""5152""
""blur"",""46"",""323660""
""focus"",""46"",""328005""
","""event"",""trial"",""time""
""blur"",""0"",""0""
""blur"",""46"",""323660""
","""event"",""trial"",""time""
""focus"",""1"",""2795""
""focus"",""46"",""328005""
","""event"",""trial"",""time""
""fullscreenenter"",""1"",""5152""
","
",,null,run_exp/static/images/task_images/gems/95.jpg,null,,,,,,,18,,,2,,,,,95,0.184819129,0.189473684,,,,,,,
decision,95,511711,0.0-35.0-5.0,"""event"",""trial"",""time""
""blur"",""0"",""0""
""focus"",""1"",""2795""
""fullscreenenter"",""1"",""5152""
""blur"",""46"",""323660""
""focus"",""46"",""328005""
","""event"",""trial"",""time""
""blur"",""0"",""0""
""blur"",""46"",""323660""
","""event"",""trial"",""time""
""focus"",""1"",""2795""
""focus"",""46"",""328005""
","""event"",""trial"",""time""
""fullscreenenter"",""1"",""5152""
","
",,313.5,run_exp/static/images/task_images/land.jpg,65,,,,,,,18,,,2,,,,,,,,49659,1,0,FALSE,,,
dig,96,514410,0.0-36.0-0.0,"""event"",""trial"",""time""
""blur"",""0"",""0""
""focus"",""1"",""2795""
""fullscreenenter"",""1"",""5152""
""blur"",""46"",""323660""
""focus"",""46"",""328005""
","""event"",""trial"",""time""
""blur"",""0"",""0""
""blur"",""46"",""323660""
","""event"",""trial"",""time""
""focus"",""1"",""2795""
""focus"",""46"",""328005""
","""event"",""trial"",""time""
""fullscreenenter"",""1"",""5152""
","
",,,,,,,,,,,,"[{""stimulus"":""run_exp/static/images/task_images/dig.jpg"",""time"":0.5},{""stimulus"":""run_exp/static/images/task_images/land.jpg"",""time"":897.7999999998137},{""stimulus"":""run_exp/static/images/task_images/dig.jpg"",""time"":1807.1999999997206}]",[],2,,,,,,,,,,,,,,
harvest,97,515414,0.0-36.0-1.0,"""event"",""trial"",""time""
""blur"",""0"",""0""
""focus"",""1"",""2795""
""fullscreenenter"",""1"",""5152""
""blur"",""46"",""323660""
""focus"",""46"",""328005""
","""event"",""trial"",""time""
""blur"",""0"",""0""
""blur"",""46"",""323660""
","""event"",""trial"",""time""
""focus"",""1"",""2795""
""focus"",""46"",""328005""
","""event"",""trial"",""time""
""fullscreenenter"",""1"",""5152""
","
",,null,run_exp/static/images/task_images/gems/18.jpg,null,,,,,,,2,,,2,,,,,18,0.132384011,0.111111111,,,,,,,
decision,98,517908,0.0-36.0-2.0,"""event"",""trial"",""time""
""blur"",""0"",""0""
""focus"",""1"",""2795""
""fullscreenenter"",""1"",""5152""
""blur"",""46"",""323660""
""focus"",""46"",""328005""
","""event"",""trial"",""time""
""blur"",""0"",""0""
""blur"",""46"",""323660""
","""event"",""trial"",""time""
""focus"",""1"",""2795""
""focus"",""46"",""328005""
","""event"",""trial"",""time""
""fullscreenenter"",""1"",""5152""
","
",,2490.8,run_exp/static/images/task_images/land.jpg,76,,,,,,,2,,,2,,,,,,,,55855,1,1,TRUE,,,
travel,99,525430,0.0-37.0-0.0,"""event"",""trial"",""time""
""blur"",""0"",""0""
""focus"",""1"",""2795""
""fullscreenenter"",""1"",""5152""
""blur"",""46"",""323660""
""focus"",""46"",""328005""
","""event"",""trial"",""time""
""blur"",""0"",""0""
""blur"",""46"",""323660""
","""event"",""trial"",""time""
""focus"",""1"",""2795""
""focus"",""46"",""328005""
","""event"",""trial"",""time""
""fullscreenenter"",""1"",""5152""
","
",,,,,,,,,,,,"[{""stimulus"":""run_exp/static/images/task_images/rocket-01.jpg"",""time"":0.6000000000931323},{""stimulus"":""run_exp/static/images/task_images/rocket-02.jpg"",""time"":855.4000000003725},{""stimulus"":""run_exp/static/images/task_images/rocket-03.jpg"",""time"":1674.7000000001863},{""stimulus"":""run_exp/static/images/task_images/rocket-04.jpg"",""time"":2514.8000000002794},{""stimulus"":""run_exp/static/images/task_images/rocket-05.jpg"",""time"":3346},{""stimulus"":""run_exp/static/images/task_images/rocket-06.jpg"",""time"":4175.9000000003725},{""stimulus"":""run_exp/static/images/task_images/rocket-07.jpg"",""time"":5021.300000000279},{""stimulus"":""run_exp/static/images/task_images/rocket-08.jpg"",""time"":5851.800000000279},{""stimulus"":""run_exp/static/images/task_images/rocket-09.jpg"",""time"":6682.4000000003725}]",[],2,,,,,,,,,,,,,,
alien_welcome,100,530450,0.0-37.0-1.0,"""event"",""trial"",""time""
""blur"",""0"",""0""
""focus"",""1"",""2795""
""fullscreenenter"",""1"",""5152""
""blur"",""46"",""323660""
""focus"",""46"",""328005""
","""event"",""trial"",""time""
""blur"",""0"",""0""
""blur"",""46"",""323660""
","""event"",""trial"",""time""
""focus"",""1"",""2795""
""focus"",""46"",""328005""
","""event"",""trial"",""time""
""fullscreenenter"",""1"",""5152""
","
",,null,run_exp/static/images/task_images/aliens/old_aliens/planet/alien_planet-33.jpg,null,,,,,,,,,,,,,33,"68,37,33,77,29,15,8,72,36,5,10,73,32,76",,,,,,,,,,
land,101,530956,0.0-37.0-2.0,"""event"",""trial"",""time""
""blur"",""0"",""0""
""focus"",""1"",""2795""
""fullscreenenter"",""1"",""5152""
""blur"",""46"",""323660""
""focus"",""46"",""328005""
","""event"",""trial"",""time""
""blur"",""0"",""0""
""blur"",""46"",""323660""
","""event"",""trial"",""time""
""focus"",""1"",""2795""
""focus"",""46"",""328005""
","""event"",""trial"",""time""
""fullscreenenter"",""1"",""5152""
","
",,null,run_exp/static/images/task_images/land.jpg,null,,,,,,,94,,,3,,,,,,,,,,,,,,
dig,102,532981,0.0-37.0-3.0,"""event"",""trial"",""time""
""blur"",""0"",""0""
""focus"",""1"",""2795""
""fullscreenenter"",""1"",""5152""
""blur"",""46"",""323660""
""focus"",""46"",""328005""
","""event"",""trial"",""time""
""blur"",""0"",""0""
""blur"",""46"",""323660""
","""event"",""trial"",""time""
""focus"",""1"",""2795""
""focus"",""46"",""328005""
","""event"",""trial"",""time""
""fullscreenenter"",""1"",""5152""
","
",,,,,,,,,,,,"[{""stimulus"":""run_exp/static/images/task_images/dig.jpg"",""time"":1},{""stimulus"":""run_exp/static/images/task_images/land.jpg"",""time"":675},{""stimulus"":""run_exp/static/images/task_images/dig.jpg"",""time"":1338.8999999999069}]",[],3,,,,,,,,,,,,,,
harvest,103,533984,0.0-37.0-4.0,"""event"",""trial"",""time""
""blur"",""0"",""0""
""focus"",""1"",""2795""
""fullscreenenter"",""1"",""5152""
""blur"",""46"",""323660""
""focus"",""46"",""328005""
","""event"",""trial"",""time""
""blur"",""0"",""0""
""blur"",""46"",""323660""
","""event"",""trial"",""time""
""focus"",""1"",""2795""
""focus"",""46"",""328005""
","""event"",""trial"",""time""
""fullscreenenter"",""1"",""5152""
","
",,null,run_exp/static/images/task_images/gems/94.jpg,null,,,,,,,46,,,3,,,,,94,0.485786975,0.489361702,,,,,,,
decision,104,534965,0.0-37.0-5.0,"""event"",""trial"",""time""
""blur"",""0"",""0""
""focus"",""1"",""2795""
""fullscreenenter"",""1"",""5152""
""blur"",""46"",""323660""
""focus"",""46"",""328005""
","""event"",""trial"",""time""
""blur"",""0"",""0""
""blur"",""46"",""323660""
","""event"",""trial"",""time""
""focus"",""1"",""2795""
""focus"",""46"",""328005""
","""event"",""trial"",""time""
""fullscreenenter"",""1"",""5152""
","
",,977.1,run_exp/static/images/task_images/land.jpg,65,,,,,,,46,,,3,,,,,,,,72912,1,0,FALSE,,,
dig,105,537032,0.0-38.0-0.0,"""event"",""trial"",""time""
""blur"",""0"",""0""
""focus"",""1"",""2795""
""fullscreenenter"",""1"",""5152""
""blur"",""46"",""323660""
""focus"",""46"",""328005""
","""event"",""trial"",""time""
""blur"",""0"",""0""
""blur"",""46"",""323660""
","""event"",""trial"",""time""
""focus"",""1"",""2795""
""focus"",""46"",""328005""
","""event"",""trial"",""time""
""fullscreenenter"",""1"",""5152""
","
",,,,,,,,,,,,"[{""stimulus"":""run_exp/static/images/task_images/dig.jpg"",""time"":1.099999999627471},{""stimulus"":""run_exp/static/images/task_images/land.jpg"",""time"":695.5},{""stimulus"":""run_exp/static/images/task_images/dig.jpg"",""time"":1353.2999999998137}]",[],3,,,,,,,,,,,,,,
harvest,106,538037,0.0-38.0-1.0,"""event"",""trial"",""time""
""blur"",""0"",""0""
""focus"",""1"",""2795""
""fullscreenenter"",""1"",""5152""
""blur"",""46"",""323660""
""focus"",""46"",""328005""
","""event"",""trial"",""time""
""blur"",""0"",""0""
""blur"",""46"",""323660""
","""event"",""trial"",""time""
""focus"",""1"",""2795""
""focus"",""46"",""328005""
","""event"",""trial"",""time""
""fullscreenenter"",""1"",""5152""
","
",,null,run_exp/static/images/task_images/gems/46.jpg,null,,,,,,,25,,,3,,,,,46,0.536649424,0.543478261,,,,,,,
decision,107,538042,0.0-38.0-2.0,"""event"",""trial"",""time""
""blur"",""0"",""0""
""focus"",""1"",""2795""
""fullscreenenter"",""1"",""5152""
""blur"",""46"",""323660""
""focus"",""46"",""328005""
","""event"",""trial"",""time""
""blur"",""0"",""0""
""blur"",""46"",""323660""
","""event"",""trial"",""time""
""focus"",""1"",""2795""
""focus"",""46"",""328005""
","""event"",""trial"",""time""
""fullscreenenter"",""1"",""5152""
","
",,0.5,run_exp/static/images/task_images/land.jpg,65,,,,,,,25,,,3,,,,,,,,75989,1,1,FALSE,,,
dig,108,541080,0.0-39.0-0.0,"""event"",""trial"",""time""
""blur"",""0"",""0""
""focus"",""1"",""2795""
""fullscreenenter"",""1"",""5152""
""blur"",""46"",""323660""
""focus"",""46"",""328005""
","""event"",""trial"",""time""
""blur"",""0"",""0""
""blur"",""46"",""323660""
","""event"",""trial"",""time""
""focus"",""1"",""2795""
""focus"",""46"",""328005""
","""event"",""trial"",""time""
""fullscreenenter"",""1"",""5152""
","
",,,,,,,,,,,,"[{""stimulus"":""run_exp/static/images/task_images/dig.jpg"",""time"":1.1000000000931323},{""stimulus"":""run_exp/static/images/task_images/land.jpg"",""time"":1004.3999999999069},{""stimulus"":""run_exp/static/images/task_images/dig.jpg"",""time"":2018.7000000001863}]",[],3,,,,,,,,,,,,,,
harvest,109,542083,0.0-39.0-1.0,"""event"",""trial"",""time""
""blur"",""0"",""0""
""focus"",""1"",""2795""
""fullscreenenter"",""1"",""5152""
""blur"",""46"",""323660""
""focus"",""46"",""328005""
","""event"",""trial"",""time""
""blur"",""0"",""0""
""blur"",""46"",""323660""
","""event"",""trial"",""time""
""focus"",""1"",""2795""
""focus"",""46"",""328005""
","""event"",""trial"",""time""
""fullscreenenter"",""1"",""5152""
","
",,null,run_exp/static/images/task_images/gems/25.jpg,null,,,,,,,12,,,3,,,,,25,0.470013639,0.48,,,,,,,
decision,110,545092,0.0-39.0-2.0,"""event"",""trial"",""time""
""blur"",""0"",""0""
""focus"",""1"",""2795""
""fullscreenenter"",""1"",""5152""
""blur"",""46"",""323660""
""focus"",""46"",""328005""
","""event"",""trial"",""time""
""blur"",""0"",""0""
""blur"",""46"",""323660""
","""event"",""trial"",""time""
""focus"",""1"",""2795""
""focus"",""46"",""328005""
","""event"",""trial"",""time""
""fullscreenenter"",""1"",""5152""
","
",,null,run_exp/static/images/task_images/land.jpg,null,,,,,,,12,,,3,,,,,,,,83039,1,2,FALSE,,,
time_out,111,547110,0.0-40.0-0.0,"""event"",""trial"",""time""
""blur"",""0"",""0""
""focus"",""1"",""2795""
""fullscreenenter"",""1"",""5152""
""blur"",""46"",""323660""
""focus"",""46"",""328005""
","""event"",""trial"",""time""
""blur"",""0"",""0""
""blur"",""46"",""323660""
","""event"",""trial"",""time""
""focus"",""1"",""2795""
""focus"",""46"",""328005""
","""event"",""trial"",""time""
""fullscreenenter"",""1"",""5152""
","
",,null,run_exp/static/images/task_images/time_out.jpg,null,,,,,,,12,,,,,,,,,,,,,,,,,
decision,112,548931,0.0-40.0-1.0,"""event"",""trial"",""time""
""blur"",""0"",""0""
""focus"",""1"",""2795""
""fullscreenenter"",""1"",""5152""
""blur"",""46"",""323660""
""focus"",""46"",""328005""
","""event"",""trial"",""time""
""blur"",""0"",""0""
""blur"",""46"",""323660""
","""event"",""trial"",""time""
""focus"",""1"",""2795""
""focus"",""46"",""328005""
","""event"",""trial"",""time""
""fullscreenenter"",""1"",""5152""
","
",,1817.4,run_exp/static/images/task_images/land.jpg,65,,,,,,,12,,,3,,,,,,,,86879,1,2,FALSE,,,
dig,113,550140,0.0-41.0-0.0,"""event"",""trial"",""time""
""blur"",""0"",""0""
""focus"",""1"",""2795""
""fullscreenenter"",""1"",""5152""
""blur"",""46"",""323660""
""focus"",""46"",""328005""
","""event"",""trial"",""time""
""blur"",""0"",""0""
""blur"",""46"",""323660""
","""event"",""trial"",""time""
""focus"",""1"",""2795""
""focus"",""46"",""328005""
","""event"",""trial"",""time""
""fullscreenenter"",""1"",""5152""
","
",,,,,,,,,,,,"[{""stimulus"":""run_exp/static/images/task_images/dig.jpg"",""time"":0.8999999999068677},{""stimulus"":""run_exp/static/images/task_images/land.jpg"",""time"":398.89999999990687},{""stimulus"":""run_exp/static/images/task_images/dig.jpg"",""time"":799.6000000000931}]",[],3,,,,,,,,,,,,,,
harvest,114,551144,0.0-41.0-1.0,"""event"",""trial"",""time""
""blur"",""0"",""0""
""focus"",""1"",""2795""
""fullscreenenter"",""1"",""5152""
""blur"",""46"",""323660""
""focus"",""46"",""328005""
","""event"",""trial"",""time""
""blur"",""0"",""0""
""blur"",""46"",""323660""
","""event"",""trial"",""time""
""focus"",""1"",""2795""
""focus"",""46"",""328005""
","""event"",""trial"",""time""
""fullscreenenter"",""1"",""5152""
","
",,null,run_exp/static/images/task_images/gems/12.jpg,null,,,,,,,6,,,3,,,,,12,0.480379313,0.5,,,,,,,
decision,115,551843,0.0-41.0-2.0,"""event"",""trial"",""time""
""blur"",""0"",""0""
""focus"",""1"",""2795""
""fullscreenenter"",""1"",""5152""
""blur"",""46"",""323660""
""focus"",""46"",""328005""
","""event"",""trial"",""time""
""blur"",""0"",""0""
""blur"",""46"",""323660""
","""event"",""trial"",""time""
""focus"",""1"",""2795""
""focus"",""46"",""328005""
","""event"",""trial"",""time""
""fullscreenenter"",""1"",""5152""
","
",,695.6,run_exp/static/images/task_images/land.jpg,65,,,,,,,6,,,3,,,,,,,,89790,1,3,FALSE,,,
dig,116,554160,0.0-42.0-0.0,"""event"",""trial"",""time""
""blur"",""0"",""0""
""focus"",""1"",""2795""
""fullscreenenter"",""1"",""5152""
""blur"",""46"",""323660""
""focus"",""46"",""328005""
","""event"",""trial"",""time""
""blur"",""0"",""0""
""blur"",""46"",""323660""
","""event"",""trial"",""time""
""focus"",""1"",""2795""
""focus"",""46"",""328005""
","""event"",""trial"",""time""
""fullscreenenter"",""1"",""5152""
","
",,,,,,,,,,,,"[{""stimulus"":""run_exp/static/images/task_images/dig.jpg"",""time"":0.6000000000931323},{""stimulus"":""run_exp/static/images/task_images/land.jpg"",""time"":773.1000000000931},{""stimulus"":""run_exp/static/images/task_images/dig.jpg"",""time"":1538.7000000001863}]",[],3,,,,,,,,,,,,,,
harvest,117,555163,0.0-42.0-1.0,"""event"",""trial"",""time""
""blur"",""0"",""0""
""focus"",""1"",""2795""
""fullscreenenter"",""1"",""5152""
""blur"",""46"",""323660""
""focus"",""46"",""328005""
","""event"",""trial"",""time""
""blur"",""0"",""0""
""blur"",""46"",""323660""
","""event"",""trial"",""time""
""focus"",""1"",""2795""
""focus"",""46"",""328005""
","""event"",""trial"",""time""
""fullscreenenter"",""1"",""5152""
","
",,null,run_exp/static/images/task_images/gems/6.jpg,null,,,,,,,3,,,3,,,,,6,0.511831819,0.5,,,,,,,
decision,118,558169,0.0-42.0-2.0,"""event"",""trial"",""time""
""blur"",""0"",""0""
""focus"",""1"",""2795""
""fullscreenenter"",""1"",""5152""
""blur"",""46"",""323660""
""focus"",""46"",""328005""
","""event"",""trial"",""time""
""blur"",""0"",""0""
""blur"",""46"",""323660""
","""event"",""trial"",""time""
""focus"",""1"",""2795""
""focus"",""46"",""328005""
","""event"",""trial"",""time""
""fullscreenenter"",""1"",""5152""
","
",,null,run_exp/static/images/task_images/land.jpg,null,,,,,,,3,,,3,,,,,,,,96116,1,4,FALSE,,,
time_out,119,560196,0.0-43.0-0.0,"""event"",""trial"",""time""
""blur"",""0"",""0""
""focus"",""1"",""2795""
""fullscreenenter"",""1"",""5152""
""blur"",""46"",""323660""
""focus"",""46"",""328005""
","""event"",""trial"",""time""
""blur"",""0"",""0""
""blur"",""46"",""323660""
","""event"",""trial"",""time""
""focus"",""1"",""2795""
""focus"",""46"",""328005""
","""event"",""trial"",""time""
""fullscreenenter"",""1"",""5152""
","
",,null,run_exp/static/images/task_images/time_out.jpg,null,,,,,,,3,,,,,,,,,,,,,,,,,
decision,120,560885,0.0-43.0-1.0,"""event"",""trial"",""time""
""blur"",""0"",""0""
""focus"",""1"",""2795""
""fullscreenenter"",""1"",""5152""
""blur"",""46"",""323660""
""focus"",""46"",""328005""
","""event"",""trial"",""time""
""blur"",""0"",""0""
""blur"",""46"",""323660""
","""event"",""trial"",""time""
""focus"",""1"",""2795""
""focus"",""46"",""328005""
","""event"",""trial"",""time""
""fullscreenenter"",""1"",""5152""
","
",,683.6,run_exp/static/images/task_images/land.jpg,65,,,,,,,3,,,3,,,,,,,,98832,1,4,FALSE,,,
dig,121,563231,0.0-44.0-0.0,"""event"",""trial"",""time""
""blur"",""0"",""0""
""focus"",""1"",""2795""
""fullscreenenter"",""1"",""5152""
""blur"",""46"",""323660""
""focus"",""46"",""328005""
","""event"",""trial"",""time""
""blur"",""0"",""0""
""blur"",""46"",""323660""
","""event"",""trial"",""time""
""focus"",""1"",""2795""
""focus"",""46"",""328005""
","""event"",""trial"",""time""
""fullscreenenter"",""1"",""5152""
","
",,,,,,,,,,,,"[{""stimulus"":""run_exp/static/images/task_images/dig.jpg"",""time"":0.8999999999068677},{""stimulus"":""run_exp/static/images/task_images/land.jpg"",""time"":776.3000000002794},{""stimulus"":""run_exp/static/images/task_images/dig.jpg"",""time"":1556.1000000000931}]",[],3,,,,,,,,,,,,,,
harvest,122,564246,0.0-44.0-1.0,"""event"",""trial"",""time""
""blur"",""0"",""0""
""focus"",""1"",""2795""
""fullscreenenter"",""1"",""5152""
""blur"",""46"",""323660""
""focus"",""46"",""328005""
","""event"",""trial"",""time""
""blur"",""0"",""0""
""blur"",""46"",""323660""
","""event"",""trial"",""time""
""focus"",""1"",""2795""
""focus"",""46"",""328005""
","""event"",""trial"",""time""
""fullscreenenter"",""1"",""5152""
","
",,null,run_exp/static/images/task_images/gems/3.jpg,null,,,,,,,2,,,3,,,,,3,0.525457578,0.666666667,,,,,,,
decision,123,566504,0.0-44.0-2.0,"""event"",""trial"",""time""
""blur"",""0"",""0""
""focus"",""1"",""2795""
""fullscreenenter"",""1"",""5152""
""blur"",""46"",""323660""
""focus"",""46"",""328005""
","""event"",""trial"",""time""
""blur"",""0"",""0""
""blur"",""46"",""323660""
","""event"",""trial"",""time""
""focus"",""1"",""2795""
""focus"",""46"",""328005""
","""event"",""trial"",""time""
""fullscreenenter"",""1"",""5152""
","
",,2255,run_exp/static/images/task_images/land.jpg,65,,,,,,,2,,,3,,,,,,,,104451,1,5,FALSE,,,
dig,124,567270,0.0-45.0-0.0,"""event"",""trial"",""time""
""blur"",""0"",""0""
""focus"",""1"",""2795""
""fullscreenenter"",""1"",""5152""
""blur"",""46"",""323660""
""focus"",""46"",""328005""
","""event"",""trial"",""time""
""blur"",""0"",""0""
""blur"",""46"",""323660""
","""event"",""trial"",""time""
""focus"",""1"",""2795""
""focus"",""46"",""328005""
","""event"",""trial"",""time""
""fullscreenenter"",""1"",""5152""
","
",,,,,,,,,,,,"[{""stimulus"":""run_exp/static/images/task_images/dig.jpg"",""time"":1.1000000000931323},{""stimulus"":""run_exp/static/images/task_images/land.jpg"",""time"":258.39999999990687},{""stimulus"":""run_exp/static/images/task_images/dig.jpg"",""time"":517.8999999999069}]",[],3,,,,,,,,,,,,,,
harvest,125,568274,0.0-45.0-1.0,"""event"",""trial"",""time""
""blur"",""0"",""0""
""focus"",""1"",""2795""
""fullscreenenter"",""1"",""5152""
""blur"",""46"",""323660""
""focus"",""46"",""328005""
","""event"",""trial"",""time""
""blur"",""0"",""0""
""blur"",""46"",""323660""
","""event"",""trial"",""time""
""focus"",""1"",""2795""
""focus"",""46"",""328005""
","""event"",""trial"",""time""
""fullscreenenter"",""1"",""5152""
","
",,null,run_exp/static/images/task_images/gems/2.jpg,null,,,,,,,1,,,3,,,,,2,0.425920684,0.5,,,,,,,
decision,126,568518,0.0-45.0-2.0,"""event"",""trial"",""time""
""blur"",""0"",""0""
""focus"",""1"",""2795""
""fullscreenenter"",""1"",""5152""
""blur"",""46"",""323660""
""focus"",""46"",""328005""
","""event"",""trial"",""time""
""blur"",""0"",""0""
""blur"",""46"",""323660""
","""event"",""trial"",""time""
""focus"",""1"",""2795""
""focus"",""46"",""328005""
","""event"",""trial"",""time""
""fullscreenenter"",""1"",""5152""
","
",,240.3,run_exp/static/images/task_images/land.jpg,65,,,,,,,1,,,3,,,,,,,,106465,1,6,FALSE,,,
dig,127,571301,0.0-46.0-0.0,"""event"",""trial"",""time""
""blur"",""0"",""0""
""focus"",""1"",""2795""
""fullscreenenter"",""1"",""5152""
""blur"",""46"",""323660""
""focus"",""46"",""328005""
","""event"",""trial"",""time""
""blur"",""0"",""0""
""blur"",""46"",""323660""
","""event"",""trial"",""time""
""focus"",""1"",""2795""
""focus"",""46"",""328005""
","""event"",""trial"",""time""
""fullscreenenter"",""1"",""5152""
","
",,,,,,,,,,,,"[{""stimulus"":""run_exp/static/images/task_images/dig.jpg"",""time"":0.6000000000931323},{""stimulus"":""run_exp/static/images/task_images/land.jpg"",""time"":930.2999999998137},{""stimulus"":""run_exp/static/images/task_images/dig.jpg"",""time"":1859.7999999998137}]",[],3,,,,,,,,,,,,,,
harvest,128,572306,0.0-46.0-1.0,"""event"",""trial"",""time""
""blur"",""0"",""0""
""focus"",""1"",""2795""
""fullscreenenter"",""1"",""5152""
""blur"",""46"",""323660""
""focus"",""46"",""328005""
","""event"",""trial"",""time""
""blur"",""0"",""0""
""blur"",""46"",""323660""
","""event"",""trial"",""time""
""focus"",""1"",""2795""
""focus"",""46"",""328005""
","""event"",""trial"",""time""
""fullscreenenter"",""1"",""5152""
","
",,null,run_exp/static/images/task_images/gems/1.jpg,null,,,,,,,0,,,3,,,,,1,0.490830559,0,,,,,,,
decision,129,575310,0.0-46.0-2.0,"""event"",""trial"",""time""
""blur"",""0"",""0""
""focus"",""1"",""2795""
""fullscreenenter"",""1"",""5152""
""blur"",""46"",""323660""
""focus"",""46"",""328005""
","""event"",""trial"",""time""
""blur"",""0"",""0""
""blur"",""46"",""323660""
","""event"",""trial"",""time""
""focus"",""1"",""2795""
""focus"",""46"",""328005""
","""event"",""trial"",""time""
""fullscreenenter"",""1"",""5152""
","
",,null,run_exp/static/images/task_images/land.jpg,null,,,,,,,0,,,3,,,,,,,,113257,1,7,FALSE,,,
time_out,130,577335,0.0-47.0-0.0,"""event"",""trial"",""time""
""blur"",""0"",""0""
""focus"",""1"",""2795""
""fullscreenenter"",""1"",""5152""
""blur"",""46"",""323660""
""focus"",""46"",""328005""
","""event"",""trial"",""time""
""blur"",""0"",""0""
""blur"",""46"",""323660""
","""event"",""trial"",""time""
""focus"",""1"",""2795""
""focus"",""46"",""328005""
","""event"",""trial"",""time""
""fullscreenenter"",""1"",""5152""
","
",,null,run_exp/static/images/task_images/time_out.jpg,null,,,,,,,0,,,,,,,,,,,,,,,,,
decision,131,578040,0.0-47.0-1.0,"""event"",""trial"",""time""
""blur"",""0"",""0""
""focus"",""1"",""2795""
""fullscreenenter"",""1"",""5152""
""blur"",""46"",""323660""
""focus"",""46"",""328005""
","""event"",""trial"",""time""
""blur"",""0"",""0""
""blur"",""46"",""323660""
","""event"",""trial"",""time""
""focus"",""1"",""2795""
""focus"",""46"",""328005""
","""event"",""trial"",""time""
""fullscreenenter"",""1"",""5152""
","
",,701,run_exp/static/images/task_images/land.jpg,76,,,,,,,0,,,3,,,,,,,,115987,1,7,TRUE,,,
travel,132,587377,0.0-48.0-0.0,"""event"",""trial"",""time""
""blur"",""0"",""0""
""focus"",""1"",""2795""
""fullscreenenter"",""1"",""5152""
""blur"",""46"",""323660""
""focus"",""46"",""328005""
","""event"",""trial"",""time""
""blur"",""0"",""0""
""blur"",""46"",""323660""
","""event"",""trial"",""time""
""focus"",""1"",""2795""
""focus"",""46"",""328005""
","""event"",""trial"",""time""
""fullscreenenter"",""1"",""5152""
","
",,,,,,,,,,,,"[{""stimulus"":""run_exp/static/images/task_images/rocket-01.jpg"",""time"":0.8999999999068677},{""stimulus"":""run_exp/static/images/task_images/rocket-02.jpg"",""time"":1042},{""stimulus"":""run_exp/static/images/task_images/rocket-03.jpg"",""time"":2091.3000000002794},{""stimulus"":""run_exp/static/images/task_images/rocket-04.jpg"",""time"":3111.399999999907},{""stimulus"":""run_exp/static/images/task_images/rocket-05.jpg"",""time"":4140.399999999907},{""stimulus"":""run_exp/static/images/task_images/rocket-06.jpg"",""time"":5184.899999999907},{""stimulus"":""run_exp/static/images/task_images/rocket-07.jpg"",""time"":6210.899999999907},{""stimulus"":""run_exp/static/images/task_images/rocket-08.jpg"",""time"":7251.300000000279},{""stimulus"":""run_exp/static/images/task_images/rocket-09.jpg"",""time"":8270.200000000186}]",[],3,,,,,,,,,,,,,,
alien_welcome,133,592396,0.0-48.0-1.0,"""event"",""trial"",""time""
""blur"",""0"",""0""
""focus"",""1"",""2795""
""fullscreenenter"",""1"",""5152""
""blur"",""46"",""323660""
""focus"",""46"",""328005""
","""event"",""trial"",""time""
""blur"",""0"",""0""
""blur"",""46"",""323660""
","""event"",""trial"",""time""
""focus"",""1"",""2795""
""focus"",""46"",""328005""
","""event"",""trial"",""time""
""fullscreenenter"",""1"",""5152""
","
",,null,run_exp/static/images/task_images/aliens/old_aliens/planet/alien_planet-77.jpg,null,,,,,,,,,,,,,77,"68,37,33,77,29,15,8,72,36,5,10,73,32,76",,,,,,,,,,
land,134,592916,0.0-48.0-2.0,"""event"",""trial"",""time""
""blur"",""0"",""0""
""focus"",""1"",""2795""
""fullscreenenter"",""1"",""5152""
""blur"",""46"",""323660""
""focus"",""46"",""328005""
","""event"",""trial"",""time""
""blur"",""0"",""0""
""blur"",""46"",""323660""
","""event"",""trial"",""time""
""focus"",""1"",""2795""
""focus"",""46"",""328005""
","""event"",""trial"",""time""
""fullscreenenter"",""1"",""5152""
","
",,null,run_exp/static/images/task_images/land.jpg,null,,,,,,,102,,,4,,,,,,,,,,,,,,
dig,135,594947,0.0-48.0-3.0,"""event"",""trial"",""time""
""blur"",""0"",""0""
""focus"",""1"",""2795""
""fullscreenenter"",""1"",""5152""
""blur"",""46"",""323660""
""focus"",""46"",""328005""
","""event"",""trial"",""time""
""blur"",""0"",""0""
""blur"",""46"",""323660""
","""event"",""trial"",""time""
""focus"",""1"",""2795""
""focus"",""46"",""328005""
","""event"",""trial"",""time""
""fullscreenenter"",""1"",""5152""
","
",,,,,,,,,,,,"[{""stimulus"":""run_exp/static/images/task_images/dig.jpg"",""time"":1.5},{""stimulus"":""run_exp/static/images/task_images/land.jpg"",""time"":676.7999999998137},{""stimulus"":""run_exp/static/images/task_images/dig.jpg"",""time"":1340.2999999998137}]",[],4,,,,,,,,,,,,,,
harvest,136,595952,0.0-48.0-4.0,"""event"",""trial"",""time""
""blur"",""0"",""0""
""focus"",""1"",""2795""
""fullscreenenter"",""1"",""5152""
""blur"",""46"",""323660""
""focus"",""46"",""328005""
","""event"",""trial"",""time""
""blur"",""0"",""0""
""blur"",""46"",""323660""
","""event"",""trial"",""time""
""focus"",""1"",""2795""
""focus"",""46"",""328005""
","""event"",""trial"",""time""
""fullscreenenter"",""1"",""5152""
","
",,null,run_exp/static/images/task_images/gems/102.jpg,null,,,,,,,46,,,4,,,,,102,0.455073131,0.450980392,,,,,,,
decision,137,598057,0.0-48.0-5.0,"""event"",""trial"",""time""
""blur"",""0"",""0""
""focus"",""1"",""2795""
""fullscreenenter"",""1"",""5152""
""blur"",""46"",""323660""
""focus"",""46"",""328005""
","""event"",""trial"",""time""
""blur"",""0"",""0""
""blur"",""46"",""323660""
","""event"",""trial"",""time""
""focus"",""1"",""2795""
""focus"",""46"",""328005""
","""event"",""trial"",""time""
""fullscreenenter"",""1"",""5152""
","
",,2100.6,run_exp/static/images/task_images/land.jpg,65,,,,,,,46,,,4,,,,,,,,136004,1,0,FALSE,,,
dig,138,598991,0.0-49.0-0.0,"""event"",""trial"",""time""
""blur"",""0"",""0""
""focus"",""1"",""2795""
""fullscreenenter"",""1"",""5152""
""blur"",""46"",""323660""
""focus"",""46"",""328005""
","""event"",""trial"",""time""
""blur"",""0"",""0""
""blur"",""46"",""323660""
","""event"",""trial"",""time""
""focus"",""1"",""2795""
""focus"",""46"",""328005""
","""event"",""trial"",""time""
""fullscreenenter"",""1"",""5152""
","
",,,,,,,,,,,,"[{""stimulus"":""run_exp/static/images/task_images/dig.jpg"",""time"":1},{""stimulus"":""run_exp/static/images/task_images/land.jpg"",""time"":305.09999999962747},{""stimulus"":""run_exp/static/images/task_images/dig.jpg"",""time"":615.2999999998137}]",[],4,,,,,,,,,,,,,,
harvest,139,599996,0.0-49.0-1.0,"""event"",""trial"",""time""
""blur"",""0"",""0""
""focus"",""1"",""2795""
""fullscreenenter"",""1"",""5152""
""blur"",""46"",""323660""
""focus"",""46"",""328005""
","""event"",""trial"",""time""
""blur"",""0"",""0""
""blur"",""46"",""323660""
","""event"",""trial"",""time""
""focus"",""1"",""2795""
""focus"",""46"",""328005""
","""event"",""trial"",""time""
""fullscreenenter"",""1"",""5152""
","
",,null,run_exp/static/images/task_images/gems/46.jpg,null,,,,,,,25,,,4,,,,,46,0.542213864,0.543478261,,,,,,,
decision,140,600265,0.0-49.0-2.0,"""event"",""trial"",""time""
""blur"",""0"",""0""
""focus"",""1"",""2795""
""fullscreenenter"",""1"",""5152""
""blur"",""46"",""323660""
""focus"",""46"",""328005""
","""event"",""trial"",""time""
""blur"",""0"",""0""
""blur"",""46"",""323660""
","""event"",""trial"",""time""
""focus"",""1"",""2795""
""focus"",""46"",""328005""
","""event"",""trial"",""time""
""fullscreenenter"",""1"",""5152""
","
",,266.2,run_exp/static/images/task_images/land.jpg,65,,,,,,,25,,,4,,,,,,,,138212,1,1,FALSE,,,
dig,141,603029,0.0-50.0-0.0,"""event"",""trial"",""time""
""blur"",""0"",""0""
""focus"",""1"",""2795""
""fullscreenenter"",""1"",""5152""
""blur"",""46"",""323660""
""focus"",""46"",""328005""
","""event"",""trial"",""time""
""blur"",""0"",""0""
""blur"",""46"",""323660""
","""event"",""trial"",""time""
""focus"",""1"",""2795""
""focus"",""46"",""328005""
","""event"",""trial"",""time""
""fullscreenenter"",""1"",""5152""
","
",,,,,,,,,,,,"[{""stimulus"":""run_exp/static/images/task_images/dig.jpg"",""time"":0.6999999997206032},{""stimulus"":""run_exp/static/images/task_images/land.jpg"",""time"":919.1000000000931},{""stimulus"":""run_exp/static/images/task_images/dig.jpg"",""time"":1843.3999999999069}]",[],4,,,,,,,,,,,,,,
harvest,142,604040,0.0-50.0-1.0,"""event"",""trial"",""time""
""blur"",""0"",""0""
""focus"",""1"",""2795""
""fullscreenenter"",""1"",""5152""
""blur"",""46"",""323660""
""focus"",""46"",""328005""
","""event"",""trial"",""time""
""blur"",""0"",""0""
""blur"",""46"",""323660""
","""event"",""trial"",""time""
""focus"",""1"",""2795""
""focus"",""46"",""328005""
","""event"",""trial"",""time""
""fullscreenenter"",""1"",""5152""
","
",,null,run_exp/static/images/task_images/gems/25.jpg,null,,,,,,,14,,,4,,,,,25,0.541098286,0.56,,,,,,,
decision,143,605494,0.0-50.0-2.0,"""event"",""trial"",""time""
""blur"",""0"",""0""
""focus"",""1"",""2795""
""fullscreenenter"",""1"",""5152""
""blur"",""46"",""323660""
""focus"",""46"",""328005""
","""event"",""trial"",""time""
""blur"",""0"",""0""
""blur"",""46"",""323660""
","""event"",""trial"",""time""
""focus"",""1"",""2795""
""focus"",""46"",""328005""
","""event"",""trial"",""time""
""fullscreenenter"",""1"",""5152""
","
",,1451.2,run_exp/static/images/task_images/land.jpg,65,,,,,,,14,,,4,,,,,,,,143442,1,2,FALSE,,,
dig,144,607087,0.0-51.0-0.0,"""event"",""trial"",""time""
""blur"",""0"",""0""
""focus"",""1"",""2795""
""fullscreenenter"",""1"",""5152""
""blur"",""46"",""323660""
""focus"",""46"",""328005""
","""event"",""trial"",""time""
""blur"",""0"",""0""
""blur"",""46"",""323660""
","""event"",""trial"",""time""
""focus"",""1"",""2795""
""focus"",""46"",""328005""
","""event"",""trial"",""time""
""fullscreenenter"",""1"",""5152""
","
",,,,,,,,,,,,"[{""stimulus"":""run_exp/static/images/task_images/dig.jpg"",""time"":1.099999999627471},{""stimulus"":""run_exp/static/images/task_images/land.jpg"",""time"":520.3999999999069},{""stimulus"":""run_exp/static/images/task_images/dig.jpg"",""time"":1050.7999999998137}]",[],4,,,,,,,,,,,,,,
harvest,145,608093,0.0-51.0-1.0,"""event"",""trial"",""time""
""blur"",""0"",""0""
""focus"",""1"",""2795""
""fullscreenenter"",""1"",""5152""
""blur"",""46"",""323660""
""focus"",""46"",""328005""
","""event"",""trial"",""time""
""blur"",""0"",""0""
""blur"",""46"",""323660""
","""event"",""trial"",""time""
""focus"",""1"",""2795""
""focus"",""46"",""328005""
","""event"",""trial"",""time""
""fullscreenenter"",""1"",""5152""
","
",,null,run_exp/static/images/task_images/gems/14.jpg,null,,,,,,,7,,,4,,,,,14,0.4917495,0.5,,,,,,,
decision,146,610936,0.0-51.0-2.0,"""event"",""trial"",""time""
""blur"",""0"",""0""
""focus"",""1"",""2795""
""fullscreenenter"",""1"",""5152""
""blur"",""46"",""323660""
""focus"",""46"",""328005""
","""event"",""trial"",""time""
""blur"",""0"",""0""
""blur"",""46"",""323660""
","""event"",""trial"",""time""
""focus"",""1"",""2795""
""focus"",""46"",""328005""
","""event"",""trial"",""time""
""fullscreenenter"",""1"",""5152""
","
",,2838.8,run_exp/static/images/task_images/land.jpg,65,,,,,,,7,,,4,,,,,,,,148884,1,3,FALSE,,,
dig,147,611116,0.0-52.0-0.0,"""event"",""trial"",""time""
""blur"",""0"",""0""
""focus"",""1"",""2795""
""fullscreenenter"",""1"",""5152""
""blur"",""46"",""323660""
""focus"",""46"",""328005""
","""event"",""trial"",""time""
""blur"",""0"",""0""
""blur"",""46"",""323660""
","""event"",""trial"",""time""
""focus"",""1"",""2795""
""focus"",""46"",""328005""
","""event"",""trial"",""time""
""fullscreenenter"",""1"",""5152""
","
",,,,,,,,,,,,"[{""stimulus"":""run_exp/static/images/task_images/dig.jpg"",""time"":0.8000000002793968},{""stimulus"":""run_exp/static/images/task_images/land.jpg"",""time"":58.200000000186265},{""stimulus"":""run_exp/static/images/task_images/dig.jpg"",""time"":110.89999999990687}]",[],4,,,,,,,,,,,,,,
harvest,148,612120,0.0-52.0-1.0,"""event"",""trial"",""time""
""blur"",""0"",""0""
""focus"",""1"",""2795""
""fullscreenenter"",""1"",""5152""
""blur"",""46"",""323660""
""focus"",""46"",""328005""
","""event"",""trial"",""time""
""blur"",""0"",""0""
""blur"",""46"",""323660""
","""event"",""trial"",""time""
""focus"",""1"",""2795""
""focus"",""46"",""328005""
","""event"",""trial"",""time""
""fullscreenenter"",""1"",""5152""
","
",,null,run_exp/static/images/task_images/gems/7.jpg,null,,,,,,,3,,,4,,,,,7,0.492230601,0.428571429,,,,,,,
decision,149,612943,0.0-52.0-2.0,"""event"",""trial"",""time""
""blur"",""0"",""0""
""focus"",""1"",""2795""
""fullscreenenter"",""1"",""5152""
""blur"",""46"",""323660""
""focus"",""46"",""328005""
","""event"",""trial"",""time""
""blur"",""0"",""0""
""blur"",""46"",""323660""
","""event"",""trial"",""time""
""focus"",""1"",""2795""
""focus"",""46"",""328005""
","""event"",""trial"",""time""
""fullscreenenter"",""1"",""5152""
","
",,819.9,run_exp/static/images/task_images/land.jpg,65,,,,,,,3,,,4,,,,,,,,150890,1,4,FALSE,,,
dig,150,615150,0.0-53.0-0.0,"""event"",""trial"",""time""
""blur"",""0"",""0""
""focus"",""1"",""2795""
""fullscreenenter"",""1"",""5152""
""blur"",""46"",""323660""
""focus"",""46"",""328005""
","""event"",""trial"",""time""
""blur"",""0"",""0""
""blur"",""46"",""323660""
","""event"",""trial"",""time""
""focus"",""1"",""2795""
""focus"",""46"",""328005""
","""event"",""trial"",""time""
""fullscreenenter"",""1"",""5152""
","
",,,,,,,,,,,,"[{""stimulus"":""run_exp/static/images/task_images/dig.jpg"",""time"":0.6000000000931323},{""stimulus"":""run_exp/static/images/task_images/land.jpg"",""time"":730.8999999999069},{""stimulus"":""run_exp/static/images/task_images/dig.jpg"",""time"":1459.6000000000931}]",[],4,,,,,,,,,,,,,,
harvest,151,616160,0.0-53.0-1.0,"""event"",""trial"",""time""
""blur"",""0"",""0""
""focus"",""1"",""2795""
""fullscreenenter"",""1"",""5152""
""blur"",""46"",""323660""
""focus"",""46"",""328005""
","""event"",""trial"",""time""
""blur"",""0"",""0""
""blur"",""46"",""323660""
","""event"",""trial"",""time""
""focus"",""1"",""2795""
""focus"",""46"",""328005""
","""event"",""trial"",""time""
""fullscreenenter"",""1"",""5152""
","
",,null,run_exp/static/images/task_images/gems/3.jpg,null,,,,,,,2,,,4,,,,,3,0.5171761,0.666666667,,,,,,,
decision,152,617541,0.0-53.0-2.0,"""event"",""trial"",""time""
""blur"",""0"",""0""
""focus"",""1"",""2795""
""fullscreenenter"",""1"",""5152""
""blur"",""46"",""323660""
""focus"",""46"",""328005""
","""event"",""trial"",""time""
""blur"",""0"",""0""
""blur"",""46"",""323660""
","""event"",""trial"",""time""
""focus"",""1"",""2795""
""focus"",""46"",""328005""
","""event"",""trial"",""time""
""fullscreenenter"",""1"",""5152""
","
",,1375.7,run_exp/static/images/task_images/land.jpg,65,,,,,,,2,,,4,,,,,,,,155488,1,5,FALSE,,,
dig,153,619186,0.0-54.0-0.0,"""event"",""trial"",""time""
""blur"",""0"",""0""
""focus"",""1"",""2795""
""fullscreenenter"",""1"",""5152""
""blur"",""46"",""323660""
""focus"",""46"",""328005""
","""event"",""trial"",""time""
""blur"",""0"",""0""
""blur"",""46"",""323660""
","""event"",""trial"",""time""
""focus"",""1"",""2795""
""focus"",""46"",""328005""
","""event"",""trial"",""time""
""fullscreenenter"",""1"",""5152""
","
",,,,,,,,,,,,"[{""stimulus"":""run_exp/static/images/task_images/dig.jpg"",""time"":0.8999999999068677},{""stimulus"":""run_exp/static/images/task_images/land.jpg"",""time"":558.8999999999069},{""stimulus"":""run_exp/static/images/task_images/dig.jpg"",""time"":1090}]",[],4,,,,,,,,,,,,,,
harvest,154,620190,0.0-54.0-1.0,"""event"",""trial"",""time""
""blur"",""0"",""0""
""focus"",""1"",""2795""
""fullscreenenter"",""1"",""5152""
""blur"",""46"",""323660""
""focus"",""46"",""328005""
","""event"",""trial"",""time""
""blur"",""0"",""0""
""blur"",""46"",""323660""
","""event"",""trial"",""time""
""focus"",""1"",""2795""
""focus"",""46"",""328005""
","""event"",""trial"",""time""
""fullscreenenter"",""1"",""5152""
","
",,null,run_exp/static/images/task_images/gems/2.jpg,null,,,,,,,1,,,4,,,,,2,0.488174511,0.5,,,,,,,
decision,155,621231,0.0-54.0-2.0,"""event"",""trial"",""time""
""blur"",""0"",""0""
""focus"",""1"",""2795""
""fullscreenenter"",""1"",""5152""
""blur"",""46"",""323660""
""focus"",""46"",""328005""
","""event"",""trial"",""time""
""blur"",""0"",""0""
""blur"",""46"",""323660""
","""event"",""trial"",""time""
""focus"",""1"",""2795""
""focus"",""46"",""328005""
","""event"",""trial"",""time""
""fullscreenenter"",""1"",""5152""
","
",,1037.8,run_exp/static/images/task_images/land.jpg,65,,,,,,,1,,,4,,,,,,,,159178,1,6,FALSE,,,
dig,156,623236,0.0-55.0-0.0,"""event"",""trial"",""time""
""blur"",""0"",""0""
""focus"",""1"",""2795""
""fullscreenenter"",""1"",""5152""
""blur"",""46"",""323660""
""focus"",""46"",""328005""
","""event"",""trial"",""time""
""blur"",""0"",""0""
""blur"",""46"",""323660""
","""event"",""trial"",""time""
""focus"",""1"",""2795""
""focus"",""46"",""328005""
","""event"",""trial"",""time""
""fullscreenenter"",""1"",""5152""
","
",,,,,,,,,,,,"[{""stimulus"":""run_exp/static/images/task_images/dig.jpg"",""time"":2},{""stimulus"":""run_exp/static/images/task_images/land.jpg"",""time"":662.1000000000931},{""stimulus"":""run_exp/static/images/task_images/dig.jpg"",""time"":1314.4000000003725}]",[],4,,,,,,,,,,,,,,
harvest,157,624240,0.0-55.0-1.0,"""event"",""trial"",""time""
""blur"",""0"",""0""
""focus"",""1"",""2795""
""fullscreenenter"",""1"",""5152""
""blur"",""46"",""323660""
""focus"",""46"",""328005""
","""event"",""trial"",""time""
""blur"",""0"",""0""
""blur"",""46"",""323660""
","""event"",""trial"",""time""
""focus"",""1"",""2795""
""focus"",""46"",""328005""
","""event"",""trial"",""time""
""fullscreenenter"",""1"",""5152""
","
",,null,run_exp/static/images/task_images/gems/1.jpg,null,,,,,,,1,,,4,,,,,1,0.511016682,1,,,,,,,
decision,158,624857,0.0-55.0-2.0,"""event"",""trial"",""time""
""blur"",""0"",""0""
""focus"",""1"",""2795""
""fullscreenenter"",""1"",""5152""
""blur"",""46"",""323660""
""focus"",""46"",""328005""
","""event"",""trial"",""time""
""blur"",""0"",""0""
""blur"",""46"",""323660""
","""event"",""trial"",""time""
""focus"",""1"",""2795""
""focus"",""46"",""328005""
","""event"",""trial"",""time""
""fullscreenenter"",""1"",""5152""
","
",,613.8,run_exp/static/images/task_images/land.jpg,65,,,,,,,1,,,4,,,,,,,,162804,1,7,FALSE,,,
dig,159,627282,0.0-56.0-0.0,"""event"",""trial"",""time""
""blur"",""0"",""0""
""focus"",""1"",""2795""
""fullscreenenter"",""1"",""5152""
""blur"",""46"",""323660""
""focus"",""46"",""328005""
","""event"",""trial"",""time""
""blur"",""0"",""0""
""blur"",""46"",""323660""
","""event"",""trial"",""time""
""focus"",""1"",""2795""
""focus"",""46"",""328005""
","""event"",""trial"",""time""
""fullscreenenter"",""1"",""5152""
","
