trial_type,trial_index,time_elapsed,internal_node_id,success,rt,stimulus,key_press,prompt,subject_id,age,gender,button_pressed,next_reward,animation_sequence,responses,planet,curr_prac_trial,n_prac_rounds,alien,aliens,reward_received,decay_rate_actual,decay_rate_exp,time_in_block,block_num,prt,last_trial_on_planet,button_html,bonus,num_failures
pavlovia,0,13,0.0-0.0,,,,,,,,,,,,,,,,,,,,,,,,,,,
fullscreen,1,2394,0.0-1.0,TRUE,,,,,,,,,,,,,,,,,,,,,,,,,,
instruc_welcome,2,12219,0.0-2.0,,null,run_exp/static/audio/clip_1_welcome.m4a,null,"<p>Howdy! In this experiment, you’ll be an explorer traveling through space to collect space treasure.</p><p>Your mission is to collect as much treasure as possible.</p><br><br><p><img src='run_exp/static/images/task_images/opening_img-01.jpg' height='300' width='auto'></p>",p79bmmg6Ma0DxiA_1Y3uCvx5VSxv8Zo_MLRP_7OJKip3gNdshcRU,16.84,female,,,,,,,,,,,,,,,,,,,
audio-keyboard-response,3,28865,0.0-3.0,,null,run_exp/static/audio/clip_2_move.m4a,null,,,,,,,,,,,,,,,,,,,,,,,
welcome_dec,4,29379,0.0-4.0,,487.2,"<p>Howdy! In this experiment, you’ll be an explorer traveling through space to collect space treasure.</p><p>Your mission is to collect as much treasure as possible.</p><br><br><p><img src='run_exp/static/images/task_images/opening_img-01.jpg' height='300' width='auto'></p>",,,,,,1,,,,,,,,,,,,,,,,,,
html-keyboard-response,5,29986,0.0-5.0,,602,"<p>Howdy! In this experiment, you’ll be an explorer traveling through space to collect space treasure.</p><p>Your mission is to collect as much treasure as possible.</p><br><br><p><img src='run_exp/static/images/task_images/opening_img-01.jpg' height='300' width='auto'></p><button class=""jspsych-html-btn-unchosen""><img src=""run_exp/static/images/task_images/planet-01.jpg"" height=""50""></button><button class=""jspsych-html-btn-chosen""><img src=""run_exp/static/images/task_images/planet-02.jpg"" height=""50""></button><p><b>[press the space bar to lock in your answer]<b><br></p>",32,,,,,,,,,,,,,,,,,,,,,,,
instruc_goal,6,40057,0.0-6.0-0.0,,null,run_exp/static/audio/clip_3_goal.m4a,null,"<p> As a space explorer, you’ll visit different planets to dig for space treasure, these pink gems.</p> <p> The more treasure you dig up, the more bonus money you’ll win! </p><br><br><p><img src='run_exp/static/images/task_images/pink_gem.jpg' height='300' width='auto'></p>",,,,,,,,,,,,,,,,,,,,,,
instruc_goal,7,41278,0.0-6.0-1.0,,1194.9,"<p> As a space explorer, you’ll visit different planets to dig for space treasure, these pink gems.</p> <p> The more treasure you dig up, the more bonus money you’ll win! </p><br><br><p><img src='run_exp/static/images/task_images/pink_gem.jpg' height='300' width='auto'></p>",,,,,,1,,,,,,,,,,,,,,,,,,
html-keyboard-response,8,41343,0.0-6.0-2.0,,61.40000001,"<p> As a space explorer, you’ll visit different planets to dig for space treasure, these pink gems.</p> <p> The more treasure you dig up, the more bonus money you’ll win! </p><br><br><p><img src='run_exp/static/images/task_images/pink_gem.jpg' height='300' width='auto'></p><button class=""jspsych-html-btn-unchosen""><img src=""run_exp/static/images/task_images/planet-01.jpg"" height=""50""></button><button class=""jspsych-html-btn-chosen""><img src=""run_exp/static/images/task_images/planet-02.jpg"" height=""50""></button><p><b>[press the space bar to lock in your answer]<b><br></p>",32,,,,,,,,,,,,,,,,,,,,,,,
instruc_dig,9,57384,0.0-7.0-0.0,,null,run_exp/static/audio/clip_4_dig.m4a,null,,,,,,100,,,,,,,,,,,,,,,,,
instruc_dig_try,10,57581,0.0-7.0-1.0,,167.6,"<p> When you’ve arrived at a new planet, you will dig once. </p> <p>Then, you get to decide if you want to stay on the planet and dig again or travel to a new planet and dig there.</p> <p> To stay and dig, press the letter <strong>‘A’</strong> on your keyboard. Try pressing it now! </p><p><img src='run_exp/static/images/task_images/land.jpg'  height='700' width='auto'></p>",65,"<p> When you’ve arrived at a new planet, you will dig once. </p> <p>Then, you get to decide if you want to stay on the planet and dig again or travel to a new planet and dig there.</p> <p> To stay and dig, press the letter <strong>‘A’</strong> on your keyboard. Try pressing it now! </p><p><img src='run_exp/static/images/task_images/land.jpg'  height='700' width='auto'></p>",,,,,100,,,,,,,,,,,,,,,,,
dig_prac,11,59604,0.0-7.0-2.0,,,,,,,,,,,"[{""stimulus"":""run_exp/static/images/task_images/dig.jpg"",""time"":0.6000000089406967},{""stimulus"":""run_exp/static/images/task_images/land.jpg"",""time"":669.2999999970198},{""stimulus"":""run_exp/static/images/task_images/dig.jpg"",""time"":1337.4000000059605}]",[],,,,,,,,,,,,,,,
instruc_travel,12,95880,0.0-7.0-3.0,,null,run_exp/static/audio/clip_5_travel.m4a,null,"<p>Every time you dig up gems, there are less gems on the planet, so the more you dig on a planet the fewer gems you’ll get with each dig.</p><p>When gems are running low, you may want to travel to a new planet. </p> <p>  Planets are very far apart in this galaxy, so it will take some time to travel between them. </p> <br><p>There are lots and lots of planets for you to visit, so you won’t be able to return to any planets you’ve seen before. </p><br><p>To leave this planet and travel to a new one, press the letter <strong>‘L’</strong> on your keyboard. Try pressing it now! </p><p><img src='run_exp/static/images/task_images/rocket-01.jpg'  height='600' width='auto'></p>",,,,,,,,,,,,,,,,,,,,,,
instruc_travel_try,13,96130,0.0-7.0-4.0,,248,"<p>Every time you dig up gems, there are less gems on the planet, so the more you dig on a planet the fewer gems you’ll get with each dig.</p><p>When gems are running low, you may want to travel to a new planet. </p> <p>  Planets are very far apart in this galaxy, so it will take some time to travel between them. </p> <br><p>There are lots and lots of planets for you to visit, so you won’t be able to return to any planets you’ve seen before. </p><br><p>To leave this planet and travel to a new one, press the letter <strong>‘L’</strong> on your keyboard. Try pressing it now! </p><p><img src='run_exp/static/images/task_images/rocket-01.jpg'  height='600' width='auto'></p>",76,"<p>Every time you dig up gems, there are less gems on the planet, so the more you dig on a planet the fewer gems you’ll get with each dig.</p><p>When gems are running low, you may want to travel to a new planet. </p> <p>  Planets are very far apart in this galaxy, so it will take some time to travel between them. </p> <br><p>There are lots and lots of planets for you to visit, so you won’t be able to return to any planets you’ve seen before. </p><br><p>To leave this planet and travel to a new one, press the letter <strong>‘L’</strong> on your keyboard. Try pressing it now! </p><p><img src='run_exp/static/images/task_images/rocket-01.jpg'  height='600' width='auto'></p>",,,,,,,,,,,,,,,,,,,,,,
travel_prac,14,106136,0.0-7.0-5.0,,,,,,,,,,,"[{""stimulus"":""run_exp/static/images/task_images/rocket-01.jpg"",""time"":0.4000000059604645},{""stimulus"":""run_exp/static/images/task_images/rocket-02.jpg"",""time"":1115.4000000059605},{""stimulus"":""run_exp/static/images/task_images/rocket-03.jpg"",""time"":2225.4000000059605},{""stimulus"":""run_exp/static/images/task_images/rocket-04.jpg"",""time"":3335.300000011921},{""stimulus"":""run_exp/static/images/task_images/rocket-05.jpg"",""time"":4447.70000000298},{""stimulus"":""run_exp/static/images/task_images/rocket-06.jpg"",""time"":5562.100000008941},{""stimulus"":""run_exp/static/images/task_images/rocket-07.jpg"",""time"":6671},{""stimulus"":""run_exp/static/images/task_images/rocket-08.jpg"",""time"":7779.800000011921},{""stimulus"":""run_exp/static/images/task_images/rocket-09.jpg"",""time"":8892.10000000894}]",[],0,,,,,,,,,,,,,,
instruc_alien_greet,15,133357,0.0-7.0-6.0,,null,run_exp/static/audio/clip_6_alien.m4a,null,"<p>When you arrive at a new planet, the alien who owns the treasure mine on that planet will greet you!</p><p>The better an alien takes care of their mine the easier it is to dig for gems. Some aliens take better care of their mine than others. So, you won’t get exactly the same amount of gems on each planet.</p><p>What the alien looks like does not tell you anything about how many gems there are on the planet.</p><br><p><img src=""run_exp/static/images/task_images/aliens/instructions_aliens/planet/alien_planet-1.jpg""  height=""600"" width=""auto""></p>",,,,,,,,,,,,,,,,,,,,,,
instruc_alien_greet,16,135323,0.0-7.0-7.0,,1962.6,"<p>When you arrive at a new planet, the alien who owns the treasure mine on that planet will greet you!</p><p>The better an alien takes care of their mine the easier it is to dig for gems. Some aliens take better care of their mine than others. So, you won’t get exactly the same amount of gems on each planet.</p><p>What the alien looks like does not tell you anything about how many gems there are on the planet.</p><br><p><img src=""run_exp/static/images/task_images/aliens/instructions_aliens/planet/alien_planet-1.jpg""  height=""600"" width=""auto""></p>",,,,,,1,,,,,,,,,,,,,,,,,,
html-keyboard-response,17,135712,0.0-7.0-8.0,,385.7,"<p>When you arrive at a new planet, the alien who owns the treasure mine on that planet will greet you!</p><p>The better an alien takes care of their mine the easier it is to dig for gems. Some aliens take better care of their mine than others. So, you won’t get exactly the same amount of gems on each planet.</p><p>What the alien looks like does not tell you anything about how many gems there are on the planet.</p><br><p><img src=""run_exp/static/images/task_images/aliens/instructions_aliens/planet/alien_planet-1.jpg""  height=""600"" width=""auto""></p><button class=""jspsych-html-btn-unchosen""><img src=""run_exp/static/images/task_images/planet-01.jpg"" height=""50""></button><button class=""jspsych-html-btn-chosen""><img src=""run_exp/static/images/task_images/planet-02.jpg"" height=""50""></button><p><b>[press the space bar to lock in your answer]<b><br></p>",32,,,,,,,,,,,,,,,,,,,,,,,
time_out,18,146849,0.0-8.0-0.0,,null,run_exp/static/audio/clip_7_timeout.m4a,null,"<p>If you don't make your choice fast enough, you’ll have to wait a few seconds before you can make another one.</p><p>You can’t dig for more gems or travel to new planets. You just have to sit and wait.</p><br><p><img src='run_exp/static/images/task_images/time_out.jpg'  height='600' width='auto'></p>",,,,,,,,,,,,,,,,,,,,,,
time_out,19,147961,0.0-8.0-1.0,,1109.6,"<p>If you don't make your choice fast enough, you’ll have to wait a few seconds before you can make another one.</p><p>You can’t dig for more gems or travel to new planets. You just have to sit and wait.</p><br><p><img src='run_exp/static/images/task_images/time_out.jpg'  height='600' width='auto'></p>",,,,,,1,,,,,,,,,,,,,,,,,,
html-keyboard-response,20,148051,0.0-8.0-2.0,,87.7,"<p>If you don't make your choice fast enough, you’ll have to wait a few seconds before you can make another one.</p><p>You can’t dig for more gems or travel to new planets. You just have to sit and wait.</p><br><p><img src='run_exp/static/images/task_images/time_out.jpg'  height='600' width='auto'></p><button class=""jspsych-html-btn-unchosen""><img src=""run_exp/static/images/task_images/planet-01.jpg"" height=""50""></button><button class=""jspsych-html-btn-chosen""><img src=""run_exp/static/images/task_images/planet-02.jpg"" height=""50""></button><p><b>[press the space bar to lock in your answer]<b><br></p>",32,,,,,,,,,,,,,,,,,,,,,,,
instruc_break,21,163730,0.0-9.0-0.0,,null,run_exp/static/audio/clip_8_break.m4a,null,"<p> After digging and traveling for a while, you’ll be able to take a break at home base. </p><p>The game will last 20 minutes no matter what.</p><p>You will visit home base every 5 minutes, so, you will visit home base three times during the game.</p><br><p><img src='run_exp/static/images/task_images/home_base.jpg' height='600' width='auto'></p>",,,,,,,,,,,,,,,,,,,,,,
instruc_break,22,164889,0.0-9.0-1.0,,1156.1,"<p> After digging and traveling for a while, you’ll be able to take a break at home base. </p><p>The game will last 20 minutes no matter what.</p><p>You will visit home base every 5 minutes, so, you will visit home base three times during the game.</p><br><p><img src='run_exp/static/images/task_images/home_base.jpg' height='600' width='auto'></p>",,,,,,1,,,,,,,,,,,,,,,,,,
html-keyboard-response,23,165235,0.0-9.0-2.0,,343.4,"<p> After digging and traveling for a while, you’ll be able to take a break at home base. </p><p>The game will last 20 minutes no matter what.</p><p>You will visit home base every 5 minutes, so, you will visit home base three times during the game.</p><br><p><img src='run_exp/static/images/task_images/home_base.jpg' height='600' width='auto'></p><button class=""jspsych-html-btn-unchosen""><img src=""run_exp/static/images/task_images/planet-01.jpg"" height=""50""></button><button class=""jspsych-html-btn-chosen""><img src=""run_exp/static/images/task_images/planet-02.jpg"" height=""50""></button><p><b>[press the space bar to lock in your answer]<b><br></p>",32,,,,,,,,,,,,,,,,,,,,,,,
instruc_prac_game,24,175387,0.0-10.0-0.0,,null,run_exp/static/audio/clip_9_practice.m4a,null,"<p> Are you ready to play a practice game? </p> <p>In this practice game, you'll be digging up barrels of gems. But, in the real game, you'll be digging up the gems themselves. </p>",,,,,,,,,,,,,,,,,,,,,,
html-button-response,25,176367,0.0-10.0-1.0,,978.1,"<p> Are you ready to play a practice game? </p> <p>In this practice game, you'll be digging up barrels of gems. But, in the real game, you'll be digging up the gems themselves. </p>",,,,,,0,,,,,,,,,,,,,,,,,,
alien_welcome_prac,26,181375,0.0-11.0-0.0,,null,run_exp/static/images/task_images/aliens/practice_aliens/planet/alien_planet-5.jpg,null,,,,,,,,,,,,,,,,,,,,,,,
land_prac,27,181879,0.0-11.0-1.0,,null,run_exp/static/images/task_images/land.jpg,null,,,,,,98,,,0,,,,,,,,,,,,,,
dig_prac,28,183885,0.0-11.0-2.0,,,,,,,,,,,"[{""stimulus"":""run_exp/static/images/task_images/dig.jpg"",""time"":0.3999999910593033},{""stimulus"":""run_exp/static/images/task_images/land.jpg"",""time"":673.3999999910593},{""stimulus"":""run_exp/static/images/task_images/dig.jpg"",""time"":1339}]",[],,,,,,,,,,,,,,,
harvest_prac,29,184887,0.0-11.0-3.0,,null,run_exp/static/images/task_images/barrel_text.jpg,null,,,,,,,,,,,,,,,,,,,,,,,
decision_prac,30,185926,0.0-11.0-4.0,,1037.4,run_exp/static/images/task_images/land.jpg,65,,,,,,,,,,1,,,,,,,,,,,,,
dig_prac,31,187935,0.0-12.0-0.0,,,,,,,,,,,"[{""stimulus"":""run_exp/static/images/task_images/dig.jpg"",""time"":0.29999999701976776},{""stimulus"":""run_exp/static/images/task_images/land.jpg"",""time"":671.0999999940395},{""stimulus"":""run_exp/static/images/task_images/dig.jpg"",""time"":1340.2999999970198}]",[],,,,,,,,,,,,,,,
harvest_prac,32,188941,0.0-12.0-1.0,,null,run_exp/static/images/task_images/barrel_text.jpg,null,,,,,,,,,,,,,,,,,,,,,,,
decision_prac,33,189406,0.0-12.0-2.0,,463.7,run_exp/static/images/task_images/land.jpg,65,,,,,,,,,,2,,,,,,,,,,,,,
dig_prac,34,191414,0.0-13.0-0.0,,,,,,,,,,,"[{""stimulus"":""run_exp/static/images/task_images/dig.jpg"",""time"":0.19999998807907104},{""stimulus"":""run_exp/static/images/task_images/land.jpg"",""time"":672.3999999910593},{""stimulus"":""run_exp/static/images/task_images/dig.jpg"",""time"":1339.0999999940395}]",[],,,,,,,,,,,,,,,
harvest_prac,35,192417,0.0-13.0-1.0,,null,run_exp/static/images/task_images/barrel_text.jpg,null,,,,,,,,,,,,,,,,,,,,,,,
decision_prac,36,192716,0.0-13.0-2.0,,298,run_exp/static/images/task_images/land.jpg,65,,,,,,,,,,3,,,,,,,,,,,,,
dig_prac,37,194728,0.0-14.0-0.0,,,,,,,,,,,"[{""stimulus"":""run_exp/static/images/task_images/dig.jpg"",""time"":0.3999999910593033},{""stimulus"":""run_exp/static/images/task_images/land.jpg"",""time"":673.5999999940395},{""stimulus"":""run_exp/static/images/task_images/dig.jpg"",""time"":1335.5999999940395}]",[],,,,,,,,,,,,,,,
harvest_prac,38,195734,0.0-14.0-1.0,,null,run_exp/static/images/task_images/barrel_text.jpg,null,,,,,,,,,,,,,,,,,,,,,,,
decision_prac,39,196096,0.0-14.0-2.0,,361,run_exp/static/images/task_images/land.jpg,65,,,,,,,,,,4,,,,,,,,,,,,,
dig_prac,40,198105,0.0-15.0-0.0,,,,,,,,,,,"[{""stimulus"":""run_exp/static/images/task_images/dig.jpg"",""time"":0.4000000059604645},{""stimulus"":""run_exp/static/images/task_images/land.jpg"",""time"":669.7999999970198},{""stimulus"":""run_exp/static/images/task_images/dig.jpg"",""time"":1340.2000000029802}]",[],,,,,,,,,,,,,,,
harvest_prac,41,199111,0.0-15.0-1.0,,null,run_exp/static/images/task_images/barrel_text.jpg,null,,,,,,,,,,,,,,,,,,,,,,,
decision_prac,42,199554,0.0-15.0-2.0,,442.4,run_exp/static/images/task_images/land.jpg,65,,,,,,,,,,,1,,,,,,,,,,,,
quiz_instruc,43,202606,0.0-16.0-0.0,,3047,run_exp/static/audio/clip_10_quiz.m4a,,,,,,0,,,,,,,,,,,,,,,,,,
instruc_repeat,44,245373,0.0-16.0-1.0,,null,"<p> Are you ready to play a practice game? </p> <p>In this practice game, you'll be digging up barrels of gems. But, in the real game, you'll be digging up the gems themselves. </p>",null,"<p>In this game, your goal is to collect as many gems as you can. That’s how you will win bonus money. </p> <p>The entire game will last 20 minutes no matter how many gems you collect or how many planets you visit. </p><p>To stay on a planet and dig again, press the letter A on your keyboard. To leave for a new planet, press the letter L.</p><p>The more you dig on a planet, the fewer gems you’ll get with each dig which is why you might consider leaving for a new planet. </p><p>When you arrive at a new planet, you’ll be greeted by an alien. What the alien looks like does not tell you anything about how much treasure is on the planet. </p>",,,,,,,,,,,,,,,,,,,,,,
instruc_repeat_continue,45,246506,0.0-16.0-2.0,,1130.3,"<p> Are you ready to play a practice game? </p> <p>In this practice game, you'll be digging up barrels of gems. But, in the real game, you'll be digging up the gems themselves. </p>",,,,,,0,,,,,,,,,,,,,,,,,,
quiz_q_1_ask,46,249549,0.0-16.0-3.0,,3040.8,run_exp/static/audio/clip_11_q1_ask.m4a,,,,,,2,,,,,,,,,,,,,,,,,,
quiz_q_1_fb_correct,47,253431,0.0-17.0-0.0,,null,run_exp/static/audio/clip_12_q1_corrrect.m4a,null,<p>That’s correct. You win extra money by collecting more gems.</p>,,,,,,,,,,,,,,,,,,,,,,
quiz_q_2_ask,48,255629,0.0-17.0-1.0,,2195.2,run_exp/static/audio/clip_14_q2_ask.m4a,,,,,,1,,,,,,,,,,,,,,,,,,
quiz_q_2_fb_correct,49,259677,0.0-18.0-0.0,,null,run_exp/static/audio/clip_15_q2_correct.m4a,null,<p>That’s correct. The experiment is 20 minutes no matter what.</p>,,,,,,,,,,,,,,,,,,,,,,
quiz_q_3_ask,50,261320,0.0-18.0-1.0,,1639.9,run_exp/static/audio/clip_17_q3_ask.m4a,,,,,,1,,,,,,,,,,,,,,,,,,
quiz_q_3_fb_correct,51,265320,0.0-19.0-0.0,,null,run_exp/static/audio/clip_18_q3_correct.m4a,null,<p> That’s correct. You press the letter L to travel to a new planet.</p>,,,,,,,,,,,,,,,,,,,,,,
quiz_q_4_ask,52,268693,0.0-19.0-1.0,,3371.3,run_exp/static/audio/clip_20_q4_ask.m4a,,,,,,0,,,,,,,,,,,,,,,,,,
quiz_q_4_fb_correct,53,274005,0.0-20.0-0.0,,null,run_exp/static/audio/clip_21_q4_correct.m4a,null,<p> That’s correct. The more you dig on a planet the fewer gems you’ll get with each dig. </p>,,,,,,,,,,,,,,,,,,,,,,
quiz_q_5_ask,54,275789,0.0-20.0-1.0,,1780.9,run_exp/static/audio/clip_23_q5_ask.m4a,,,,,,1,,,,,,,,,,,,,,,,,,
quiz_q_5_fb_correct,55,280808,0.0-21.0-0.0,,null,run_exp/static/audio/clip_24_q5_correct.m4a,null,<p> That’s correct. The alien tells you nothing about how much treasure is on the planet.</p>,,,,,,,,,,,,,,,,,,,,,,
quiz_correct,56,284268,0.0-22.0-0.0,,null,run_exp/static/audio/clip_26_correct_quiz.m4a,null,,,,,,,,,,,,,,,,,,,,,,,
quiz_correct_continue,57,284984,0.0-22.0-1.0,,712.7,<p>Good job! You're now ready to move on to the real game!</p>,,,,,,0,,,,,,,,,,,,,,,,,,
audio-keyboard-response,58,295137,0.0-22.0-2.0,,null,run_exp/static/audio/clip_28_real_game.m4a,null,,,,,,,,,,,,,,,,,,,,,,,
instruc_begin_exp_contine,59,296358,0.0-22.0-3.0,,1216.3,"<p>Now that you know how  to dig for space treasure and travel to new planets,you can start exploring! </p><p>Do you want to go over the instructions again or get started with the real game?</p>",,,,,,1,,,,,,1,,,,,,,,,,,,
alien_welcome,60,301365,0.0-23.0-0.0,,null,run_exp/static/images/task_images/aliens/old_aliens/planet/alien_planet-45.jpg,null,,,,,,,,,,,,45,"45,67,4,58,79,9,43,77,76,14,17,7,48,75,2,30,78,28,54,20,47,40,29,13,64,49,36,73,42,24,19,61",,,,,,,,,,
land,61,301869,0.0-23.0-1.0,,null,run_exp/static/images/task_images/land.jpg,null,,,,,,102,,,1,,,,,,,,,,,,,,
dig,62,303882,0.0-23.0-2.0,,,,,,,,,,,"[{""stimulus"":""run_exp/static/images/task_images/dig.jpg"",""time"":0.5},{""stimulus"":""run_exp/static/images/task_images/land.jpg"",""time"":672.3999999910593},{""stimulus"":""run_exp/static/images/task_images/dig.jpg"",""time"":1335.7999999970198}]",[],1,,,,,,,,,,,,,,
harvest,63,304888,0.0-23.0-3.0,,null,run_exp/static/images/task_images/gems/102.jpg,null,,,,,,15,,,1,,,,,102,0.149547168,0.147058824,,,,,,,
decision,64,305379,0.0-23.0-4.0,,487.8,run_exp/static/images/task_images/land.jpg,65,,,,,,15,,,1,,,,,,,,9018,1,0,FALSE,,,
dig,65,307903,0.0-24.0-0.0,,,,,,,,,,,"[{""stimulus"":""run_exp/static/images/task_images/dig.jpg"",""time"":0.30000001192092896},{""stimulus"":""run_exp/static/images/task_images/land.jpg"",""time"":840.1000000089407},{""stimulus"":""run_exp/static/images/task_images/dig.jpg"",""time"":1675.7000000029802}]",[],1,,,,,,,,,,,,,,
harvest,66,308905,0.0-24.0-1.0,,null,run_exp/static/images/task_images/gems/15.jpg,null,,,,,,2,,,1,,,,,15,0.162358803,0.133333333,,,,,,,
decision,67,309303,0.0-24.0-2.0,,396.5,run_exp/static/images/task_images/land.jpg,65,,,,,,2,,,1,,,,,,,,12943,1,1,FALSE,,,
dig,68,311911,0.0-25.0-0.0,,,,,,,,,,,"[{""stimulus"":""run_exp/static/images/task_images/dig.jpg"",""time"":0.4000000059604645},{""stimulus"":""run_exp/static/images/task_images/land.jpg"",""time"":869.1000000089407},{""stimulus"":""run_exp/static/images/task_images/dig.jpg"",""time"":1740.7000000029802}]",[],1,,,,,,,,,,,,,,
harvest,69,312918,0.0-25.0-1.0,,null,run_exp/static/images/task_images/gems/2.jpg,null,,,,,,0,,,1,,,,,2,0.248229676,0,,,,,,,
decision,70,314133,0.0-25.0-2.0,,1210.2,run_exp/static/images/task_images/land.jpg,76,,,,,,0,,,1,,,,,,,,17774,1,2,TRUE,,,
travel,71,322930,0.0-26.0-0.0,,,,,,,,,,,"[{""stimulus"":""run_exp/static/images/task_images/rocket-01.jpg"",""time"":0.30000001192092896},{""stimulus"":""run_exp/static/images/task_images/rocket-02.jpg"",""time"":982.6000000089407},{""stimulus"":""run_exp/static/images/task_images/rocket-03.jpg"",""time"":1955.6000000089407},{""stimulus"":""run_exp/static/images/task_images/rocket-04.jpg"",""time"":2932.2000000029802},{""stimulus"":""run_exp/static/images/task_images/rocket-05.jpg"",""time"":3910.6000000089407},{""stimulus"":""run_exp/static/images/task_images/rocket-06.jpg"",""time"":4886.5},{""stimulus"":""run_exp/static/images/task_images/rocket-07.jpg"",""time"":5861.800000011921},{""stimulus"":""run_exp/static/images/task_images/rocket-08.jpg"",""time"":6834.800000011921},{""stimulus"":""run_exp/static/images/task_images/rocket-09.jpg"",""time"":7813.800000011921}]",[],1,,,,,,,,,,,,,,
alien_welcome,72,327933,0.0-26.0-1.0,,null,run_exp/static/images/task_images/aliens/old_aliens/planet/alien_planet-67.jpg,null,,,,,,,,,,,,67,"45,67,4,58,79,9,43,77,76,14,17,7,48,75,2,30,78,28,54,20,47,40,29,13,64,49,36,73,42,24,19,61",,,,,,,,,,
land,73,328440,0.0-26.0-2.0,,null,run_exp/static/images/task_images/land.jpg,null,,,,,,106,,,2,,,,,,,,,,,,,,
dig,74,330449,0.0-26.0-3.0,,,,,,,,,,,"[{""stimulus"":""run_exp/static/images/task_images/dig.jpg"",""time"":0.5999999940395355},{""stimulus"":""run_exp/static/images/task_images/land.jpg"",""time"":672.5},{""stimulus"":""run_exp/static/images/task_images/dig.jpg"",""time"":1340.7000000029802}]",[],2,,,,,,,,,,,,,,
harvest,75,331452,0.0-26.0-4.0,,null,run_exp/static/images/task_images/gems/106.jpg,null,,,,,,24,,,2,,,,,106,0.227390001,0.226415094,,,,,,,
decision,76,331885,0.0-26.0-5.0,,430.7,run_exp/static/images/task_images/land.jpg,65,,,,,,24,,,2,,,,,,,,35524,1,0,FALSE,,,
dig,77,334464,0.0-27.0-0.0,,,,,,,,,,,"[{""stimulus"":""run_exp/static/images/task_images/dig.jpg"",""time"":0.29999999701976776},{""stimulus"":""run_exp/static/images/task_images/land.jpg"",""time"":861.0999999940395},{""stimulus"":""run_exp/static/images/task_images/dig.jpg"",""time"":1717.7000000029802}]",[],2,,,,,,,,,,,,,,
harvest,78,335468,0.0-27.0-1.0,,null,run_exp/static/images/task_images/gems/24.jpg,null,,,,,,7,,,2,,,,,24,0.286080945,0.291666667,,,,,,,
decision,79,336066,0.0-27.0-2.0,,591.7,run_exp/static/images/task_images/land.jpg,65,,,,,,7,,,2,,,,,,,,39706,1,1,FALSE,,,
dig,80,338502,0.0-28.0-0.0,,,,,,,,,,,"[{""stimulus"":""run_exp/static/images/task_images/dig.jpg"",""time"":0.20000000298023224},{""stimulus"":""run_exp/static/images/task_images/land.jpg"",""time"":805.8000000119209},{""stimulus"":""run_exp/static/images/task_images/dig.jpg"",""time"":1606}]",[],2,,,,,,,,,,,,,,
harvest,81,339505,0.0-28.0-1.0,,null,run_exp/static/images/task_images/gems/7.jpg,null,,,,,,1,,,2,,,,,7,0.139635787,0.142857143,,,,,,,
decision,82,341578,0.0-28.0-2.0,,2070.3,run_exp/static/images/task_images/land.jpg,76,,,,,,1,,,2,,,,,,,,45217,1,2,TRUE,,,
travel,83,349517,0.0-29.0-0.0,,,,,,,,,,,"[{""stimulus"":""run_exp/static/images/task_images/rocket-01.jpg"",""time"":0.20000000298023224},{""stimulus"":""run_exp/static/images/task_images/rocket-02.jpg"",""time"":884.5},{""stimulus"":""run_exp/static/images/task_images/rocket-03.jpg"",""time"":1768.6000000089407},{""stimulus"":""run_exp/static/images/task_images/rocket-04.jpg"",""time"":2646.1000000089407},{""stimulus"":""run_exp/static/images/task_images/rocket-05.jpg"",""time"":3526.7000000029802},{""stimulus"":""run_exp/static/images/task_images/rocket-06.jpg"",""time"":4406.70000000298},{""stimulus"":""run_exp/static/images/task_images/rocket-07.jpg"",""time"":5289.70000000298},{""stimulus"":""run_exp/static/images/task_images/rocket-08.jpg"",""time"":6168.800000011921},{""stimulus"":""run_exp/static/images/task_images/rocket-09.jpg"",""time"":7051}]",[],2,,,,,,,,,,,,,,
alien_welcome,84,354524,0.0-29.0-1.0,,null,run_exp/static/images/task_images/aliens/old_aliens/planet/alien_planet-4.jpg,null,,,,,,,,,,,,4,"45,67,4,58,79,9,43,77,76,14,17,7,48,75,2,30,78,28,54,20,47,40,29,13,64,49,36,73,42,24,19,61",,,,,,,,,,
land,85,355028,0.0-29.0-2.0,,null,run_exp/static/images/task_images/land.jpg,null,,,,,,101,,,3,,,,,,,,,,,,,,
dig,86,357038,0.0-29.0-3.0,,,,,,,,,,,"[{""stimulus"":""run_exp/static/images/task_images/dig.jpg"",""time"":0.4000000059604645},{""stimulus"":""run_exp/static/images/task_images/land.jpg"",""time"":669.1000000089407},{""stimulus"":""run_exp/static/images/task_images/dig.jpg"",""time"":1339.2000000029802}]",[],3,,,,,,,,,,,,,,
harvest,87,358039,0.0-29.0-4.0,,null,run_exp/static/images/task_images/gems/101.jpg,null,,,,,,56,,,3,,,,,101,0.557011698,0.554455446,,,,,,,
decision,88,358493,0.0-29.0-5.0,,453.2,run_exp/static/images/task_images/land.jpg,65,,,,,,56,,,3,,,,,,,,62132,1,0,FALSE,,,
dig,89,361042,0.0-30.0-0.0,,,,,,,,,,,"[{""stimulus"":""run_exp/static/images/task_images/dig.jpg"",""time"":0.20000000298023224},{""stimulus"":""run_exp/static/images/task_images/land.jpg"",""time"":854.1000000089407},{""stimulus"":""run_exp/static/images/task_images/dig.jpg"",""time"":1701.800000011921}]",[],3,,,,,,,,,,,,,,
harvest,90,362048,0.0-30.0-1.0,,null,run_exp/static/images/task_images/gems/56.jpg,null,,,,,,28,,,3,,,,,56,0.506955892,0.5,,,,,,,
decision,91,362369,0.0-30.0-2.0,,319.1,run_exp/static/images/task_images/land.jpg,65,,,,,,28,,,3,,,,,,,,66008,1,1,FALSE,,,
dig,92,365059,0.0-31.0-0.0,,,,,,,,,,,"[{""stimulus"":""run_exp/static/images/task_images/dig.jpg"",""time"":0.20000000298023224},{""stimulus"":""run_exp/static/images/task_images/land.jpg"",""time"":897.2000000029802},{""stimulus"":""run_exp/static/images/task_images/dig.jpg"",""time"":1791.8999999910593}]",[],3,,,,,,,,,,,,,,
harvest,93,366065,0.0-31.0-1.0,,null,run_exp/static/images/task_images/gems/28.jpg,null,,,,,,12,,,3,,,,,28,0.445752398,0.428571429,,,,,,,
decision,94,366425,0.0-31.0-2.0,,357.7,run_exp/static/images/task_images/land.jpg,65,,,,,,12,,,3,,,,,,,,70064,1,2,FALSE,,,
dig,95,369071,0.0-32.0-0.0,,,,,,,,,,,"[{""stimulus"":""run_exp/static/images/task_images/dig.jpg"",""time"":0.4000000059604645},{""stimulus"":""run_exp/static/images/task_images/land.jpg"",""time"":881.5},{""stimulus"":""run_exp/static/images/task_images/dig.jpg"",""time"":1766.2000000029802}]",[],3,,,,,,,,,,,,,,
harvest,96,370078,0.0-32.0-1.0,,null,run_exp/static/images/task_images/gems/12.jpg,null,,,,,,6,,,3,,,,,12,0.485189113,0.5,,,,,,,
decision,97,370410,0.0-32.0-2.0,,330.7,run_exp/static/images/task_images/land.jpg,65,,,,,,6,,,3,,,,,,,,74049,1,3,FALSE,,,
dig,98,373085,0.0-33.0-0.0,,,,,,,,,,,"[{""stimulus"":""run_exp/static/images/task_images/dig.jpg"",""time"":0.29999999701976776},{""stimulus"":""run_exp/static/images/task_images/land.jpg"",""time"":892.5},{""stimulus"":""run_exp/static/images/task_images/dig.jpg"",""time"":1783.2999999970198}]",[],3,,,,,,,,,,,,,,
harvest,99,374090,0.0-33.0-1.0,,null,run_exp/static/images/task_images/gems/6.jpg,null,,,,,,3,,,3,,,,,6,0.534829716,0.5,,,,,,,
decision,100,375010,0.0-33.0-2.0,,919.1,run_exp/static/images/task_images/land.jpg,76,,,,,,3,,,3,,,,,,,,78650,1,4,TRUE,,,
travel,101,384091,0.0-34.0-0.0,,,,,,,,,,,"[{""stimulus"":""run_exp/static/images/task_images/rocket-01.jpg"",""time"":0.29999999701976776},{""stimulus"":""run_exp/static/images/task_images/rocket-02.jpg"",""time"":1009.6000000089407},{""stimulus"":""run_exp/static/images/task_images/rocket-03.jpg"",""time"":2018},{""stimulus"":""run_exp/static/images/task_images/rocket-04.jpg"",""time"":3026.1000000089407},{""stimulus"":""run_exp/static/images/task_images/rocket-05.jpg"",""time"":4035.7999999970198},{""stimulus"":""run_exp/static/images/task_images/rocket-06.jpg"",""time"":5043.20000000298},{""stimulus"":""run_exp/static/images/task_images/rocket-07.jpg"",""time"":6053.4000000059605},{""stimulus"":""run_exp/static/images/task_images/rocket-08.jpg"",""time"":7058.29999999702},{""stimulus"":""run_exp/static/images/task_images/rocket-09.jpg"",""time"":8070.20000000298}]",[],3,,,,,,,,,,,,,,
alien_welcome,102,389095,0.0-34.0-1.0,,null,run_exp/static/images/task_images/aliens/old_aliens/planet/alien_planet-58.jpg,null,,,,,,,,,,,,58,"45,67,4,58,79,9,43,77,76,14,17,7,48,75,2,30,78,28,54,20,47,40,29,13,64,49,36,73,42,24,19,61",,,,,,,,,,
land,103,389598,0.0-34.0-2.0,,null,run_exp/static/images/task_images/land.jpg,null,,,,,,97,,,4,,,,,,,,,,,,,,
dig,104,391602,0.0-34.0-3.0,,,,,,,,,,,"[{""stimulus"":""run_exp/static/images/task_images/dig.jpg"",""time"":0.3999999910593033},{""stimulus"":""run_exp/static/images/task_images/land.jpg"",""time"":669.3999999910593},{""stimulus"":""run_exp/static/images/task_images/dig.jpg"",""time"":1335.5999999940395}]",[],4,,,,,,,,,,,,,,
harvest,105,392605,0.0-34.0-4.0,,null,run_exp/static/images/task_images/gems/97.jpg,null,,,,,,56,,,4,,,,,97,0.580420572,0.577319588,,,,,,,
decision,106,393046,0.0-34.0-5.0,,438.4,run_exp/static/images/task_images/land.jpg,65,,,,,,56,,,4,,,,,,,,96685,1,0,FALSE,,,
dig,107,395615,0.0-35.0-0.0,,,,,,,,,,,"[{""stimulus"":""run_exp/static/images/task_images/dig.jpg"",""time"":0.29999999701976776},{""stimulus"":""run_exp/static/images/task_images/land.jpg"",""time"":855.5999999940395},{""stimulus"":""run_exp/static/images/task_images/dig.jpg"",""time"":1710.7999999970198}]",[],4,,,,,,,,,,,,,,
harvest,108,396617,0.0-35.0-1.0,,null,run_exp/static/images/task_images/gems/56.jpg,null,,,,,,27,,,4,,,,,56,0.475996848,0.482142857,,,,,,,
decision,109,397075,0.0-35.0-2.0,,455.7,run_exp/static/images/task_images/land.jpg,65,,,,,,27,,,4,,,,,,,,100714,1,1,FALSE,,,
dig,110,399627,0.0-36.0-0.0,,,,,,,,,,,"[{""stimulus"":""run_exp/static/images/task_images/dig.jpg"",""time"":0.29999999701976776},{""stimulus"":""run_exp/static/images/task_images/land.jpg"",""time"":851.5},{""stimulus"":""run_exp/static/images/task_images/dig.jpg"",""time"":1698.5}]",[],4,,,,,,,,,,,,,,
harvest,111,400632,0.0-36.0-1.0,,null,run_exp/static/images/task_images/gems/27.jpg,null,,,,,,13,,,4,,,,,27,0.481194192,0.481481481,,,,,,,
decision,112,400965,0.0-36.0-2.0,,331,run_exp/static/images/task_images/land.jpg,65,,,,,,13,,,4,,,,,,,,104605,1,2,FALSE,,,
dig,113,403643,0.0-37.0-0.0,,,,,,,,,,,"[{""stimulus"":""run_exp/static/images/task_images/dig.jpg"",""time"":0.29999999701976776},{""stimulus"":""run_exp/static/images/task_images/land.jpg"",""time"":893.2000000029802},{""stimulus"":""run_exp/static/images/task_images/dig.jpg"",""time"":1783.4000000059605}]",[],4,,,,,,,,,,,,,,
harvest,114,404647,0.0-37.0-1.0,,null,run_exp/static/images/task_images/gems/13.jpg,null,,,,,,6,,,4,,,,,13,0.483277105,0.461538462,,,,,,,
decision,115,405249,0.0-37.0-2.0,,599.2,run_exp/static/images/task_images/land.jpg,76,,,,,,6,,,4,,,,,,,,108888,1,3,TRUE,,,
travel,116,414654,0.0-38.0-0.0,,,,,,,,,,,"[{""stimulus"":""run_exp/static/images/task_images/rocket-01.jpg"",""time"":0.29999999701976776},{""stimulus"":""run_exp/static/images/task_images/rocket-02.jpg"",""time"":1047.5999999940395},{""stimulus"":""run_exp/static/images/task_images/rocket-03.jpg"",""time"":2094.5},{""stimulus"":""run_exp/static/images/task_images/rocket-04.jpg"",""time"":3133.8999999910593},{""stimulus"":""run_exp/static/images/task_images/rocket-05.jpg"",""time"":4182.399999991059},{""stimulus"":""run_exp/static/images/task_images/rocket-06.jpg"",""time"":5221.899999991059},{""stimulus"":""run_exp/static/images/task_images/rocket-07.jpg"",""time"":6265.5},{""stimulus"":""run_exp/static/images/task_images/rocket-08.jpg"",""time"":7314.20000000298},{""stimulus"":""run_exp/static/images/task_images/rocket-09.jpg"",""time"":8358.09999999404}]",[],4,,,,,,,,,,,,,,
alien_welcome,117,419658,0.0-38.0-1.0,,null,run_exp/static/images/task_images/aliens/old_aliens/planet/alien_planet-79.jpg,null,,,,,,,,,,,,79,"45,67,4,58,79,9,43,77,76,14,17,7,48,75,2,30,78,28,54,20,47,40,29,13,64,49,36,73,42,24,19,61",,,,,,,,,,
land,118,420164,0.0-38.0-2.0,,null,run_exp/static/images/task_images/land.jpg,null,,,,,,105,,,5,,,,,,,,,,,,,,
dig,119,422172,0.0-38.0-3.0,,,,,,,,,,,"[{""stimulus"":""run_exp/static/images/task_images/dig.jpg"",""time"":0.5},{""stimulus"":""run_exp/static/images/task_images/land.jpg"",""time"":669.4000000059605},{""stimulus"":""run_exp/static/images/task_images/dig.jpg"",""time"":1340.2000000029802}]",[],5,,,,,,,,,,,,,,
harvest,120,423173,0.0-38.0-4.0,,null,run_exp/static/images/task_images/gems/105.jpg,null,,,,,,50,,,5,,,,,105,0.479635813,0.476190476,,,,,,,
decision,121,423489,0.0-38.0-5.0,,313.7,run_exp/static/images/task_images/land.jpg,65,,,,,,50,,,5,,,,,,,,127128,1,0,FALSE,,,
dig,122,426182,0.0-39.0-0.0,,,,,,,,,,,"[{""stimulus"":""run_exp/static/images/task_images/dig.jpg"",""time"":0.4000000059604645},{""stimulus"":""run_exp/static/images/task_images/land.jpg"",""time"":896.7000000029802},{""stimulus"":""run_exp/static/images/task_images/dig.jpg"",""time"":1794.7999999970198}]",[],5,,,,,,,,,,,,,,
harvest,123,427188,0.0-39.0-1.0,,null,run_exp/static/images/task_images/gems/50.jpg,null,,,,,,26,,,5,,,,,50,0.52579679,0.52,,,,,,,
decision,124,427407,0.0-39.0-2.0,,217.1,run_exp/static/images/task_images/land.jpg,65,,,,,,26,,,5,,,,,,,,131046,1,1,FALSE,,,
dig,125,430197,0.0-40.0-0.0,,,,,,,,,,,"[{""stimulus"":""run_exp/static/images/task_images/dig.jpg"",""time"":0.20000000298023224},{""stimulus"":""run_exp/static/images/task_images/land.jpg"",""time"":933.2000000029802},{""stimulus"":""run_exp/static/images/task_images/dig.jpg"",""time"":1857}]",[],5,,,,,,,,,,,,,,
harvest,126,431199,0.0-40.0-1.0,,null,run_exp/static/images/task_images/gems/26.jpg,null,,,,,,14,,,5,,,,,26,0.521978791,0.538461538,,,,,,,
decision,127,431517,0.0-40.0-2.0,,315.8,run_exp/static/images/task_images/land.jpg,65,,,,,,14,,,5,,,,,,,,135156,1,2,FALSE,,,
dig,128,434210,0.0-41.0-0.0,,,,,,,,,,,"[{""stimulus"":""run_exp/static/images/task_images/dig.jpg"",""time"":0.29999999701976776},{""stimulus"":""run_exp/static/images/task_images/land.jpg"",""time"":895.5},{""stimulus"":""run_exp/static/images/task_images/dig.jpg"",""time"":1791.8999999910593}]",[],5,,,,,,,,,,,,,,
harvest,129,435212,0.0-41.0-1.0,,null,run_exp/static/images/task_images/gems/14.jpg,null,,,,,,8,,,5,,,,,14,0.557318722,0.571428571,,,,,,,
decision,130,435880,0.0-41.0-2.0,,666.6,run_exp/static/images/task_images/land.jpg,76,,,,,,8,,,5,,,,,,,,139519,1,3,TRUE,,,
travel,131,445222,0.0-42.0-0.0,,,,,,,,,,,"[{""stimulus"":""run_exp/static/images/task_images/rocket-01.jpg"",""time"":0.29999999701976776},{""stimulus"":""run_exp/static/images/task_images/rocket-02.jpg"",""time"":1042.7999999970198},{""stimulus"":""run_exp/static/images/task_images/rocket-03.jpg"",""time"":2079.2999999970198},{""stimulus"":""run_exp/static/images/task_images/rocket-04.jpg"",""time"":3116.199999988079},{""stimulus"":""run_exp/static/images/task_images/rocket-05.jpg"",""time"":4154.5},{""stimulus"":""run_exp/static/images/task_images/rocket-06.jpg"",""time"":5190.699999988079},{""stimulus"":""run_exp/static/images/task_images/rocket-07.jpg"",""time"":6226.899999991059},{""stimulus"":""run_exp/static/images/task_images/rocket-08.jpg"",""time"":7262.29999999702},{""stimulus"":""run_exp/static/images/task_images/rocket-09.jpg"",""time"":8300.39999999106}]",[],5,,,,,,,,,,,,,,
alien_welcome,132,450225,0.0-42.0-1.0,,null,run_exp/static/images/task_images/aliens/old_aliens/planet/alien_planet-9.jpg,null,,,,,,,,,,,,9,"45,67,4,58,79,9,43,77,76,14,17,7,48,75,2,30,78,28,54,20,47,40,29,13,64,49,36,73,42,24,19,61",,,,,,,,,,
land,133,450728,0.0-42.0-2.0,,null,run_exp/static/images/task_images/land.jpg,null,,,,,,96,,,6,,,,,,,,,,,,,,
dig,134,452733,0.0-42.0-3.0,,,,,,,,,,,"[{""stimulus"":""run_exp/static/images/task_images/dig.jpg"",""time"":0.4000000059604645},{""stimulus"":""run_exp/static/images/task_images/land.jpg"",""time"":671.3000000119209},{""stimulus"":""run_exp/static/images/task_images/dig.jpg"",""time"":1338.5}]",[],6,,,,,,,,,,,,,,
harvest,135,453740,0.0-42.0-4.0,,null,run_exp/static/images/task_images/gems/96.jpg,null,,,,,,68,,,6,,,,,96,0.711609073,0.708333333,,,,,,,
decision,136,454122,0.0-42.0-5.0,,380.4,run_exp/static/images/task_images/land.jpg,65,,,,,,68,,,6,,,,,,,,157761,1,0,FALSE,,,
dig,137,456750,0.0-43.0-0.0,,,,,,,,,,,"[{""stimulus"":""run_exp/static/images/task_images/dig.jpg"",""time"":0.20000000298023224},{""stimulus"":""run_exp/static/images/task_images/land.jpg"",""time"":875.2999999970198},{""stimulus"":""run_exp/static/images/task_images/dig.jpg"",""time"":1749.9000000059605}]",[],6,,,,,,,,,,,,,,
harvest,138,457754,0.0-43.0-1.0,,null,run_exp/static/images/task_images/gems/68.jpg,null,,,,,,55,,,6,,,,,68,0.813926448,0.808823529,,,,,,,
decision,139,458232,0.0-43.0-2.0,,476.7,run_exp/static/images/task_images/land.jpg,65,,,,,,55,,,6,,,,,,,,161871,1,1,FALSE,,,
dig,140,460763,0.0-44.0-0.0,,,,,,,,,,,"[{""stimulus"":""run_exp/static/images/task_images/dig.jpg"",""time"":0.09999999403953552},{""stimulus"":""run_exp/static/images/task_images/land.jpg"",""time"":847.2999999970198},{""stimulus"":""run_exp/static/images/task_images/dig.jpg"",""time"":1684.3999999910593}]",[],6,,,,,,,,,,,,,,
harvest,141,461766,0.0-44.0-1.0,,null,run_exp/static/images/task_images/gems/55.jpg,null,,,,,,46,,,6,,,,,55,0.837827204,0.836363636,,,,,,,
decision,142,462045,0.0-44.0-2.0,,277.4,run_exp/static/images/task_images/land.jpg,65,,,,,,46,,,6,,,,,,,,165684,1,2,FALSE,,,
dig,143,464778,0.0-45.0-0.0,,,,,,,,,,,"[{""stimulus"":""run_exp/static/images/task_images/dig.jpg"",""time"":0.3999999910593033},{""stimulus"":""run_exp/static/images/task_images/land.jpg"",""time"":909.0999999940395},{""stimulus"":""run_exp/static/images/task_images/dig.jpg"",""time"":1818.5999999940395}]",[],6,,,,,,,,,,,,,,
harvest,144,465783,0.0-45.0-1.0,,null,run_exp/static/images/task_images/gems/46.jpg,null,,,,,,36,,,6,,,,,46,0.779576398,0.782608696,,,,,,,
decision,145,466724,0.0-45.0-2.0,,939.3,run_exp/static/images/task_images/land.jpg,65,,,,,,36,,,6,,,,,,,,170363,1,3,FALSE,,,
dig,146,468793,0.0-46.0-0.0,,,,,,,,,,,"[{""stimulus"":""run_exp/static/images/task_images/dig.jpg"",""time"":0.30000001192092896},{""stimulus"":""run_exp/static/images/task_images/land.jpg"",""time"":688.8000000119209},{""stimulus"":""run_exp/static/images/task_images/dig.jpg"",""time"":1375.5}]",[],6,,,,,,,,,,,,,,
harvest,147,469798,0.0-46.0-1.0,,null,run_exp/static/images/task_images/gems/36.jpg,null,,,,,,30,,,6,,,,,36,0.830828725,0.833333333,,,,,,,
decision,148,470299,0.0-46.0-2.0,,498.7,run_exp/static/images/task_images/land.jpg,65,,,,,,30,,,6,,,,,,,,173938,1,4,FALSE,,,
dig,149,472805,0.0-47.0-0.0,,,,,,,,,,,"[{""stimulus"":""run_exp/static/images/task_images/dig.jpg"",""time"":0.19999998807907104},{""stimulus"":""run_exp/static/images/task_images/land.jpg"",""time"":837.2999999970198},{""stimulus"":""run_exp/static/images/task_images/dig.jpg"",""time"":1668.199999988079}]",[],6,,,,,,,,,,,,,,
harvest,150,473811,0.0-47.0-1.0,,null,run_exp/static/images/task_images/gems/30.jpg,null,,,,,,25,,,6,,,,,30,0.823553343,0.833333333,,,,,,,
decision,151,474138,0.0-47.0-2.0,,324.7,run_exp/static/images/task_images/land.jpg,65,,,,,,25,,,6,,,,,,,,177777,1,5,FALSE,,,
dig,152,476822,0.0-48.0-0.0,,,,,,,,,,,"[{""stimulus"":""run_exp/static/images/task_images/dig.jpg"",""time"":0.5999999940395355},{""stimulus"":""run_exp/static/images/task_images/land.jpg"",""time"":898.0999999940395},{""stimulus"":""run_exp/static/images/task_images/dig.jpg"",""time"":1787.4000000059605}]",[],6,,,,,,,,,,,,,,
harvest,153,477825,0.0-48.0-1.0,,null,run_exp/static/images/task_images/gems/25.jpg,null,,,,,,21,,,6,,,,,25,0.824205732,0.84,,,,,,,
decision,154,478096,0.0-48.0-2.0,,269,run_exp/static/images/task_images/land.jpg,65,,,,,,21,,,6,,,,,,,,181735,1,6,FALSE,,,
dig,155,480834,0.0-49.0-0.0,,,,,,,,,,,"[{""stimulus"":""run_exp/static/images/task_images/dig.jpg"",""time"":0.29999999701976776},{""stimulus"":""run_exp/static/images/task_images/land.jpg"",""time"":913.5},{""stimulus"":""run_exp/static/images/task_images/dig.jpg"",""time"":1822.3999999910593}]",[],6,,,,,,,,,,,,,,
harvest,156,481836,0.0-49.0-1.0,,null,run_exp/static/images/task_images/gems/21.jpg,null,,,,,,18,,,6,,,,,21,0.865778748,0.857142857,,,,,,,
decision,157,482044,0.0-49.0-2.0,,204.3,run_exp/static/images/task_images/land.jpg,65,,,,,,18,,,6,,,,,,,,185683,1,7,FALSE,,,
dig,158,484847,0.0-50.0-0.0,,,,,,,,,,,"[{""stimulus"":""run_exp/static/images/task_images/dig.jpg"",""time"":0.4000000059604645},{""stimulus"":""run_exp/static/images/task_images/land.jpg"",""time"":932.6000000089407},{""stimulus"":""run_exp/static/images/task_images/dig.jpg"",""time"":1865.5}]",[],6,,,,,,,,,,,,,,
harvest,159,485852,0.0-50.0-1.0,,null,run_exp/static/images/task_images/gems/18.jpg,null,,,,,,14,,,6,,,,,18,0.779531284,0.777777778,,,,,,,
decision,160,486136,0.0-50.0-2.0,,281.6,run_exp/static/images/task_images/land.jpg,76,,,,,,14,,,6,,,,,,,,189775,1,8,TRUE,,,
travel,161,495854,0.0-51.0-0.0,,,,,,,,,,,"[{""stimulus"":""run_exp/static/images/task_images/rocket-01.jpg"",""time"":0.29999999701976776},{""stimulus"":""run_exp/static/images/task_images/rocket-02.jpg"",""time"":1080.3999999910593},{""stimulus"":""run_exp/static/images/task_images/rocket-03.jpg"",""time"":2163.2999999970198},{""stimulus"":""run_exp/static/images/task_images/rocket-04.jpg"",""time"":3243.5999999940395},{""stimulus"":""run_exp/static/images/task_images/rocket-05.jpg"",""time"":4317.5},{""stimulus"":""run_exp/static/images/task_images/rocket-06.jpg"",""time"":5397.29999999702},{""stimulus"":""run_exp/static/images/task_images/rocket-07.jpg"",""time"":6477.899999991059},{""stimulus"":""run_exp/static/images/task_images/rocket-08.jpg"",""time"":7555.399999991059},{""stimulus"":""run_exp/static/images/task_images/rocket-09.jpg"",""time"":8637.699999988079}]",[],6,,,,,,,,,,,,,,
alien_welcome,162,500858,0.0-51.0-1.0,,null,run_exp/static/images/task_images/aliens/old_aliens/planet/alien_planet-43.jpg,null,,,,,,,,,,,,43,"45,67,4,58,79,9,43,77,76,14,17,7,48,75,2,30,78,28,54,20,47,40,29,13,64,49,36,73,42,24,19,61",,,,,,,,,,
land,163,501360,0.0-51.0-2.0,,null,run_exp/static/images/task_images/land.jpg,null,,,,,,107,,,7,,,,,,,,,,,,,,
dig,164,503370,0.0-51.0-3.0,,,,,,,,,,,"[{""stimulus"":""run_exp/static/images/task_images/dig.jpg"",""time"":0.5999999940395355},{""stimulus"":""run_exp/static/images/task_images/land.jpg"",""time"":668.8999999910593},{""stimulus"":""run_exp/static/images/task_images/dig.jpg"",""time"":1336.8999999910593}]",[],7,,,,,,,,,,,,,,
harvest,165,504374,0.0-51.0-4.0,,null,run_exp/static/images/task_images/gems/107.jpg,null,,,,,,90,,,7,,,,,107,0.845632464,0.841121495,,,,,,,
decision,166,504726,0.0-51.0-5.0,,349.6,run_exp/static/images/task_images/land.jpg,65,,,,,,90,,,7,,,,,,,,208365,1,0,FALSE,,,
dig,167,507384,0.0-52.0-0.0,,,,,,,,,,,"[{""stimulus"":""run_exp/static/images/task_images/dig.jpg"",""time"":0.29999999701976776},{""stimulus"":""run_exp/static/images/task_images/land.jpg"",""time"":885.2999999970198},{""stimulus"":""run_exp/static/images/task_images/dig.jpg"",""time"":1770.2000000029802}]",[],7,,,,,,,,,,,,,,
harvest,168,508386,0.0-52.0-1.0,,null,run_exp/static/images/task_images/gems/90.jpg,null,,,,,,72,,,7,,,,,90,0.795016133,0.8,,,,,,,
decision,169,508703,0.0-52.0-2.0,,315.2,run_exp/static/images/task_images/land.jpg,65,,,,,,72,,,7,,,,,,,,212342,1,1,FALSE,,,
dig,170,511396,0.0-53.0-0.0,,,,,,,,,,,"[{""stimulus"":""run_exp/static/images/task_images/dig.jpg"",""time"":0.29999999701976776},{""stimulus"":""run_exp/static/images/task_images/land.jpg"",""time"":896.7000000029802},{""stimulus"":""run_exp/static/images/task_images/dig.jpg"",""time"":1792.0999999940395}]",[],7,,,,,,,,,,,,,,
harvest,171,512398,0.0-53.0-1.0,,null,run_exp/static/images/task_images/gems/72.jpg,null,,,,,,55,,,7,,,,,72,0.762668686,0.763888889,,,,,,,
decision,172,512413,0.0-53.0-2.0,,11.90000001,run_exp/static/images/task_images/land.jpg,65,,,,,,55,,,7,,,,,,,,216052,1,2,FALSE,,,
dig,173,515412,0.0-54.0-0.0,,,,,,,,,,,"[{""stimulus"":""run_exp/static/images/task_images/dig.jpg"",""time"":0.30000001192092896},{""stimulus"":""run_exp/static/images/task_images/land.jpg"",""time"":1000},{""stimulus"":""run_exp/static/images/task_images/dig.jpg"",""time"":1995.7000000029802}]",[],7,,,,,,,,,,,,,,
harvest,174,516416,0.0-54.0-1.0,,null,run_exp/static/images/task_images/gems/55.jpg,null,,,,,,46,,,7,,,,,55,0.839239295,0.836363636,,,,,,,
decision,175,516655,0.0-54.0-2.0,,237.4,run_exp/static/images/task_images/land.jpg,65,,,,,,46,,,7,,,,,,,,220294,1,3,FALSE,,,
dig,176,519422,0.0-55.0-0.0,,,,,,,,,,,"[{""stimulus"":""run_exp/static/images/task_images/dig.jpg"",""time"":0.4000000059604645},{""stimulus"":""run_exp/static/images/task_images/land.jpg"",""time"":922},{""stimulus"":""run_exp/static/images/task_images/dig.jpg"",""time"":1842.9000000059605}]",[],7,,,,,,,,,,,,,,
harvest,177,520426,0.0-55.0-1.0,,null,run_exp/static/images/task_images/gems/46.jpg,null,,,,,,38,,,7,,,,,46,0.820167034,0.826086957,,,,,,,
decision,178,520647,0.0-55.0-2.0,,218.7,run_exp/static/images/task_images/land.jpg,65,,,,,,38,,,7,,,,,,,,224286,1,4,FALSE,,,
dig,179,523440,0.0-56.0-0.0,,,,,,,,,,,"[{""stimulus"":""run_exp/static/images/task_images/dig.jpg"",""time"":0.3999999910593033},{""stimulus"":""run_exp/static/images/task_images/land.jpg"",""time"":930.2000000029802},{""stimulus"":""run_exp/static/images/task_images/dig.jpg"",""time"":1858.7999999970198}]",[],7,,,,,,,,,,,,,,
harvest,180,524446,0.0-56.0-1.0,,null,run_exp/static/images/task_images/gems/38.jpg,null,,,,,,30,,,7,,,,,38,0.80243025,0.789473684,,,,,,,
decision,181,524779,0.0-56.0-2.0,,330.7,run_exp/static/images/task_images/land.jpg,65,,,,,,30,,,7,,,,,,,,228418,1,5,FALSE,,,
dig,182,527457,0.0-57.0-0.0,,,,,,,,,,,"[{""stimulus"":""run_exp/static/images/task_images/dig.jpg"",""time"":0.29999999701976776},{""stimulus"":""run_exp/static/images/task_images/land.jpg"",""time"":890.5999999940395},{""stimulus"":""run_exp/static/images/task_images/dig.jpg"",""time"":1782.0999999940395}]",[],7,,,,,,,,,,,,,,
harvest,183,528464,0.0-57.0-1.0,,null,run_exp/static/images/task_images/gems/30.jpg,null,,,,,,26,,,7,,,,,30,0.86563469,0.866666667,,,,,,,
decision,184,528871,0.0-57.0-2.0,,405.2,run_exp/static/images/task_images/land.jpg,65,,,,,,26,,,7,,,,,,,,232510,1,6,FALSE,,,
dig,185,531474,0.0-58.0-0.0,,,,,,,,,,,"[{""stimulus"":""run_exp/static/images/task_images/dig.jpg"",""time"":0.29999999701976776},{""stimulus"":""run_exp/static/images/task_images/land.jpg"",""time"":869.4000000059605},{""stimulus"":""run_exp/static/images/task_images/dig.jpg"",""time"":1733.1000000089407}]",[],7,,,,,,,,,,,,,,
harvest,186,532479,0.0-58.0-1.0,,null,run_exp/static/images/task_images/gems/26.jpg,null,,,,,,23,,,7,,,,,26,0.895408202,0.884615385,,,,,,,
decision,187,532908,0.0-58.0-2.0,,427.5,run_exp/static/images/task_images/land.jpg,65,,,,,,23,,,7,,,,,,,,236547,1,7,FALSE,,,
dig,188,535488,0.0-59.0-0.0,,,,,,,,,,,"[{""stimulus"":""run_exp/static/images/task_images/dig.jpg"",""time"":0.29999999701976776},{""stimulus"":""run_exp/static/images/task_images/land.jpg"",""time"":860.4000000059605},{""stimulus"":""run_exp/static/images/task_images/dig.jpg"",""time"":1720.1000000089407}]",[],7,,,,,,,,,,,,,,
harvest,189,536490,0.0-59.0-1.0,,null,run_exp/static/images/task_images/gems/23.jpg,null,,,,,,20,,,7,,,,,23,0.885482168,0.869565217,,,,,,,
decision,190,537639,0.0-59.0-2.0,,1147.6,run_exp/static/images/task_images/land.jpg,65,,,,,,20,,,7,,,,,,,,241278,1,8,FALSE,,,
dig,191,539499,0.0-60.0-0.0,,,,,,,,,,,"[{""stimulus"":""run_exp/static/images/task_images/dig.jpg"",""time"":0.4000000059604645},{""stimulus"":""run_exp/static/images/task_images/land.jpg"",""time"":622.4000000059605},{""stimulus"":""run_exp/static/images/task_images/dig.jpg"",""time"":1237.7999999970198}]",[],7,,,,,,,,,,,,,,
harvest,192,540503,0.0-60.0-1.0,,null,run_exp/static/images/task_images/gems/20.jpg,null,,,,,,17,,,7,,,,,20,0.828891637,0.85,,,,,,,
decision,193,540841,0.0-60.0-2.0,,336.1,run_exp/static/images/task_images/land.jpg,65,,,,,,17,,,7,,,,,,,,244480,1,9,FALSE,,,
dig,194,543511,0.0-61.0-0.0,,,,,,,,,,,"[{""stimulus"":""run_exp/static/images/task_images/dig.jpg"",""time"":0.29999999701976776},{""stimulus"":""run_exp/static/images/task_images/land.jpg"",""time"":890.2999999970198},{""stimulus"":""run_exp/static/images/task_images/dig.jpg"",""time"":1775.7999999970198}]",[],7,,,,,,,,,,,,,,
harvest,195,544518,0.0-61.0-1.0,,null,run_exp/static/images/task_images/gems/17.jpg,null,,,,,,14,,,7,,,,,17,0.806932759,0.823529412,,,,,,,
decision,196,544628,0.0-61.0-2.0,,107.8,run_exp/static/images/task_images/land.jpg,76,,,,,,14,,,7,,,,,,,,248267,1,10,TRUE,,,
travel,197,554530,0.0-62.0-0.0,,,,,,,,,,,"[{""stimulus"":""run_exp/static/images/task_images/rocket-01.jpg"",""time"":0.20000000298023224},{""stimulus"":""run_exp/static/images/task_images/rocket-02.jpg"",""time"":1105.4000000059605},{""stimulus"":""run_exp/static/images/task_images/rocket-03.jpg"",""time"":2200.300000011921},{""stimulus"":""run_exp/static/images/task_images/rocket-04.jpg"",""time"":3299.4000000059605},{""stimulus"":""run_exp/static/images/task_images/rocket-05.jpg"",""time"":4402.5},{""stimulus"":""run_exp/static/images/task_images/rocket-06.jpg"",""time"":5501.5},{""stimulus"":""run_exp/static/images/task_images/rocket-07.jpg"",""time"":6597.70000000298},{""stimulus"":""run_exp/static/images/task_images/rocket-08.jpg"",""time"":7698.100000008941},{""stimulus"":""run_exp/static/images/task_images/rocket-09.jpg"",""time"":8794.90000000596}]",[],7,,,,,,,,,,,,,,
alien_welcome,198,559535,0.0-62.0-1.0,,null,run_exp/static/images/task_images/aliens/old_aliens/planet/alien_planet-77.jpg,null,,,,,,,,,,,,77,"45,67,4,58,79,9,43,77,76,14,17,7,48,75,2,30,78,28,54,20,47,40,29,13,64,49,36,73,42,24,19,61",,,,,,,,,,
land,199,560040,0.0-62.0-2.0,,null,run_exp/static/images/task_images/land.jpg,null,,,,,,104,,,8,,,,,,,,,,,,,,
dig,200,562047,0.0-62.0-3.0,,,,,,,,,,,"[{""stimulus"":""run_exp/static/images/task_images/dig.jpg"",""time"":0.5},{""stimulus"":""run_exp/static/images/task_images/land.jpg"",""time"":669.3000000119209},{""stimulus"":""run_exp/static/images/task_images/dig.jpg"",""time"":1338.4000000059605}]",[],8,,,,,,,,,,,,,,
harvest,201,563052,0.0-62.0-4.0,,null,run_exp/static/images/task_images/gems/104.jpg,null,,,,,,82,,,8,,,,,104,0.784230466,0.788461538,,,,,,,
decision,202,563493,0.0-62.0-5.0,,435.2,run_exp/static/images/task_images/land.jpg,65,,,,,,82,,,8,,,,,,,,267132,1,0,FALSE,,,
dig,203,566062,0.0-63.0-0.0,,,,,,,,,,,"[{""stimulus"":""run_exp/static/images/task_images/dig.jpg"",""time"":0.20000000298023224},{""stimulus"":""run_exp/static/images/task_images/land.jpg"",""time"":855.7999999970198},{""stimulus"":""run_exp/static/images/task_images/dig.jpg"",""time"":1711.1000000089407}]",[],8,,,,,,,,,,,,,,
harvest,204,567066,0.0-63.0-1.0,,null,run_exp/static/images/task_images/gems/82.jpg,null,,,,,,70,,,8,,,,,82,0.858566081,0.853658537,,,,,,,
decision,205,567319,0.0-63.0-2.0,,250.7,run_exp/static/images/task_images/land.jpg,65,,,,,,70,,,8,,,,,,,,270958,1,1,FALSE,,,
dig,206,570078,0.0-64.0-0.0,,,,,,,,,,,"[{""stimulus"":""run_exp/static/images/task_images/dig.jpg"",""time"":0.3999999910593033},{""stimulus"":""run_exp/static/images/task_images/land.jpg"",""time"":918.3999999910593},{""stimulus"":""run_exp/static/images/task_images/dig.jpg"",""time"":1837.5999999940395}]",[],8,,,,,,,,,,,,,,
harvest,207,571084,0.0-64.0-1.0,,null,run_exp/static/images/task_images/gems/70.jpg,null,,,,,,55,,,8,,,,,70,0.786463257,0.785714286,,,,,,,
decision,208,571737,0.0-64.0-2.0,,651,run_exp/static/images/task_images/land.jpg,65,,,,,,55,,,8,,,,,,,,275376,1,2,FALSE,,,
dig,209,574093,0.0-65.0-0.0,,,,,,,,,,,"[{""stimulus"":""run_exp/static/images/task_images/dig.jpg"",""time"":0.5},{""stimulus"":""run_exp/static/images/task_images/land.jpg"",""time"":786.5},{""stimulus"":""run_exp/static/images/task_images/dig.jpg"",""time"":1573}]",[],8,,,,,,,,,,,,,,
harvest,210,575096,0.0-65.0-1.0,,null,run_exp/static/images/task_images/gems/55.jpg,null,,,,,,45,,,8,,,,,55,0.811742952,0.818181818,,,,,,,
decision,211,575471,0.0-65.0-2.0,,373.3,run_exp/static/images/task_images/land.jpg,65,,,,,,45,,,8,,,,,,,,279110,1,3,FALSE,,,
dig,212,578108,0.0-66.0-0.0,,,,,,,,,,,"[{""stimulus"":""run_exp/static/images/task_images/dig.jpg"",""time"":0.30000001192092896},{""stimulus"":""run_exp/static/images/task_images/land.jpg"",""time"":879.2000000029802},{""stimulus"":""run_exp/static/images/task_images/dig.jpg"",""time"":1755.6000000089407}]",[],8,,,,,,,,,,,,,,
harvest,213,579114,0.0-66.0-1.0,,null,run_exp/static/images/task_images/gems/45.jpg,null,,,,,,38,,,8,,,,,45,0.839841628,0.844444444,,,,,,,
decision,214,579492,0.0-66.0-2.0,,376.3,run_exp/static/images/task_images/land.jpg,65,,,,,,38,,,8,,,,,,,,283131,1,4,FALSE,,,
dig,215,582122,0.0-67.0-0.0,,,,,,,,,,,"[{""stimulus"":""run_exp/static/images/task_images/dig.jpg"",""time"":0.5},{""stimulus"":""run_exp/static/images/task_images/land.jpg"",""time"":879.1999999880791},{""stimulus"":""run_exp/static/images/task_images/dig.jpg"",""time"":1753.0999999940395}]",[],8,,,,,,,,,,,,,,
harvest,216,583125,0.0-67.0-1.0,,null,run_exp/static/images/task_images/gems/38.jpg,null,,,,,,32,,,8,,,,,38,0.849626569,0.842105263,,,,,,,
decision,217,583451,0.0-67.0-2.0,,324.6,run_exp/static/images/task_images/land.jpg,65,,,,,,32,,,8,,,,,,,,287090,1,5,FALSE,,,
dig,218,586135,0.0-68.0-0.0,,,,,,,,,,,"[{""stimulus"":""run_exp/static/images/task_images/dig.jpg"",""time"":0.29999999701976776},{""stimulus"":""run_exp/static/images/task_images/land.jpg"",""time"":894.7999999970198},{""stimulus"":""run_exp/static/images/task_images/dig.jpg"",""time"":1786.1000000089407}]",[],8,,,,,,,,,,,,,,
harvest,219,587137,0.0-68.0-1.0,,null,run_exp/static/images/task_images/gems/32.jpg,null,,,,,,26,,,8,,,,,32,0.805071024,0.8125,,,,,,,
decision,220,587547,0.0-68.0-2.0,,408.4,run_exp/static/images/task_images/land.jpg,65,,,,,,26,,,8,,,,,,,,291186,1,6,FALSE,,,
dig,221,590146,0.0-69.0-0.0,,,,,,,,,,,"[{""stimulus"":""run_exp/static/images/task_images/dig.jpg"",""time"":0.7999999970197678},{""stimulus"":""run_exp/static/images/task_images/land.jpg"",""time"":867.2999999970198},{""stimulus"":""run_exp/static/images/task_images/dig.jpg"",""time"":1733.4000000059605}]",[],8,,,,,,,,,,,,,,
harvest,222,591151,0.0-69.0-1.0,,null,run_exp/static/images/task_images/gems/26.jpg,null,,,,,,21,,,8,,,,,26,0.807553693,0.807692308,,,,,,,
decision,223,591506,0.0-69.0-2.0,,353.2,run_exp/static/images/task_images/land.jpg,65,,,,,,21,,,8,,,,,,,,295145,1,7,FALSE,,,
dig,224,594164,0.0-70.0-0.0,,,,,,,,,,,"[{""stimulus"":""run_exp/static/images/task_images/dig.jpg"",""time"":0.29999999701976776},{""stimulus"":""run_exp/static/images/task_images/land.jpg"",""time"":885.7000000029802},{""stimulus"":""run_exp/static/images/task_images/dig.jpg"",""time"":1770.4000000059605}]",[],8,,,,,,,,,,,,,,
harvest,225,595168,0.0-70.0-1.0,,null,run_exp/static/images/task_images/gems/21.jpg,null,,,,,,17,,,8,,,,,21,0.789416762,0.80952381,,,,,,,
decision,226,595453,0.0-70.0-2.0,,283.1,run_exp/static/images/task_images/land.jpg,65,,,,,,17,,,8,,,,,,,,299092,1,8,FALSE,,,
dig,227,598179,0.0-71.0-0.0,,,,,,,,,,,"[{""stimulus"":""run_exp/static/images/task_images/dig.jpg"",""time"":0.29999999701976776},{""stimulus"":""run_exp/static/images/task_images/land.jpg"",""time"":911.2999999970198},{""stimulus"":""run_exp/static/images/task_images/dig.jpg"",""time"":1816.2999999970198}]",[],8,,,,,,,,,,,,,,
harvest,228,599186,0.0-71.0-1.0,,null,run_exp/static/images/task_images/gems/17.jpg,null,,,,,,14,,,8,,,,,17,0.81589015,0.823529412,,,,,,,
decision,229,599561,0.0-71.0-2.0,,373.6,run_exp/static/images/task_images/land.jpg,76,,,,,,14,,,8,,,,,,,,303200,1,9,TRUE,,,
end_of_block_continue,230,602030,0.0-72.0-0.0,,2464.2,run_exp/static/audio/clip_32_block_end.m4a,,,,,,0,,,,,,,,,,,,,,,,,,
alien_welcome,231,607039,0.0-73.0-0.0,,null,run_exp/static/images/task_images/aliens/old_aliens/planet/alien_planet-76.jpg,null,,,,,,,,,,,,76,"45,67,4,58,79,9,43,77,76,14,17,7,48,75,2,30,78,28,54,20,47,40,29,13,64,49,36,73,42,24,19,61",,,,,,,,,,
land,232,607545,0.0-73.0-1.0,,null,run_exp/static/images/task_images/land.jpg,null,,,,,,100,,,9,,,,,,,,,,,,,,
dig,233,609557,0.0-73.0-2.0,,,,,,,,,,,"[{""stimulus"":""run_exp/static/images/task_images/dig.jpg"",""time"":1.5},{""stimulus"":""run_exp/static/images/task_images/land.jpg"",""time"":669.7999999970198},{""stimulus"":""run_exp/static/images/task_images/dig.jpg"",""time"":1340.199999988079}]",[],9,,,,,,,,,,,,,,
harvest,234,610561,0.0-73.0-3.0,,null,run_exp/static/images/task_images/gems/100.jpg,null,,,,,,15,,,9,,,,,100,0.147859387,0.15,,,,,,,
decision,235,610890,0.0-73.0-4.0,,326.9,run_exp/static/images/task_images/land.jpg,65,,,,,,15,,,9,,,,,,,,8855,2,0,FALSE,,,
dig,236,613580,0.0-74.0-0.0,,,,,,,,,,,"[{""stimulus"":""run_exp/static/images/task_images/dig.jpg"",""time"":0.30000001192092896},{""stimulus"":""run_exp/static/images/task_images/land.jpg"",""time"":893.8000000119209},{""stimulus"":""run_exp/static/images/task_images/dig.jpg"",""time"":1784.6000000089407}]",[],9,,,,,,,,,,,,,,
harvest,237,614582,0.0-74.0-1.0,,null,run_exp/static/images/task_images/gems/15.jpg,null,,,,,,3,,,9,,,,,15,0.191604075,0.2,,,,,,,
decision,238,615217,0.0-74.0-2.0,,632.3,run_exp/static/images/task_images/land.jpg,76,,,,,,3,,,9,,,,,,,,13182,2,1,TRUE,,,
travel,239,624584,0.0-75.0-0.0,,,,,,,,,,,"[{""stimulus"":""run_exp/static/images/task_images/rocket-01.jpg"",""time"":0.29999999701976776},{""stimulus"":""run_exp/static/images/task_images/rocket-02.jpg"",""time"":1043.2999999970198},{""stimulus"":""run_exp/static/images/task_images/rocket-03.jpg"",""time"":2086.4000000059605},{""stimulus"":""run_exp/static/images/task_images/rocket-04.jpg"",""time"":3126.5999999940395},{""stimulus"":""run_exp/static/images/task_images/rocket-05.jpg"",""time"":4164.5999999940395},{""stimulus"":""run_exp/static/images/task_images/rocket-06.jpg"",""time"":5202.0999999940395},{""stimulus"":""run_exp/static/images/task_images/rocket-07.jpg"",""time"":6246.5},{""stimulus"":""run_exp/static/images/task_images/rocket-08.jpg"",""time"":7283.70000000298},{""stimulus"":""run_exp/static/images/task_images/rocket-09.jpg"",""time"":8321.59999999404}]",[],9,,,,,,,,,,,,,,
alien_welcome,240,629590,0.0-75.0-1.0,,null,run_exp/static/images/task_images/aliens/old_aliens/planet/alien_planet-14.jpg,null,,,,,,,,,,,,14,"45,67,4,58,79,9,43,77,76,14,17,7,48,75,2,30,78,28,54,20,47,40,29,13,64,49,36,73,42,24,19,61",,,,,,,,,,
land,241,630097,0.0-75.0-2.0,,null,run_exp/static/images/task_images/land.jpg,null,,,,,,93,,,10,,,,,,,,,,,,,,
dig,242,632108,0.0-75.0-3.0,,,,,,,,,,,"[{""stimulus"":""run_exp/static/images/task_images/dig.jpg"",""time"":0.4000000059604645},{""stimulus"":""run_exp/static/images/task_images/land.jpg"",""time"":669.3000000119209},{""stimulus"":""run_exp/static/images/task_images/dig.jpg"",""time"":1338.800000011921}]",[],10,,,,,,,,,,,,,,
harvest,243,633111,0.0-75.0-4.0,,null,run_exp/static/images/task_images/gems/93.jpg,null,,,,,,21,,,10,,,,,93,0.228618108,0.225806452,,,,,,,
decision,244,633268,0.0-75.0-5.0,,155.6,run_exp/static/images/task_images/land.jpg,65,,,,,,21,,,10,,,,,,,,31233,2,0,FALSE,,,
dig,245,636121,0.0-76.0-0.0,,,,,,,,,,,"[{""stimulus"":""run_exp/static/images/task_images/dig.jpg"",""time"":0.29999999701976776},{""stimulus"":""run_exp/static/images/task_images/land.jpg"",""time"":949.2999999970198},{""stimulus"":""run_exp/static/images/task_images/dig.jpg"",""time"":1897.0999999940395}]",[],10,,,,,,,,,,,,,,
harvest,246,637124,0.0-76.0-1.0,,null,run_exp/static/images/task_images/gems/21.jpg,null,,,,,,3,,,10,,,,,21,0.13826666,0.142857143,,,,,,,
decision,247,637770,0.0-76.0-2.0,,643.9,run_exp/static/images/task_images/land.jpg,65,,,,,,3,,,10,,,,,,,,35735,2,1,FALSE,,,
dig,248,640133,0.0-77.0-0.0,,,,,,,,,,,"[{""stimulus"":""run_exp/static/images/task_images/dig.jpg"",""time"":0.29999999701976776},{""stimulus"":""run_exp/static/images/task_images/land.jpg"",""time"":792},{""stimulus"":""run_exp/static/images/task_images/dig.jpg"",""time"":1576.5}]",[],10,,,,,,,,,,,,,,
harvest,249,641140,0.0-77.0-1.0,,null,run_exp/static/images/task_images/gems/3.jpg,null,,,,,,1,,,10,,,,,3,0.247156111,0.333333333,,,,,,,
decision,250,641568,0.0-77.0-2.0,,426.5,run_exp/static/images/task_images/land.jpg,76,,,,,,1,,,10,,,,,,,,39534,2,2,TRUE,,,
travel,251,651147,0.0-78.0-0.0,,,,,,,,,,,"[{""stimulus"":""run_exp/static/images/task_images/rocket-01.jpg"",""time"":0.30000001192092896},{""stimulus"":""run_exp/static/images/task_images/rocket-02.jpg"",""time"":1067.2000000029802},{""stimulus"":""run_exp/static/images/task_images/rocket-03.jpg"",""time"":2128.9000000059605},{""stimulus"":""run_exp/static/images/task_images/rocket-04.jpg"",""time"":3193},{""stimulus"":""run_exp/static/images/task_images/rocket-05.jpg"",""time"":4254.600000008941},{""stimulus"":""run_exp/static/images/task_images/rocket-06.jpg"",""time"":5318.20000000298},{""stimulus"":""run_exp/static/images/task_images/rocket-07.jpg"",""time"":6381.600000008941},{""stimulus"":""run_exp/static/images/task_images/rocket-08.jpg"",""time"":7445.600000008941},{""stimulus"":""run_exp/static/images/task_images/rocket-09.jpg"",""time"":8510.40000000596}]",[],10,,,,,,,,,,,,,,
alien_welcome,252,656153,0.0-78.0-1.0,,null,run_exp/static/images/task_images/aliens/old_aliens/planet/alien_planet-17.jpg,null,,,,,,,,,,,,17,"45,67,4,58,79,9,43,77,76,14,17,7,48,75,2,30,78,28,54,20,47,40,29,13,64,49,36,73,42,24,19,61",,,,,,,,,,
land,253,656660,0.0-78.0-2.0,,null,run_exp/static/images/task_images/land.jpg,null,,,,,,101,,,11,,,,,,,,,,,,,,
dig,254,658665,0.0-78.0-3.0,,,,,,,,,,,"[{""stimulus"":""run_exp/static/images/task_images/dig.jpg"",""time"":0.3999999910593033},{""stimulus"":""run_exp/static/images/task_images/land.jpg"",""time"":669.3999999910593},{""stimulus"":""run_exp/static/images/task_images/dig.jpg"",""time"":1339}]",[],11,,,,,,,,,,,,,,
harvest,255,659672,0.0-78.0-4.0,,null,run_exp/static/images/task_images/gems/101.jpg,null,,,,,,16,,,11,,,,,101,0.154223115,0.158415842,,,,,,,
decision,256,659979,0.0-78.0-5.0,,304.8,run_exp/static/images/task_images/land.jpg,65,,,,,,16,,,11,,,,,,,,57944,2,0,FALSE,,,
dig,257,662685,0.0-79.0-0.0,,,,,,,,,,,"[{""stimulus"":""run_exp/static/images/task_images/dig.jpg"",""time"":0.29999999701976776},{""stimulus"":""run_exp/static/images/task_images/land.jpg"",""time"":900},{""stimulus"":""run_exp/static/images/task_images/dig.jpg"",""time"":1797.8999999910593}]",[],11,,,,,,,,,,,,,,
harvest,258,663692,0.0-79.0-1.0,,null,run_exp/static/images/task_images/gems/16.jpg,null,,,,,,5,,,11,,,,,16,0.301649696,0.3125,,,,,,,
decision,259,663825,0.0-79.0-2.0,,130.8,run_exp/static/images/task_images/land.jpg,76,,,,,,5,,,11,,,,,,,,61790,2,1,TRUE,,,
travel,260,673700,0.0-80.0-0.0,,,,,,,,,,,"[{""stimulus"":""run_exp/static/images/task_images/rocket-01.jpg"",""time"":0.4000000059604645},{""stimulus"":""run_exp/static/images/task_images/rocket-02.jpg"",""time"":1102.2000000029802},{""stimulus"":""run_exp/static/images/task_images/rocket-03.jpg"",""time"":2195.0999999940395},{""stimulus"":""run_exp/static/images/task_images/rocket-04.jpg"",""time"":3293.2999999970198},{""stimulus"":""run_exp/static/images/task_images/rocket-05.jpg"",""time"":4385.79999999702},{""stimulus"":""run_exp/static/images/task_images/rocket-06.jpg"",""time"":5481.29999999702},{""stimulus"":""run_exp/static/images/task_images/rocket-07.jpg"",""time"":6581.79999999702},{""stimulus"":""run_exp/static/images/task_images/rocket-08.jpg"",""time"":7676.4000000059605},{""stimulus"":""run_exp/static/images/task_images/rocket-09.jpg"",""time"":8772.79999999702}]",[],11,,,,,,,,,,,,,,
alien_welcome,261,678707,0.0-80.0-1.0,,null,run_exp/static/images/task_images/aliens/old_aliens/planet/alien_planet-7.jpg,null,,,,,,,,,,,,7,"45,67,4,58,79,9,43,77,76,14,17,7,48,75,2,30,78,28,54,20,47,40,29,13,64,49,36,73,42,24,19,61",,,,,,,,,,
land,262,679211,0.0-80.0-2.0,,null,run_exp/static/images/task_images/land.jpg,null,,,,,,90,,,12,,,,,,,,,,,,,,
dig,263,681217,0.0-80.0-3.0,,,,,,,,,,,"[{""stimulus"":""run_exp/static/images/task_images/dig.jpg"",""time"":0.3999999910593033},{""stimulus"":""run_exp/static/images/task_images/land.jpg"",""time"":669.2999999970198},{""stimulus"":""run_exp/static/images/task_images/dig.jpg"",""time"":1336.2000000029802}]",[],12,,,,,,,,,,,,,,
harvest,264,682219,0.0-80.0-4.0,,null,run_exp/static/images/task_images/gems/90.jpg,null,,,,,,74,,,12,,,,,90,0.824405316,0.822222222,,,,,,,
decision,265,682504,0.0-80.0-5.0,,282.9,run_exp/static/images/task_images/land.jpg,65,,,,,,74,,,12,,,,,,,,80469,2,0,FALSE,,,
dig,266,685225,0.0-81.0-0.0,,,,,,,,,,,"[{""stimulus"":""run_exp/static/images/task_images/dig.jpg"",""time"":0.29999999701976776},{""stimulus"":""run_exp/static/images/task_images/land.jpg"",""time"":906.7000000029802},{""stimulus"":""run_exp/static/images/task_images/dig.jpg"",""time"":1811.0999999940395}]",[],12,,,,,,,,,,,,,,
harvest,267,686229,0.0-81.0-1.0,,null,run_exp/static/images/task_images/gems/74.jpg,null,,,,,,59,,,12,,,,,74,0.80001439,0.797297297,,,,,,,
decision,268,686521,0.0-81.0-2.0,,289.7,run_exp/static/images/task_images/land.jpg,65,,,,,,59,,,12,,,,,,,,84486,2,1,FALSE,,,
dig,269,689237,0.0-82.0-0.0,,,,,,,,,,,"[{""stimulus"":""run_exp/static/images/task_images/dig.jpg"",""time"":0.19999998807907104},{""stimulus"":""run_exp/static/images/task_images/land.jpg"",""time"":907.6999999880791},{""stimulus"":""run_exp/static/images/task_images/dig.jpg"",""time"":1810.699999988079}]",[],12,,,,,,,,,,,,,,
harvest,270,690243,0.0-82.0-1.0,,null,run_exp/static/images/task_images/gems/59.jpg,null,,,,,,48,,,12,,,,,59,0.82090574,0.813559322,,,,,,,
decision,271,690428,0.0-82.0-2.0,,183.4,run_exp/static/images/task_images/land.jpg,65,,,,,,48,,,12,,,,,,,,88393,2,2,FALSE,,,
dig,272,693249,0.0-83.0-0.0,,,,,,,,,,,"[{""stimulus"":""run_exp/static/images/task_images/dig.jpg"",""time"":0.29999999701976776},{""stimulus"":""run_exp/static/images/task_images/land.jpg"",""time"":941.2999999970198},{""stimulus"":""run_exp/static/images/task_images/dig.jpg"",""time"":1882.2999999970198}]",[],12,,,,,,,,,,,,,,
harvest,273,694256,0.0-83.0-1.0,,null,run_exp/static/images/task_images/gems/48.jpg,null,,,,,,40,,,12,,,,,48,0.834208358,0.833333333,,,,,,,
decision,274,694428,0.0-83.0-2.0,,169.8,run_exp/static/images/task_images/land.jpg,65,,,,,,40,,,12,,,,,,,,92393,2,3,FALSE,,,
dig,275,697266,0.0-84.0-0.0,,,,,,,,,,,"[{""stimulus"":""run_exp/static/images/task_images/dig.jpg"",""time"":0.30000001192092896},{""stimulus"":""run_exp/static/images/task_images/land.jpg"",""time"":949.5},{""stimulus"":""run_exp/static/images/task_images/dig.jpg"",""time"":1891.5}]",[],12,,,,,,,,,,,,,,
harvest,276,698267,0.0-84.0-1.0,,null,run_exp/static/images/task_images/gems/40.jpg,null,,,,,,34,,,12,,,,,40,0.847961987,0.85,,,,,,,
decision,277,698581,0.0-84.0-2.0,,312,run_exp/static/images/task_images/land.jpg,65,,,,,,34,,,12,,,,,,,,96546,2,4,FALSE,,,
dig,278,701281,0.0-85.0-0.0,,,,,,,,,,,"[{""stimulus"":""run_exp/static/images/task_images/dig.jpg"",""time"":0.30000001192092896},{""stimulus"":""run_exp/static/images/task_images/land.jpg"",""time"":902.4000000059605},{""stimulus"":""run_exp/static/images/task_images/dig.jpg"",""time"":1797.5}]",[],12,,,,,,,,,,,,,,
harvest,279,702283,0.0-85.0-1.0,,null,run_exp/static/images/task_images/gems/34.jpg,null,,,,,,28,,,12,,,,,34,0.818965534,0.823529412,,,,,,,
decision,280,702296,0.0-85.0-2.0,,11.2,run_exp/static/images/task_images/land.jpg,65,,,,,,28,,,12,,,,,,,,100261,2,5,FALSE,,,
dig,281,705292,0.0-86.0-0.0,,,,,,,,,,,"[{""stimulus"":""run_exp/static/images/task_images/dig.jpg"",""time"":1},{""stimulus"":""run_exp/static/images/task_images/land.jpg"",""time"":1001.2999999970198},{""stimulus"":""run_exp/static/images/task_images/dig.jpg"",""time"":1999.2999999970198}]",[],12,,,,,,,,,,,,,,
harvest,282,706294,0.0-86.0-1.0,,null,run_exp/static/images/task_images/gems/28.jpg,null,,,,,,22,,,12,,,,,28,0.788814671,0.785714286,,,,,,,
decision,283,706419,0.0-86.0-2.0,,123.1,run_exp/static/images/task_images/land.jpg,65,,,,,,22,,,12,,,,,,,,104384,2,6,FALSE,,,
dig,284,709303,0.0-87.0-0.0,,,,,,,,,,,"[{""stimulus"":""run_exp/static/images/task_images/dig.jpg"",""time"":0.29999999701976776},{""stimulus"":""run_exp/static/images/task_images/land.jpg"",""time"":960.3999999910593},{""stimulus"":""run_exp/static/images/task_images/dig.jpg"",""time"":1919.0999999940395}]",[],12,,,,,,,,,,,,,,
harvest,285,710309,0.0-87.0-1.0,,null,run_exp/static/images/task_images/gems/22.jpg,null,,,,,,18,,,12,,,,,22,0.82645469,0.818181818,,,,,,,
decision,286,710631,0.0-87.0-2.0,,319.5,run_exp/static/images/task_images/land.jpg,65,,,,,,18,,,12,,,,,,,,108596,2,7,FALSE,,,
dig,287,713321,0.0-88.0-0.0,,,,,,,,,,,"[{""stimulus"":""run_exp/static/images/task_images/dig.jpg"",""time"":0.4000000059604645},{""stimulus"":""run_exp/static/images/task_images/land.jpg"",""time"":895},{""stimulus"":""run_exp/static/images/task_images/dig.jpg"",""time"":1790.9000000059605}]",[],12,,,,,,,,,,,,,,
harvest,288,714328,0.0-88.0-1.0,,null,run_exp/static/images/task_images/gems/18.jpg,null,,,,,,15,,,12,,,,,18,0.847627385,0.833333333,,,,,,,
decision,289,714631,0.0-88.0-2.0,,301.2,run_exp/static/images/task_images/land.jpg,65,,,,,,15,,,12,,,,,,,,112597,2,8,FALSE,,,
dig,290,717339,0.0-89.0-0.0,,,,,,,,,,,"[{""stimulus"":""run_exp/static/images/task_images/dig.jpg"",""time"":0.29999999701976776},{""stimulus"":""run_exp/static/images/task_images/land.jpg"",""time"":901.4000000059605},{""stimulus"":""run_exp/static/images/task_images/dig.jpg"",""time"":1804.4000000059605}]",[],12,,,,,,,,,,,,,,
harvest,291,718346,0.0-89.0-1.0,,null,run_exp/static/images/task_images/gems/15.jpg,null,,,,,,13,,,12,,,,,15,0.856062079,0.866666667,,,,,,,
decision,292,718731,0.0-89.0-2.0,,383.4,run_exp/static/images/task_images/land.jpg,76,,,,,,13,,,12,,,,,,,,116696,2,9,TRUE,,,
travel,293,728351,0.0-90.0-0.0,,,,,,,,,,,"[{""stimulus"":""run_exp/static/images/task_images/rocket-01.jpg"",""time"":0.29999999701976776},{""stimulus"":""run_exp/static/images/task_images/rocket-02.jpg"",""time"":1070.7999999970198},{""stimulus"":""run_exp/static/images/task_images/rocket-03.jpg"",""time"":2138.8999999910593},{""stimulus"":""run_exp/static/images/task_images/rocket-04.jpg"",""time"":3206.0999999940395},{""stimulus"":""run_exp/static/images/task_images/rocket-05.jpg"",""time"":4275.5999999940395},{""stimulus"":""run_exp/static/images/task_images/rocket-06.jpg"",""time"":5346.399999991059},{""stimulus"":""run_exp/static/images/task_images/rocket-07.jpg"",""time"":6419.5999999940395},{""stimulus"":""run_exp/static/images/task_images/rocket-08.jpg"",""time"":7478},{""stimulus"":""run_exp/static/images/task_images/rocket-09.jpg"",""time"":8548.20000000298}]",[],12,,,,,,,,,,,,,,
alien_welcome,294,733354,0.0-90.0-1.0,,null,run_exp/static/images/task_images/aliens/old_aliens/planet/alien_planet-48.jpg,null,,,,,,,,,,,,48,"45,67,4,58,79,9,43,77,76,14,17,7,48,75,2,30,78,28,54,20,47,40,29,13,64,49,36,73,42,24,19,61",,,,,,,,,,
land,295,733859,0.0-90.0-2.0,,null,run_exp/static/images/task_images/land.jpg,null,,,,,,100,,,13,,,,,,,,,,,,,,
dig,296,735868,0.0-90.0-3.0,,,,,,,,,,,"[{""stimulus"":""run_exp/static/images/task_images/dig.jpg"",""time"":0.20000000298023224},{""stimulus"":""run_exp/static/images/task_images/land.jpg"",""time"":670.7000000029802},{""stimulus"":""run_exp/static/images/task_images/dig.jpg"",""time"":1340.2000000029802}]",[],13,,,,,,,,,,,,,,
harvest,297,736874,0.0-90.0-4.0,,null,run_exp/static/images/task_images/gems/100.jpg,null,,,,,,87,,,13,,,,,100,0.873659533,0.87,,,,,,,
decision,298,737106,0.0-90.0-5.0,,230.3,run_exp/static/images/task_images/land.jpg,65,,,,,,87,,,13,,,,,,,,135071,2,0,FALSE,,,
dig,299,739887,0.0-91.0-0.0,,,,,,,,,,,"[{""stimulus"":""run_exp/static/images/task_images/dig.jpg"",""time"":0.20000000298023224},{""stimulus"":""run_exp/static/images/task_images/land.jpg"",""time"":924.8000000119209},{""stimulus"":""run_exp/static/images/task_images/dig.jpg"",""time"":1848.300000011921}]",[],13,,,,,,,,,,,,,,
harvest,300,740894,0.0-91.0-1.0,,null,run_exp/static/images/task_images/gems/87.jpg,null,,,,,,75,,,13,,,,,87,0.862659803,0.862068966,,,,,,,
decision,301,741130,0.0-91.0-2.0,,233.8,run_exp/static/images/task_images/land.jpg,65,,,,,,75,,,13,,,,,,,,139095,2,1,FALSE,,,
dig,302,743905,0.0-92.0-0.0,,,,,,,,,,,"[{""stimulus"":""run_exp/static/images/task_images/dig.jpg"",""time"":0.3999999910593033},{""stimulus"":""run_exp/static/images/task_images/land.jpg"",""time"":926.7999999970198},{""stimulus"":""run_exp/static/images/task_images/dig.jpg"",""time"":1850.5}]",[],13,,,,,,,,,,,,,,
harvest,303,744909,0.0-92.0-1.0,,null,run_exp/static/images/task_images/gems/75.jpg,null,,,,,,58,,,13,,,,,75,0.766831269,0.773333333,,,,,,,
decision,304,745207,0.0-92.0-2.0,,296.5,run_exp/static/images/task_images/land.jpg,65,,,,,,58,,,13,,,,,,,,143172,2,2,FALSE,,,
dig,305,747922,0.0-93.0-0.0,,,,,,,,,,,"[{""stimulus"":""run_exp/static/images/task_images/dig.jpg"",""time"":0.30000001192092896},{""stimulus"":""run_exp/static/images/task_images/land.jpg"",""time"":905.7000000029802},{""stimulus"":""run_exp/static/images/task_images/dig.jpg"",""time"":1803.5}]",[],13,,,,,,,,,,,,,,
harvest,306,748929,0.0-93.0-1.0,,null,run_exp/static/images/task_images/gems/58.jpg,null,,,,,,51,,,13,,,,,58,0.875642695,0.879310345,,,,,,,
decision,307,749219,0.0-93.0-2.0,,288.9,run_exp/static/images/task_images/land.jpg,65,,,,,,51,,,13,,,,,,,,147185,2,3,FALSE,,,
dig,308,751937,0.0-94.0-0.0,,,,,,,,,,,"[{""stimulus"":""run_exp/static/images/task_images/dig.jpg"",""time"":0.29999999701976776},{""stimulus"":""run_exp/static/images/task_images/land.jpg"",""time"":904.6000000089407},{""stimulus"":""run_exp/static/images/task_images/dig.jpg"",""time"":1812.4000000059605}]",[],13,,,,,,,,,,,,,,
harvest,309,752942,0.0-94.0-1.0,,null,run_exp/static/images/task_images/gems/51.jpg,null,,,,,,42,,,13,,,,,51,0.826311133,0.823529412,,,,,,,
decision,310,753335,0.0-94.0-2.0,,391.2,run_exp/static/images/task_images/land.jpg,65,,,,,,42,,,13,,,,,,,,151300,2,4,FALSE,,,
dig,311,755950,0.0-95.0-0.0,,,,,,,,,,,"[{""stimulus"":""run_exp/static/images/task_images/dig.jpg"",""time"":0.29999999701976776},{""stimulus"":""run_exp/static/images/task_images/land.jpg"",""time"":874.5},{""stimulus"":""run_exp/static/images/task_images/dig.jpg"",""time"":1740}]",[],13,,,,,,,,,,,,,,
harvest,312,756955,0.0-95.0-1.0,,null,run_exp/static/images/task_images/gems/42.jpg,null,,,,,,33,,,13,,,,,42,0.775744046,0.785714286,,,,,,,
decision,313,757364,0.0-95.0-2.0,,406.8,run_exp/static/images/task_images/land.jpg,65,,,,,,33,,,13,,,,,,,,155329,2,5,FALSE,,,
dig,314,759965,0.0-96.0-0.0,,,,,,,,,,,"[{""stimulus"":""run_exp/static/images/task_images/dig.jpg"",""time"":0.29999999701976776},{""stimulus"":""run_exp/static/images/task_images/land.jpg"",""time"":868.7000000029802},{""stimulus"":""run_exp/static/images/task_images/dig.jpg"",""time"":1730.5}]",[],13,,,,,,,,,,,,,,
harvest,315,760968,0.0-96.0-1.0,,null,run_exp/static/images/task_images/gems/33.jpg,null,,,,,,25,,,13,,,,,33,0.753651893,0.757575758,,,,,,,
decision,316,761302,0.0-96.0-2.0,,332,run_exp/static/images/task_images/land.jpg,65,,,,,,25,,,13,,,,,,,,159267,2,6,FALSE,,,
dig,317,763980,0.0-97.0-0.0,,,,,,,,,,,"[{""stimulus"":""run_exp/static/images/task_images/dig.jpg"",""time"":0.19999998807907104},{""stimulus"":""run_exp/static/images/task_images/land.jpg"",""time"":895.1999999880791},{""stimulus"":""run_exp/static/images/task_images/dig.jpg"",""time"":1784.199999988079}]",[],13,,,,,,,,,,,,,,
harvest,318,764986,0.0-97.0-1.0,,null,run_exp/static/images/task_images/gems/25.jpg,null,,,,,,18,,,13,,,,,25,0.725004229,0.72,,,,,,,
decision,319,765136,0.0-97.0-2.0,,147.9,run_exp/static/images/task_images/land.jpg,65,,,,,,18,,,13,,,,,,,,163102,2,7,FALSE,,,
dig,320,767997,0.0-98.0-0.0,,,,,,,,,,,"[{""stimulus"":""run_exp/static/images/task_images/dig.jpg"",""time"":0.29999999701976776},{""stimulus"":""run_exp/static/images/task_images/land.jpg"",""time"":952.5},{""stimulus"":""run_exp/static/images/task_images/dig.jpg"",""time"":1904.5}]",[],13,,,,,,,,,,,,,,
harvest,321,769002,0.0-98.0-1.0,,null,run_exp/static/images/task_images/gems/18.jpg,null,,,,,,14,,,13,,,,,18,0.756062723,0.777777778,,,,,,,
decision,322,769257,0.0-98.0-2.0,,252.5,run_exp/static/images/task_images/land.jpg,65,,,,,,14,,,13,,,,,,,,167222,2,8,FALSE,,,
dig,323,772009,0.0-99.0-0.0,,,,,,,,,,,"[{""stimulus"":""run_exp/static/images/task_images/dig.jpg"",""time"":0.3999999910593033},{""stimulus"":""run_exp/static/images/task_images/land.jpg"",""time"":919.5999999940395},{""stimulus"":""run_exp/static/images/task_images/dig.jpg"",""time"":1832}]",[],13,,,,,,,,,,,,,,
harvest,324,773015,0.0-99.0-1.0,,null,run_exp/static/images/task_images/gems/14.jpg,null,,,,,,10,,,13,,,,,14,0.691746122,0.714285714,,,,,,,
decision,325,773200,0.0-99.0-2.0,,183.2,run_exp/static/images/task_images/land.jpg,76,,,,,,10,,,13,,,,,,,,171165,2,9,TRUE,,,
travel,326,783022,0.0-100.0-0.0,,,,,,,,,,,"[{""stimulus"":""run_exp/static/images/task_images/rocket-01.jpg"",""time"":0.4000000059604645},{""stimulus"":""run_exp/static/images/task_images/rocket-02.jpg"",""time"":1093.7000000029802},{""stimulus"":""run_exp/static/images/task_images/rocket-03.jpg"",""time"":2184},{""stimulus"":""run_exp/static/images/task_images/rocket-04.jpg"",""time"":3271.5999999940395},{""stimulus"":""run_exp/static/images/task_images/rocket-05.jpg"",""time"":4361.70000000298},{""stimulus"":""run_exp/static/images/task_images/rocket-06.jpg"",""time"":5451.79999999702},{""stimulus"":""run_exp/static/images/task_images/rocket-07.jpg"",""time"":6542.70000000298},{""stimulus"":""run_exp/static/images/task_images/rocket-08.jpg"",""time"":7636},{""stimulus"":""run_exp/static/images/task_images/rocket-09.jpg"",""time"":8724.09999999404}]",[],13,,,,,,,,,,,,,,
alien_welcome,327,788029,0.0-100.0-1.0,,null,run_exp/static/images/task_images/aliens/old_aliens/planet/alien_planet-75.jpg,null,,,,,,,,,,,,75,"45,67,4,58,79,9,43,77,76,14,17,7,48,75,2,30,78,28,54,20,47,40,29,13,64,49,36,73,42,24,19,61",,,,,,,,,,
land,328,788536,0.0-100.0-2.0,,null,run_exp/static/images/task_images/land.jpg,null,,,,,,96,,,14,,,,,,,,,,,,,,
dig,329,790545,0.0-100.0-3.0,,,,,,,,,,,"[{""stimulus"":""run_exp/static/images/task_images/dig.jpg"",""time"":0.4000000059604645},{""stimulus"":""run_exp/static/images/task_images/land.jpg"",""time"":672.2999999970198},{""stimulus"":""run_exp/static/images/task_images/dig.jpg"",""time"":1336.5}]",[],14,,,,,,,,,,,,,,
harvest,330,791548,0.0-100.0-4.0,,null,run_exp/static/images/task_images/gems/96.jpg,null,,,,,,77,,,14,,,,,96,0.797829336,0.802083333,,,,,,,
decision,331,791694,0.0-100.0-5.0,,144.6,run_exp/static/images/task_images/land.jpg,65,,,,,,77,,,14,,,,,,,,189659,2,0,FALSE,,,
dig,332,794557,0.0-101.0-0.0,,,,,,,,,,,"[{""stimulus"":""run_exp/static/images/task_images/dig.jpg"",""time"":0.5999999940395355},{""stimulus"":""run_exp/static/images/task_images/land.jpg"",""time"":955.8999999910593},{""stimulus"":""run_exp/static/images/task_images/dig.jpg"",""time"":1920.2999999970198}]",[],14,,,,,,,,,,,,,,
harvest,333,795562,0.0-101.0-1.0,,null,run_exp/static/images/task_images/gems/77.jpg,null,,,,,,64,,,14,,,,,77,0.828830794,0.831168831,,,,,,,
decision,334,795732,0.0-101.0-2.0,,167.4,run_exp/static/images/task_images/land.jpg,65,,,,,,64,,,14,,,,,,,,193697,2,1,FALSE,,,
dig,335,798573,0.0-102.0-0.0,,,,,,,,,,,"[{""stimulus"":""run_exp/static/images/task_images/dig.jpg"",""time"":0.20000000298023224},{""stimulus"":""run_exp/static/images/task_images/land.jpg"",""time"":950.4000000059605},{""stimulus"":""run_exp/static/images/task_images/dig.jpg"",""time"":1891.9000000059605}]",[],14,,,,,,,,,,,,,,
harvest,336,799579,0.0-102.0-1.0,,null,run_exp/static/images/task_images/gems/64.jpg,null,,,,,,50,,,14,,,,,64,0.778610618,0.78125,,,,,,,
decision,337,799601,0.0-102.0-2.0,,19.8,run_exp/static/images/task_images/land.jpg,65,,,,,,50,,,14,,,,,,,,197566,2,2,FALSE,,,
dig,338,802590,0.0-103.0-0.0,,,,,,,,,,,"[{""stimulus"":""run_exp/static/images/task_images/dig.jpg"",""time"":0.29999999701976776},{""stimulus"":""run_exp/static/images/task_images/land.jpg"",""time"":994.2999999970198},{""stimulus"":""run_exp/static/images/task_images/dig.jpg"",""time"":1987.2999999970198}]",[],14,,,,,,,,,,,,,,
harvest,339,803591,0.0-103.0-1.0,,null,run_exp/static/images/task_images/gems/50.jpg,null,,,,,,41,,,14,,,,,50,0.825663846,0.82,,,,,,,
decision,340,803913,0.0-103.0-2.0,,318.7,run_exp/static/images/task_images/land.jpg,65,,,,,,41,,,14,,,,,,,,201878,2,3,FALSE,,,
dig,341,806604,0.0-104.0-0.0,,,,,,,,,,,"[{""stimulus"":""run_exp/static/images/task_images/dig.jpg"",""time"":0.29999999701976776},{""stimulus"":""run_exp/static/images/task_images/land.jpg"",""time"":899.3999999910593},{""stimulus"":""run_exp/static/images/task_images/dig.jpg"",""time"":1788.2999999970198}]",[],14,,,,,,,,,,,,,,
harvest,342,807610,0.0-104.0-1.0,,null,run_exp/static/images/task_images/gems/41.jpg,null,,,,,,34,,,14,,,,,41,0.827211735,0.829268293,,,,,,,
decision,343,807833,0.0-104.0-2.0,,221.1,run_exp/static/images/task_images/land.jpg,65,,,,,,34,,,14,,,,,,,,205798,2,4,FALSE,,,
dig,344,810621,0.0-105.0-0.0,,,,,,,,,,,"[{""stimulus"":""run_exp/static/images/task_images/dig.jpg"",""time"":0.29999999701976776},{""stimulus"":""run_exp/static/images/task_images/land.jpg"",""time"":930.9000000059605},{""stimulus"":""run_exp/static/images/task_images/dig.jpg"",""time"":1854.5}]",[],14,,,,,,,,,,,,,,
harvest,345,811627,0.0-105.0-1.0,,null,run_exp/static/images/task_images/gems/34.jpg,null,,,,,,26,,,14,,,,,34,0.758001687,0.764705882,,,,,,,
decision,346,813230,0.0-105.0-2.0,,1600.8,run_exp/static/images/task_images/land.jpg,65,,,,,,26,,,14,,,,,,,,211195,2,5,FALSE,,,
dig,347,814637,0.0-106.0-0.0,,,,,,,,,,,"[{""stimulus"":""run_exp/static/images/task_images/dig.jpg"",""time"":0.30000001192092896},{""stimulus"":""run_exp/static/images/task_images/land.jpg"",""time"":472.40000000596046},{""stimulus"":""run_exp/static/images/task_images/dig.jpg"",""time"":938.4000000059605}]",[],14,,,,,,,,,,,,,,
harvest,348,815644,0.0-106.0-1.0,,null,run_exp/static/images/task_images/gems/26.jpg,null,,,,,,23,,,14,,,,,26,0.87473831,0.884615385,,,,,,,
decision,349,815970,0.0-106.0-2.0,,324,run_exp/static/images/task_images/land.jpg,65,,,,,,23,,,14,,,,,,,,213935,2,6,FALSE,,,
dig,350,818654,0.0-107.0-0.0,,,,,,,,,,,"[{""stimulus"":""run_exp/static/images/task_images/dig.jpg"",""time"":0.3999999910593033},{""stimulus"":""run_exp/static/images/task_images/land.jpg"",""time"":896.7999999970198},{""stimulus"":""run_exp/static/images/task_images/dig.jpg"",""time"":1790.5999999940395}]",[],14,,,,,,,,,,,,,,
harvest,351,819661,0.0-107.0-1.0,,null,run_exp/static/images/task_images/gems/23.jpg,null,,,,,,17,,,14,,,,,23,0.760428994,0.739130435,,,,,,,
decision,352,819951,0.0-107.0-2.0,,287.7,run_exp/static/images/task_images/land.jpg,65,,,,,,17,,,14,,,,,,,,217916,2,7,FALSE,,,
dig,353,822674,0.0-108.0-0.0,,,,,,,,,,,"[{""stimulus"":""run_exp/static/images/task_images/dig.jpg"",""time"":0.4000000059604645},{""stimulus"":""run_exp/static/images/task_images/land.jpg"",""time"":907.4000000059605},{""stimulus"":""run_exp/static/images/task_images/dig.jpg"",""time"":1809.5}]",[],14,,,,,,,,,,,,,,
harvest,354,823679,0.0-108.0-1.0,,null,run_exp/static/images/task_images/gems/17.jpg,null,,,,,,15,,,14,,,,,17,0.875451465,0.882352941,,,,,,,
decision,355,823965,0.0-108.0-2.0,,284.4,run_exp/static/images/task_images/land.jpg,65,,,,,,15,,,14,,,,,,,,221930,2,8,FALSE,,,
dig,356,826690,0.0-109.0-0.0,,,,,,,,,,,"[{""stimulus"":""run_exp/static/images/task_images/dig.jpg"",""time"":0.10000000894069672},{""stimulus"":""run_exp/static/images/task_images/land.jpg"",""time"":908.3000000119209},{""stimulus"":""run_exp/static/images/task_images/dig.jpg"",""time"":1815.300000011921}]",[],14,,,,,,,,,,,,,,
harvest,357,827695,0.0-109.0-1.0,,null,run_exp/static/images/task_images/gems/15.jpg,null,,,,,,12,,,14,,,,,15,0.812762524,0.8,,,,,,,
decision,358,827805,0.0-109.0-2.0,,107.9,run_exp/static/images/task_images/land.jpg,76,,,,,,12,,,14,,,,,,,,225770,2,9,TRUE,,,
travel,359,837706,0.0-110.0-0.0,,,,,,,,,,,"[{""stimulus"":""run_exp/static/images/task_images/rocket-01.jpg"",""time"":0.29999999701976776},{""stimulus"":""run_exp/static/images/task_images/rocket-02.jpg"",""time"":1102},{""stimulus"":""run_exp/static/images/task_images/rocket-03.jpg"",""time"":2204.5999999940395},{""stimulus"":""run_exp/static/images/task_images/rocket-04.jpg"",""time"":3301.7999999970198},{""stimulus"":""run_exp/static/images/task_images/rocket-05.jpg"",""time"":4401.899999991059},{""stimulus"":""run_exp/static/images/task_images/rocket-06.jpg"",""time"":5498.699999988079},{""stimulus"":""run_exp/static/images/task_images/rocket-07.jpg"",""time"":6599.5999999940395},{""stimulus"":""run_exp/static/images/task_images/rocket-08.jpg"",""time"":7699.5},{""stimulus"":""run_exp/static/images/task_images/rocket-09.jpg"",""time"":8796.79999999702}]",[],14,,,,,,,,,,,,,,
alien_welcome,360,842712,0.0-110.0-1.0,,null,run_exp/static/images/task_images/aliens/old_aliens/planet/alien_planet-2.jpg,null,,,,,,,,,,,,2,"45,67,4,58,79,9,43,77,76,14,17,7,48,75,2,30,78,28,54,20,47,40,29,13,64,49,36,73,42,24,19,61",,,,,,,,,,
land,361,843216,0.0-110.0-2.0,,null,run_exp/static/images/task_images/land.jpg,null,,,,,,104,,,15,,,,,,,,,,,,,,
dig,362,845221,0.0-110.0-3.0,,,,,,,,,,,"[{""stimulus"":""run_exp/static/images/task_images/dig.jpg"",""time"":0.5},{""stimulus"":""run_exp/static/images/task_images/land.jpg"",""time"":672.3999999910593},{""stimulus"":""run_exp/static/images/task_images/dig.jpg"",""time"":1339.0999999940395}]",[],15,,,,,,,,,,,,,,
harvest,363,846223,0.0-110.0-4.0,,null,run_exp/static/images/task_images/gems/104.jpg,null,,,,,,83,,,15,,,,,104,0.79894305,0.798076923,,,,,,,
decision,364,846390,0.0-110.0-5.0,,164.5,run_exp/static/images/task_images/land.jpg,65,,,,,,83,,,15,,,,,,,,244355,2,0,FALSE,,,
dig,365,849234,0.0-111.0-0.0,,,,,,,,,,,"[{""stimulus"":""run_exp/static/images/task_images/dig.jpg"",""time"":0.4000000059604645},{""stimulus"":""run_exp/static/images/task_images/land.jpg"",""time"":947.7000000029802},{""stimulus"":""run_exp/static/images/task_images/dig.jpg"",""time"":1892.2000000029802}]",[],15,,,,,,,,,,,,,,
harvest,366,850238,0.0-111.0-1.0,,null,run_exp/static/images/task_images/gems/83.jpg,null,,,,,,63,,,15,,,,,83,0.759312355,0.759036145,,,,,,,
decision,367,850483,0.0-111.0-2.0,,243.1,run_exp/static/images/task_images/land.jpg,65,,,,,,63,,,15,,,,,,,,248448,2,1,FALSE,,,
dig,368,853248,0.0-112.0-0.0,,,,,,,,,,,"[{""stimulus"":""run_exp/static/images/task_images/dig.jpg"",""time"":0.19999998807907104},{""stimulus"":""run_exp/static/images/task_images/land.jpg"",""time"":920},{""stimulus"":""run_exp/static/images/task_images/dig.jpg"",""time"":1841.7999999970198}]",[],15,,,,,,,,,,,,,,
harvest,369,854250,0.0-112.0-1.0,,null,run_exp/static/images/task_images/gems/63.jpg,null,,,,,,53,,,15,,,,,63,0.84866763,0.841269841,,,,,,,
decision,370,854561,0.0-112.0-2.0,,308.7,run_exp/static/images/task_images/land.jpg,65,,,,,,53,,,15,,,,,,,,252526,2,2,FALSE,,,
dig,371,857260,0.0-113.0-0.0,,,,,,,,,,,"[{""stimulus"":""run_exp/static/images/task_images/dig.jpg"",""time"":0.29999999701976776},{""stimulus"":""run_exp/static/images/task_images/land.jpg"",""time"":902.6000000089407},{""stimulus"":""run_exp/static/images/task_images/dig.jpg"",""time"":1798.6000000089407}]",[],15,,,,,,,,,,,,,,
harvest,372,858265,0.0-113.0-1.0,,null,run_exp/static/images/task_images/gems/53.jpg,null,,,,,,38,,,15,,,,,53,0.725242365,0.716981132,,,,,,,
decision,373,858422,0.0-113.0-2.0,,154.6,run_exp/static/images/task_images/land.jpg,65,,,,,,38,,,15,,,,,,,,256387,2,3,FALSE,,,
dig,374,861277,0.0-114.0-0.0,,,,,,,,,,,"[{""stimulus"":""run_exp/static/images/task_images/dig.jpg"",""time"":0.20000000298023224},{""stimulus"":""run_exp/static/images/task_images/land.jpg"",""time"":951.7000000029802},{""stimulus"":""run_exp/static/images/task_images/dig.jpg"",""time"":1902.5}]",[],15,,,,,,,,,,,,,,
harvest,375,862283,0.0-114.0-1.0,,null,run_exp/static/images/task_images/gems/38.jpg,null,,,,,,29,,,15,,,,,38,0.767446932,0.763157895,,,,,,,
decision,376,862516,0.0-114.0-2.0,,230.1,run_exp/static/images/task_images/land.jpg,65,,,,,,29,,,15,,,,,,,,260481,2,4,FALSE,,,
dig,377,865294,0.0-115.0-0.0,,,,,,,,,,,"[{""stimulus"":""run_exp/static/images/task_images/dig.jpg"",""time"":0.29999999701976776},{""stimulus"":""run_exp/static/images/task_images/land.jpg"",""time"":925.5},{""stimulus"":""run_exp/static/images/task_images/dig.jpg"",""time"":1852.3999999910593}]",[],15,,,,,,,,,,,,,,
harvest,378,866299,0.0-115.0-1.0,,null,run_exp/static/images/task_images/gems/29.jpg,null,,,,,,22,,,15,,,,,29,0.750378718,0.75862069,,,,,,,
decision,379,867201,0.0-115.0-2.0,,899.6,run_exp/static/images/task_images/land.jpg,65,,,,,,22,,,15,,,,,,,,265166,2,5,FALSE,,,
dig,380,869314,0.0-116.0-0.0,,,,,,,,,,,"[{""stimulus"":""run_exp/static/images/task_images/dig.jpg"",""time"":0.4000000059604645},{""stimulus"":""run_exp/static/images/task_images/land.jpg"",""time"":706.6000000089407},{""stimulus"":""run_exp/static/images/task_images/dig.jpg"",""time"":1402.2000000029802}]",[],15,,,,,,,,,,,,,,
harvest,381,870317,0.0-116.0-1.0,,null,run_exp/static/images/task_images/gems/22.jpg,null,,,,,,18,,,15,,,,,22,0.833107834,0.818181818,,,,,,,
decision,382,870601,0.0-116.0-2.0,,282.8,run_exp/static/images/task_images/land.jpg,65,,,,,,18,,,15,,,,,,,,268567,2,6,FALSE,,,
dig,383,873330,0.0-117.0-0.0,,,,,,,,,,,"[{""stimulus"":""run_exp/static/images/task_images/dig.jpg"",""time"":0.29999999701976776},{""stimulus"":""run_exp/static/images/task_images/land.jpg"",""time"":909.5999999940395},{""stimulus"":""run_exp/static/images/task_images/dig.jpg"",""time"":1816.5}]",[],15,,,,,,,,,,,,,,
harvest,384,874339,0.0-117.0-1.0,,null,run_exp/static/images/task_images/gems/18.jpg,null,,,,,,15,,,15,,,,,18,0.808492953,0.833333333,,,,,,,
decision,385,874729,0.0-117.0-2.0,,388,run_exp/static/images/task_images/land.jpg,76,,,,,,15,,,15,,,,,,,,272694,2,7,TRUE,,,
travel,386,884353,0.0-118.0-0.0,,,,,,,,,,,"[{""stimulus"":""run_exp/static/images/task_images/rocket-01.jpg"",""time"":0.4000000059604645},{""stimulus"":""run_exp/static/images/task_images/rocket-02.jpg"",""time"":1074.0999999940395},{""stimulus"":""run_exp/static/images/task_images/rocket-03.jpg"",""time"":2142.0999999940395},{""stimulus"":""run_exp/static/images/task_images/rocket-04.jpg"",""time"":3206.7999999970198},{""stimulus"":""run_exp/static/images/task_images/rocket-05.jpg"",""time"":4275.4000000059605},{""stimulus"":""run_exp/static/images/task_images/rocket-06.jpg"",""time"":5344.79999999702},{""stimulus"":""run_exp/static/images/task_images/rocket-07.jpg"",""time"":6412.70000000298},{""stimulus"":""run_exp/static/images/task_images/rocket-08.jpg"",""time"":7482.4000000059605},{""stimulus"":""run_exp/static/images/task_images/rocket-09.jpg"",""time"":8546.70000000298}]",[],15,,,,,,,,,,,,,,
alien_welcome,387,889358,0.0-118.0-1.0,,null,run_exp/static/images/task_images/aliens/old_aliens/planet/alien_planet-30.jpg,null,,,,,,,,,,,,30,"45,67,4,58,79,9,43,77,76,14,17,7,48,75,2,30,78,28,54,20,47,40,29,13,64,49,36,73,42,24,19,61",,,,,,,,,,
land,388,889862,0.0-118.0-2.0,,null,run_exp/static/images/task_images/land.jpg,null,,,,,,105,,,16,,,,,,,,,,,,,,
dig,389,891868,0.0-118.0-3.0,,,,,,,,,,,"[{""stimulus"":""run_exp/static/images/task_images/dig.jpg"",""time"":0.3999999910593033},{""stimulus"":""run_exp/static/images/task_images/land.jpg"",""time"":673.5},{""stimulus"":""run_exp/static/images/task_images/dig.jpg"",""time"":1339.0999999940395}]",[],16,,,,,,,,,,,,,,
harvest,390,892870,0.0-118.0-4.0,,null,run_exp/static/images/task_images/gems/105.jpg,null,,,,,,79,,,16,,,,,105,0.74771375,0.752380952,,,,,,,
decision,391,892992,0.0-118.0-5.0,,120,run_exp/static/images/task_images/land.jpg,65,,,,,,79,,,16,,,,,,,,290958,2,0,FALSE,,,
dig,392,895883,0.0-119.0-0.0,,,,,,,,,,,"[{""stimulus"":""run_exp/static/images/task_images/dig.jpg"",""time"":0.30000001192092896},{""stimulus"":""run_exp/static/images/task_images/land.jpg"",""time"":966.2000000029802},{""stimulus"":""run_exp/static/images/task_images/dig.jpg"",""time"":1922.7000000029802}]",[],16,,,,,,,,,,,,,,
harvest,393,896889,0.0-119.0-1.0,,null,run_exp/static/images/task_images/gems/79.jpg,null,,,,,,66,,,16,,,,,79,0.836102752,0.835443038,,,,,,,
decision,394,897191,0.0-119.0-2.0,,299.3,run_exp/static/images/task_images/land.jpg,65,,,,,,66,,,16,,,,,,,,295156,2,1,FALSE,,,
dig,395,899902,0.0-120.0-0.0,,,,,,,,,,,"[{""stimulus"":""run_exp/static/images/task_images/dig.jpg"",""time"":0.20000000298023224},{""stimulus"":""run_exp/static/images/task_images/land.jpg"",""time"":903.8999999910593},{""stimulus"":""run_exp/static/images/task_images/dig.jpg"",""time"":1801.7000000029802}]",[],16,,,,,,,,,,,,,,
harvest,396,900904,0.0-120.0-1.0,,null,run_exp/static/images/task_images/gems/66.jpg,null,,,,,,58,,,16,,,,,66,0.875617379,0.878787879,,,,,,,
decision,397,901168,0.0-120.0-2.0,,262.8,run_exp/static/images/task_images/land.jpg,65,,,,,,58,,,16,,,,,,,,299133,2,2,FALSE,,,
dig,398,903914,0.0-121.0-0.0,,,,,,,,,,,"[{""stimulus"":""run_exp/static/images/task_images/dig.jpg"",""time"":0.20000000298023224},{""stimulus"":""run_exp/static/images/task_images/land.jpg"",""time"":913.7000000029802},{""stimulus"":""run_exp/static/images/task_images/dig.jpg"",""time"":1828.9000000059605}]",[],16,,,,,,,,,,,,,,
harvest,399,904916,0.0-121.0-1.0,,null,run_exp/static/images/task_images/gems/58.jpg,null,,,,,,40,,,16,,,,,58,0.687751628,0.689655172,,,,,,,
decision,400,905113,0.0-121.0-2.0,,194.7,run_exp/static/images/task_images/land.jpg,65,,,,,,40,,,16,,,,,,,,303078,2,3,TRUE,,,
end_of_block_continue,401,908154,0.0-122.0-0.0,,3033,run_exp/static/audio/clip_32_block_end.m4a,,,,,,0,,,,,,,,,,,,,,,,,,
alien_welcome,402,913166,0.0-123.0-0.0,,null,run_exp/static/images/task_images/aliens/old_aliens/planet/alien_planet-78.jpg,null,,,,,,,,,,,,78,"45,67,4,58,79,9,43,77,76,14,17,7,48,75,2,30,78,28,54,20,47,40,29,13,64,49,36,73,42,24,19,61",,,,,,,,,,
land,403,913671,0.0-123.0-1.0,,null,run_exp/static/images/task_images/land.jpg,null,,,,,,89,,,17,,,,,,,,,,,,,,
dig,404,915679,0.0-123.0-2.0,,,,,,,,,,,"[{""stimulus"":""run_exp/static/images/task_images/dig.jpg"",""time"":0.20000000298023224},{""stimulus"":""run_exp/static/images/task_images/land.jpg"",""time"":672},{""stimulus"":""run_exp/static/images/task_images/dig.jpg"",""time"":1340.3999999910593}]",[],17,,,,,,,,,,,,,,
harvest,405,916683,0.0-123.0-3.0,,null,run_exp/static/images/task_images/gems/89.jpg,null,,,,,,42,,,17,,,,,89,0.470371563,0.471910112,,,,,,,
decision,406,917055,0.0-123.0-4.0,,370.7,run_exp/static/images/task_images/land.jpg,65,,,,,,42,,,17,,,,,,,,8895,3,0,FALSE,,,
dig,407,919695,0.0-124.0-0.0,,,,,,,,,,,"[{""stimulus"":""run_exp/static/images/task_images/dig.jpg"",""time"":0.19999998807907104},{""stimulus"":""run_exp/static/images/task_images/land.jpg"",""time"":877.5999999940395},{""stimulus"":""run_exp/static/images/task_images/dig.jpg"",""time"":1758}]",[],17,,,,,,,,,,,,,,
harvest,408,920697,0.0-124.0-1.0,,null,run_exp/static/images/task_images/gems/42.jpg,null,,,,,,21,,,17,,,,,42,0.503828261,0.5,,,,,,,
decision,409,920951,0.0-124.0-2.0,,252.2,run_exp/static/images/task_images/land.jpg,65,,,,,,21,,,17,,,,,,,,12791,3,1,FALSE,,,
dig,410,923709,0.0-125.0-0.0,,,,,,,,,,,"[{""stimulus"":""run_exp/static/images/task_images/dig.jpg"",""time"":0.4000000059604645},{""stimulus"":""run_exp/static/images/task_images/land.jpg"",""time"":917.2000000029802},{""stimulus"":""run_exp/static/images/task_images/dig.jpg"",""time"":1833.1000000089407}]",[],17,,,,,,,,,,,,,,
harvest,411,924713,0.0-125.0-1.0,,null,run_exp/static/images/task_images/gems/21.jpg,null,,,,,,12,,,17,,,,,21,0.58844404,0.571428571,,,,,,,
decision,412,924950,0.0-125.0-2.0,,235,run_exp/static/images/task_images/land.jpg,65,,,,,,12,,,17,,,,,,,,16790,3,2,FALSE,,,
dig,413,927726,0.0-126.0-0.0,,,,,,,,,,,"[{""stimulus"":""run_exp/static/images/task_images/dig.jpg"",""time"":0.29999999701976776},{""stimulus"":""run_exp/static/images/task_images/land.jpg"",""time"":925.7000000029802},{""stimulus"":""run_exp/static/images/task_images/dig.jpg"",""time"":1846.0999999940395}]",[],17,,,,,,,,,,,,,,
harvest,414,928731,0.0-126.0-1.0,,null,run_exp/static/images/task_images/gems/12.jpg,null,,,,,,6,,,17,,,,,12,0.490333874,0.5,,,,,,,
decision,415,929311,0.0-126.0-2.0,,578,run_exp/static/images/task_images/land.jpg,76,,,,,,6,,,17,,,,,,,,21151,3,3,TRUE,,,
travel,416,938733,0.0-127.0-0.0,,,,,,,,,,,"[{""stimulus"":""run_exp/static/images/task_images/rocket-01.jpg"",""time"":0.29999999701976776},{""stimulus"":""run_exp/static/images/task_images/rocket-02.jpg"",""time"":1049.5},{""stimulus"":""run_exp/static/images/task_images/rocket-03.jpg"",""time"":2095.0999999940395},{""stimulus"":""run_exp/static/images/task_images/rocket-04.jpg"",""time"":3143.8999999910593},{""stimulus"":""run_exp/static/images/task_images/rocket-05.jpg"",""time"":4188.29999999702},{""stimulus"":""run_exp/static/images/task_images/rocket-06.jpg"",""time"":5234.199999988079},{""stimulus"":""run_exp/static/images/task_images/rocket-07.jpg"",""time"":6278},{""stimulus"":""run_exp/static/images/task_images/rocket-08.jpg"",""time"":7323.0999999940395},{""stimulus"":""run_exp/static/images/task_images/rocket-09.jpg"",""time"":8371.199999988079}]",[],17,,,,,,,,,,,,,,
