trial_type,trial_index,time_elapsed,internal_node_id,interactions,blur_events,focus_events,fullscreenenter_events,fullscreenexit_events,success,rt,stimulus,key_press,prompt,subject_id,participant_id,age,gender,button_pressed,next_reward,animation_sequence,responses,planet,curr_prac_trial,n_prac_rounds,alien,aliens,reward_received,decay_rate_actual,decay_rate_exp,time_in_block,block_num,prt,last_trial_on_planet,button_html,bonus,num_failures
pavlovia,0,4,0.0-0.0,"""event"",""trial"",""time""
""fullscreenenter"",""1"",""5407""
","
","
","""event"",""trial"",""time""
""fullscreenenter"",""1"",""5407""
","
",,,,,,,,,,,,,,,,,,,,,,,,,,,,
fullscreen,1,6403,0.0-1.0,"""event"",""trial"",""time""
""fullscreenenter"",""1"",""5407""
","
","
","""event"",""trial"",""time""
""fullscreenenter"",""1"",""5407""
","
",TRUE,,,,,,,,,,,,,,,,,,,,,,,,,,,
instruc_welcome,2,16321,0.0-2.0,"""event"",""trial"",""time""
""fullscreenenter"",""1"",""5407""
","
","
","""event"",""trial"",""time""
""fullscreenenter"",""1"",""5407""
","
",,null,run_exp/static/audio/clip_1_welcome.m4a,null,"<p>Howdy! In this experiment, you’ll be an explorer traveling through space to collect space treasure.</p><p>Your mission is to collect as much treasure as possible.</p><br><br><p><img src='run_exp/static/images/task_images/opening_img-01.jpg' height='300' width='auto'></p>",8285,1487,21.45,Female,,,,,,,,,,,,,,,,,,,
audio-keyboard-response,3,32900,0.0-3.0,"""event"",""trial"",""time""
""fullscreenenter"",""1"",""5407""
","
","
","""event"",""trial"",""time""
""fullscreenenter"",""1"",""5407""
","
",,null,run_exp/static/audio/clip_2_move.m4a,null,,,,,,,,,,,,,,,,,,,,,,,,
welcome_dec,4,45253,0.0-4.0,"""event"",""trial"",""time""
""fullscreenenter"",""1"",""5407""
","
","
","""event"",""trial"",""time""
""fullscreenenter"",""1"",""5407""
","
",,12350,"<p>Howdy! In this experiment, you’ll be an explorer traveling through space to collect space treasure.</p><p>Your mission is to collect as much treasure as possible.</p><br><br><p><img src='run_exp/static/images/task_images/opening_img-01.jpg' height='300' width='auto'></p>",,,,,,,1,,,,,,,,,,,,,,,,,,
html-keyboard-response,5,47251,0.0-5.0,"""event"",""trial"",""time""
""fullscreenenter"",""1"",""5407""
","
","
","""event"",""trial"",""time""
""fullscreenenter"",""1"",""5407""
","
",,1994.5,"<p>Howdy! In this experiment, you’ll be an explorer traveling through space to collect space treasure.</p><p>Your mission is to collect as much treasure as possible.</p><br><br><p><img src='run_exp/static/images/task_images/opening_img-01.jpg' height='300' width='auto'></p><button class=""jspsych-html-btn-unchosen""><img src=""run_exp/static/images/task_images/planet-01.jpg"" height=""50""></button><button class=""jspsych-html-btn-chosen""><img src=""run_exp/static/images/task_images/planet-02.jpg"" height=""50""></button><p><b>[press the space bar to lock in your answer]<b><br></p>",32,,,,,,,,,,,,,,,,,,,,,,,,
instruc_goal,6,57384,0.0-6.0-0.0,"""event"",""trial"",""time""
""fullscreenenter"",""1"",""5407""
","
","
","""event"",""trial"",""time""
""fullscreenenter"",""1"",""5407""
","
",,null,run_exp/static/audio/clip_3_goal.m4a,null,"<p> As a space explorer, you’ll visit different planets to dig for space treasure, these pink gems.</p> <p> The more treasure you dig up, the more bonus money you’ll win! </p><br><br><p><img src='run_exp/static/images/task_images/pink_gem.jpg' height='300' width='auto'></p>",,,,,,,,,,,,,,,,,,,,,,,
instruc_goal,7,62445,0.0-6.0-1.0,"""event"",""trial"",""time""
""fullscreenenter"",""1"",""5407""
","
","
","""event"",""trial"",""time""
""fullscreenenter"",""1"",""5407""
","
",,5058.9,"<p> As a space explorer, you’ll visit different planets to dig for space treasure, these pink gems.</p> <p> The more treasure you dig up, the more bonus money you’ll win! </p><br><br><p><img src='run_exp/static/images/task_images/pink_gem.jpg' height='300' width='auto'></p>",,,,,,,1,,,,,,,,,,,,,,,,,,
html-keyboard-response,8,63230,0.0-6.0-2.0,"""event"",""trial"",""time""
""fullscreenenter"",""1"",""5407""
","
","
","""event"",""trial"",""time""
""fullscreenenter"",""1"",""5407""
","
",,782.2,"<p> As a space explorer, you’ll visit different planets to dig for space treasure, these pink gems.</p> <p> The more treasure you dig up, the more bonus money you’ll win! </p><br><br><p><img src='run_exp/static/images/task_images/pink_gem.jpg' height='300' width='auto'></p><button class=""jspsych-html-btn-unchosen""><img src=""run_exp/static/images/task_images/planet-01.jpg"" height=""50""></button><button class=""jspsych-html-btn-chosen""><img src=""run_exp/static/images/task_images/planet-02.jpg"" height=""50""></button><p><b>[press the space bar to lock in your answer]<b><br></p>",32,,,,,,,,,,,,,,,,,,,,,,,,
instruc_dig,9,79244,0.0-7.0-0.0,"""event"",""trial"",""time""
""fullscreenenter"",""1"",""5407""
","
","
","""event"",""trial"",""time""
""fullscreenenter"",""1"",""5407""
","
",,null,run_exp/static/audio/clip_4_dig.m4a,null,,,,,,,100,,,,,,,,,,,,,,,,,
instruc_dig_try,10,80031,0.0-7.0-1.0,"""event"",""trial"",""time""
""fullscreenenter"",""1"",""5407""
","
","
","""event"",""trial"",""time""
""fullscreenenter"",""1"",""5407""
","
",,784.5,"<p> When you’ve arrived at a new planet, you will dig once. </p> <p>Then, you get to decide if you want to stay on the planet and dig again or travel to a new planet and dig there.</p> <p> To stay and dig, press the letter <strong>‘A’</strong> on your keyboard. Try pressing it now! </p><p><img src='run_exp/static/images/task_images/land.jpg'  height='700' width='auto'></p>",65,"<p> When you’ve arrived at a new planet, you will dig once. </p> <p>Then, you get to decide if you want to stay on the planet and dig again or travel to a new planet and dig there.</p> <p> To stay and dig, press the letter <strong>‘A’</strong> on your keyboard. Try pressing it now! </p><p><img src='run_exp/static/images/task_images/land.jpg'  height='700' width='auto'></p>",,,,,,100,,,,,,,,,,,,,,,,,
dig_prac,11,82063,0.0-7.0-2.0,"""event"",""trial"",""time""
""fullscreenenter"",""1"",""5407""
","
","
","""event"",""trial"",""time""
""fullscreenenter"",""1"",""5407""
","
",,,,,,,,,,,,"[{""stimulus"":""run_exp/static/images/task_images/dig.jpg"",""time"":0.5},{""stimulus"":""run_exp/static/images/task_images/land.jpg"",""time"":682.1000000238419},{""stimulus"":""run_exp/static/images/task_images/dig.jpg"",""time"":1336.8999999761581}]",[],,,,,,,,,,,,,,,
instruc_travel,12,118303,0.0-7.0-3.0,"""event"",""trial"",""time""
""fullscreenenter"",""1"",""5407""
","
","
","""event"",""trial"",""time""
""fullscreenenter"",""1"",""5407""
","
",,null,run_exp/static/audio/clip_5_travel.m4a,null,"<p>Every time you dig up gems, there are less gems on the planet, so the more you dig on a planet the fewer gems you’ll get with each dig.</p><p>When gems are running low, you may want to travel to a new planet. </p> <p>  Planets are very far apart in this galaxy, so it will take some time to travel between them. </p> <br><p>There are lots and lots of planets for you to visit, so you won’t be able to return to any planets you’ve seen before. </p><br><p>To leave this planet and travel to a new one, press the letter <strong>‘L’</strong> on your keyboard. Try pressing it now! </p><p><img src='run_exp/static/images/task_images/rocket-01.jpg'  height='600' width='auto'></p>",,,,,,,,,,,,,,,,,,,,,,,
instruc_travel_try,13,118496,0.0-7.0-4.0,"""event"",""trial"",""time""
""fullscreenenter"",""1"",""5407""
","
","
","""event"",""trial"",""time""
""fullscreenenter"",""1"",""5407""
","
",,191.9,"<p>Every time you dig up gems, there are less gems on the planet, so the more you dig on a planet the fewer gems you’ll get with each dig.</p><p>When gems are running low, you may want to travel to a new planet. </p> <p>  Planets are very far apart in this galaxy, so it will take some time to travel between them. </p> <br><p>There are lots and lots of planets for you to visit, so you won’t be able to return to any planets you’ve seen before. </p><br><p>To leave this planet and travel to a new one, press the letter <strong>‘L’</strong> on your keyboard. Try pressing it now! </p><p><img src='run_exp/static/images/task_images/rocket-01.jpg'  height='600' width='auto'></p>",76,"<p>Every time you dig up gems, there are less gems on the planet, so the more you dig on a planet the fewer gems you’ll get with each dig.</p><p>When gems are running low, you may want to travel to a new planet. </p> <p>  Planets are very far apart in this galaxy, so it will take some time to travel between them. </p> <br><p>There are lots and lots of planets for you to visit, so you won’t be able to return to any planets you’ve seen before. </p><br><p>To leave this planet and travel to a new one, press the letter <strong>‘L’</strong> on your keyboard. Try pressing it now! </p><p><img src='run_exp/static/images/task_images/rocket-01.jpg'  height='600' width='auto'></p>",,,,,,,,,,,,,,,,,,,,,,,
travel_prac,14,128501,0.0-7.0-5.0,"""event"",""trial"",""time""
""fullscreenenter"",""1"",""5407""
","
","
","""event"",""trial"",""time""
""fullscreenenter"",""1"",""5407""
","
",,,,,,,,,,,,"[{""stimulus"":""run_exp/static/images/task_images/rocket-01.jpg"",""time"":0.40000009536743164},{""stimulus"":""run_exp/static/images/task_images/rocket-02.jpg"",""time"":1113.7000000476837},{""stimulus"":""run_exp/static/images/task_images/rocket-03.jpg"",""time"":2234},{""stimulus"":""run_exp/static/images/task_images/rocket-04.jpg"",""time"":3353.7000000476837},{""stimulus"":""run_exp/static/images/task_images/rocket-05.jpg"",""time"":4454.300000071526},{""stimulus"":""run_exp/static/images/task_images/rocket-06.jpg"",""time"":5574.200000047684},{""stimulus"":""run_exp/static/images/task_images/rocket-07.jpg"",""time"":6674},{""stimulus"":""run_exp/static/images/task_images/rocket-08.jpg"",""time"":7793.800000071526},{""stimulus"":""run_exp/static/images/task_images/rocket-09.jpg"",""time"":8904.100000023842}]",[],0,,,,,,,,,,,,,,
instruc_alien_greet,15,155693,0.0-7.0-6.0,"""event"",""trial"",""time""
""fullscreenenter"",""1"",""5407""
","
","
","""event"",""trial"",""time""
""fullscreenenter"",""1"",""5407""
","
",,null,run_exp/static/audio/clip_6_alien.m4a,null,"<p>When you arrive at a new planet, the alien who owns the treasure mine on that planet will greet you!</p><p>The better an alien takes care of their mine the easier it is to dig for gems. Some aliens take better care of their mine than others. So, you won’t get exactly the same amount of gems on each planet.</p><p>What the alien looks like does not tell you anything about how many gems there are on the planet.</p><br><p><img src=""run_exp/static/images/task_images/aliens/instructions_aliens/planet/alien_planet-1.jpg""  height=""600"" width=""auto""></p>",,,,,,,,,,,,,,,,,,,,,,,
instruc_alien_greet,16,170245,0.0-7.0-7.0,"""event"",""trial"",""time""
""fullscreenenter"",""1"",""5407""
","
","
","""event"",""trial"",""time""
""fullscreenenter"",""1"",""5407""
","
",,14549.8,"<p>When you arrive at a new planet, the alien who owns the treasure mine on that planet will greet you!</p><p>The better an alien takes care of their mine the easier it is to dig for gems. Some aliens take better care of their mine than others. So, you won’t get exactly the same amount of gems on each planet.</p><p>What the alien looks like does not tell you anything about how many gems there are on the planet.</p><br><p><img src=""run_exp/static/images/task_images/aliens/instructions_aliens/planet/alien_planet-1.jpg""  height=""600"" width=""auto""></p>",,,,,,,1,,,,,,,,,,,,,,,,,,
html-keyboard-response,17,171300,0.0-7.0-8.0,"""event"",""trial"",""time""
""fullscreenenter"",""1"",""5407""
","
","
","""event"",""trial"",""time""
""fullscreenenter"",""1"",""5407""
","
",,1052.4,"<p>When you arrive at a new planet, the alien who owns the treasure mine on that planet will greet you!</p><p>The better an alien takes care of their mine the easier it is to dig for gems. Some aliens take better care of their mine than others. So, you won’t get exactly the same amount of gems on each planet.</p><p>What the alien looks like does not tell you anything about how many gems there are on the planet.</p><br><p><img src=""run_exp/static/images/task_images/aliens/instructions_aliens/planet/alien_planet-1.jpg""  height=""600"" width=""auto""></p><button class=""jspsych-html-btn-unchosen""><img src=""run_exp/static/images/task_images/planet-01.jpg"" height=""50""></button><button class=""jspsych-html-btn-chosen""><img src=""run_exp/static/images/task_images/planet-02.jpg"" height=""50""></button><p><b>[press the space bar to lock in your answer]<b><br></p>",32,,,,,,,,,,,,,,,,,,,,,,,,
time_out,18,182557,0.0-8.0-0.0,"""event"",""trial"",""time""
""fullscreenenter"",""1"",""5407""
","
","
","""event"",""trial"",""time""
""fullscreenenter"",""1"",""5407""
","
",,null,run_exp/static/audio/clip_7_timeout.m4a,null,"<p>If you don't make your choice fast enough, you’ll have to wait a few seconds before you can make another one.</p><p>You can’t dig for more gems or travel to new planets. You just have to sit and wait.</p><br><p><img src='run_exp/static/images/task_images/time_out.jpg'  height='600' width='auto'></p>",,,,,,,,,,,,,,,,,,,,,,,
time_out,19,185835,0.0-8.0-1.0,"""event"",""trial"",""time""
""fullscreenenter"",""1"",""5407""
","
","
","""event"",""trial"",""time""
""fullscreenenter"",""1"",""5407""
","
",,3274.1,"<p>If you don't make your choice fast enough, you’ll have to wait a few seconds before you can make another one.</p><p>You can’t dig for more gems or travel to new planets. You just have to sit and wait.</p><br><p><img src='run_exp/static/images/task_images/time_out.jpg'  height='600' width='auto'></p>",,,,,,,1,,,,,,,,,,,,,,,,,,
html-keyboard-response,20,188340,0.0-8.0-2.0,"""event"",""trial"",""time""
""fullscreenenter"",""1"",""5407""
","
","
","""event"",""trial"",""time""
""fullscreenenter"",""1"",""5407""
","
",,2503.7,"<p>If you don't make your choice fast enough, you’ll have to wait a few seconds before you can make another one.</p><p>You can’t dig for more gems or travel to new planets. You just have to sit and wait.</p><br><p><img src='run_exp/static/images/task_images/time_out.jpg'  height='600' width='auto'></p><button class=""jspsych-html-btn-unchosen""><img src=""run_exp/static/images/task_images/planet-01.jpg"" height=""50""></button><button class=""jspsych-html-btn-chosen""><img src=""run_exp/static/images/task_images/planet-02.jpg"" height=""50""></button><p><b>[press the space bar to lock in your answer]<b><br></p>",32,,,,,,,,,,,,,,,,,,,,,,,,
instruc_break,21,204037,0.0-9.0-0.0,"""event"",""trial"",""time""
""fullscreenenter"",""1"",""5407""
","
","
","""event"",""trial"",""time""
""fullscreenenter"",""1"",""5407""
","
",,null,run_exp/static/audio/clip_8_break.m4a,null,"<p> After digging and traveling for a while, you’ll be able to take a break at home base. </p><p>The game will last 20 minutes no matter what.</p><p>You will visit home base every 5 minutes, so, you will visit home base three times during the game.</p><br><p><img src='run_exp/static/images/task_images/home_base.jpg' height='600' width='auto'></p>",,,,,,,,,,,,,,,,,,,,,,,
instruc_break,22,205934,0.0-9.0-1.0,"""event"",""trial"",""time""
""fullscreenenter"",""1"",""5407""
","
","
","""event"",""trial"",""time""
""fullscreenenter"",""1"",""5407""
","
",,1893,"<p> After digging and traveling for a while, you’ll be able to take a break at home base. </p><p>The game will last 20 minutes no matter what.</p><p>You will visit home base every 5 minutes, so, you will visit home base three times during the game.</p><br><p><img src='run_exp/static/images/task_images/home_base.jpg' height='600' width='auto'></p>",,,,,,,1,,,,,,,,,,,,,,,,,,
html-keyboard-response,23,207251,0.0-9.0-2.0,"""event"",""trial"",""time""
""fullscreenenter"",""1"",""5407""
","
","
","""event"",""trial"",""time""
""fullscreenenter"",""1"",""5407""
","
",,1315,"<p> After digging and traveling for a while, you’ll be able to take a break at home base. </p><p>The game will last 20 minutes no matter what.</p><p>You will visit home base every 5 minutes, so, you will visit home base three times during the game.</p><br><p><img src='run_exp/static/images/task_images/home_base.jpg' height='600' width='auto'></p><button class=""jspsych-html-btn-unchosen""><img src=""run_exp/static/images/task_images/planet-01.jpg"" height=""50""></button><button class=""jspsych-html-btn-chosen""><img src=""run_exp/static/images/task_images/planet-02.jpg"" height=""50""></button><p><b>[press the space bar to lock in your answer]<b><br></p>",32,,,,,,,,,,,,,,,,,,,,,,,,
instruc_prac_game,24,217377,0.0-10.0-0.0,"""event"",""trial"",""time""
""fullscreenenter"",""1"",""5407""
","
","
","""event"",""trial"",""time""
""fullscreenenter"",""1"",""5407""
","
",,null,run_exp/static/audio/clip_9_practice.m4a,null,"<p> Are you ready to play a practice game? </p> <p>In this practice game, you'll be digging up barrels of gems. But, in the real game, you'll be digging up the gems themselves. </p>",,,,,,,,,,,,,,,,,,,,,,,
html-button-response,25,219281,0.0-10.0-1.0,"""event"",""trial"",""time""
""fullscreenenter"",""1"",""5407""
","
","
","""event"",""trial"",""time""
""fullscreenenter"",""1"",""5407""
","
",,1901.8,"<p> Are you ready to play a practice game? </p> <p>In this practice game, you'll be digging up barrels of gems. But, in the real game, you'll be digging up the gems themselves. </p>",,,,,,,0,,,,,,,,,,,,,,,,,,
alien_welcome_prac,26,224296,0.0-11.0-0.0,"""event"",""trial"",""time""
""fullscreenenter"",""1"",""5407""
","
","
","""event"",""trial"",""time""
""fullscreenenter"",""1"",""5407""
","
",,null,run_exp/static/images/task_images/aliens/practice_aliens/planet/alien_planet-5.jpg,null,,,,,,,,,,,,,,,,,,,,,,,,
land_prac,27,224805,0.0-11.0-1.0,"""event"",""trial"",""time""
""fullscreenenter"",""1"",""5407""
","
","
","""event"",""trial"",""time""
""fullscreenenter"",""1"",""5407""
","
",,null,run_exp/static/images/task_images/land.jpg,null,,,,,,,98,,,0,,,,,,,,,,,,,,
dig_prac,28,226815,0.0-11.0-2.0,"""event"",""trial"",""time""
""fullscreenenter"",""1"",""5407""
","
","
","""event"",""trial"",""time""
""fullscreenenter"",""1"",""5407""
","
",,,,,,,,,,,,"[{""stimulus"":""run_exp/static/images/task_images/dig.jpg"",""time"":0.2999999523162842},{""stimulus"":""run_exp/static/images/task_images/land.jpg"",""time"":678.2999999523163},{""stimulus"":""run_exp/static/images/task_images/dig.jpg"",""time"":1338.1000000238419}]",[],,,,,,,,,,,,,,,
harvest_prac,29,227826,0.0-11.0-3.0,"""event"",""trial"",""time""
""fullscreenenter"",""1"",""5407""
","
","
","""event"",""trial"",""time""
""fullscreenenter"",""1"",""5407""
","
",,null,run_exp/static/images/task_images/barrel_text.jpg,null,,,,,,,,,,,,,,,,,,,,,,,,
decision_prac,30,228341,0.0-11.0-4.0,"""event"",""trial"",""time""
""fullscreenenter"",""1"",""5407""
","
","
","""event"",""trial"",""time""
""fullscreenenter"",""1"",""5407""
","
",,513.6999999,run_exp/static/images/task_images/land.jpg,65,,,,,,,,,,,1,,,,,,,,,,,,,
dig_prac,31,230356,0.0-12.0-0.0,"""event"",""trial"",""time""
""fullscreenenter"",""1"",""5407""
","
","
","""event"",""trial"",""time""
""fullscreenenter"",""1"",""5407""
","
",,,,,,,,,,,,"[{""stimulus"":""run_exp/static/images/task_images/dig.jpg"",""time"":0.2999999523162842},{""stimulus"":""run_exp/static/images/task_images/land.jpg"",""time"":671.5999999046326},{""stimulus"":""run_exp/static/images/task_images/dig.jpg"",""time"":1337.1999999284744}]",[],,,,,,,,,,,,,,,
harvest_prac,32,231374,0.0-12.0-1.0,"""event"",""trial"",""time""
""fullscreenenter"",""1"",""5407""
","
","
","""event"",""trial"",""time""
""fullscreenenter"",""1"",""5407""
","
",,null,run_exp/static/images/task_images/barrel_text.jpg,null,,,,,,,,,,,,,,,,,,,,,,,,
decision_prac,33,232101,0.0-12.0-2.0,"""event"",""trial"",""time""
""fullscreenenter"",""1"",""5407""
","
","
","""event"",""trial"",""time""
""fullscreenenter"",""1"",""5407""
","
",,725.5,run_exp/static/images/task_images/land.jpg,65,,,,,,,,,,,2,,,,,,,,,,,,,
dig_prac,34,234126,0.0-13.0-0.0,"""event"",""trial"",""time""
""fullscreenenter"",""1"",""5407""
","
","
","""event"",""trial"",""time""
""fullscreenenter"",""1"",""5407""
","
",,,,,,,,,,,,"[{""stimulus"":""run_exp/static/images/task_images/dig.jpg"",""time"":0.30000007152557373},{""stimulus"":""run_exp/static/images/task_images/land.jpg"",""time"":671.5},{""stimulus"":""run_exp/static/images/task_images/dig.jpg"",""time"":1350.7000000476837}]",[],,,,,,,,,,,,,,,
harvest_prac,35,235136,0.0-13.0-1.0,"""event"",""trial"",""time""
""fullscreenenter"",""1"",""5407""
","
","
","""event"",""trial"",""time""
""fullscreenenter"",""1"",""5407""
","
",,null,run_exp/static/images/task_images/barrel_text.jpg,null,,,,,,,,,,,,,,,,,,,,,,,,
decision_prac,36,236061,0.0-13.0-2.0,"""event"",""trial"",""time""
""fullscreenenter"",""1"",""5407""
","
","
","""event"",""trial"",""time""
""fullscreenenter"",""1"",""5407""
","
",,923.3,run_exp/static/images/task_images/land.jpg,65,,,,,,,,,,,3,,,,,,,,,,,,,
dig_prac,37,238076,0.0-14.0-0.0,"""event"",""trial"",""time""
""fullscreenenter"",""1"",""5407""
","
","
","""event"",""trial"",""time""
""fullscreenenter"",""1"",""5407""
","
",,,,,,,,,,,,"[{""stimulus"":""run_exp/static/images/task_images/dig.jpg"",""time"":0.2999999523162842},{""stimulus"":""run_exp/static/images/task_images/land.jpg"",""time"":672.2999999523163},{""stimulus"":""run_exp/static/images/task_images/dig.jpg"",""time"":1341.6000000238419}]",[],,,,,,,,,,,,,,,
harvest_prac,38,239087,0.0-14.0-1.0,"""event"",""trial"",""time""
""fullscreenenter"",""1"",""5407""
","
","
","""event"",""trial"",""time""
""fullscreenenter"",""1"",""5407""
","
",,null,run_exp/static/images/task_images/barrel_text.jpg,null,,,,,,,,,,,,,,,,,,,,,,,,
decision_prac,39,239772,0.0-14.0-2.0,"""event"",""trial"",""time""
""fullscreenenter"",""1"",""5407""
","
","
","""event"",""trial"",""time""
""fullscreenenter"",""1"",""5407""
","
",,683.4,run_exp/static/images/task_images/land.jpg,65,,,,,,,,,,,4,,,,,,,,,,,,,
dig_prac,40,241787,0.0-15.0-0.0,"""event"",""trial"",""time""
""fullscreenenter"",""1"",""5407""
","
","
","""event"",""trial"",""time""
""fullscreenenter"",""1"",""5407""
","
",,,,,,,,,,,,"[{""stimulus"":""run_exp/static/images/task_images/dig.jpg"",""time"":0.20000004768371582},{""stimulus"":""run_exp/static/images/task_images/land.jpg"",""time"":672.2000000476837},{""stimulus"":""run_exp/static/images/task_images/dig.jpg"",""time"":1342.1000000238419}]",[],,,,,,,,,,,,,,,
harvest_prac,41,242807,0.0-15.0-1.0,"""event"",""trial"",""time""
""fullscreenenter"",""1"",""5407""
","
","
","""event"",""trial"",""time""
""fullscreenenter"",""1"",""5407""
","
",,null,run_exp/static/images/task_images/barrel_text.jpg,null,,,,,,,,,,,,,,,,,,,,,,,,
decision_prac,42,243112,0.0-15.0-2.0,"""event"",""trial"",""time""
""fullscreenenter"",""1"",""5407""
","
","
","""event"",""trial"",""time""
""fullscreenenter"",""1"",""5407""
","
",,303.4,run_exp/static/images/task_images/land.jpg,65,,,,,,,,,,,,1,,,,,,,,,,,,
quiz_instruc,43,255326,0.0-16.0-0.0,"""event"",""trial"",""time""
""fullscreenenter"",""1"",""5407""
","
","
","""event"",""trial"",""time""
""fullscreenenter"",""1"",""5407""
","
",,12209.3,run_exp/static/audio/clip_10_quiz.m4a,,,,,,,0,,,,,,,,,,,,,,,,,,
instruc_repeat,44,298089,0.0-16.0-1.0,"""event"",""trial"",""time""
""fullscreenenter"",""1"",""5407""
","
","
","""event"",""trial"",""time""
""fullscreenenter"",""1"",""5407""
","
",,null,"<p> Are you ready to play a practice game? </p> <p>In this practice game, you'll be digging up barrels of gems. But, in the real game, you'll be digging up the gems themselves. </p>",null,"<p>In this game, your goal is to collect as many gems as you can. That’s how you will win bonus money. </p> <p>The entire game will last 20 minutes no matter how many gems you collect or how many planets you visit. </p><p>To stay on a planet and dig again, press the letter A on your keyboard. To leave for a new planet, press the letter L.</p><p>The more you dig on a planet, the fewer gems you’ll get with each dig which is why you might consider leaving for a new planet. </p><p>When you arrive at a new planet, you’ll be greeted by an alien. What the alien looks like does not tell you anything about how much treasure is on the planet. </p>",,,,,,,,,,,,,,,,,,,,,,,
instruc_repeat_continue,45,301685,0.0-16.0-2.0,"""event"",""trial"",""time""
""fullscreenenter"",""1"",""5407""
","
","
","""event"",""trial"",""time""
""fullscreenenter"",""1"",""5407""
","
",,3594.5,"<p> Are you ready to play a practice game? </p> <p>In this practice game, you'll be digging up barrels of gems. But, in the real game, you'll be digging up the gems themselves. </p>",,,,,,,0,,,,,,,,,,,,,,,,,,
quiz_q_1_ask,46,312493,0.0-16.0-3.0,"""event"",""trial"",""time""
""fullscreenenter"",""1"",""5407""
","
","
","""event"",""trial"",""time""
""fullscreenenter"",""1"",""5407""
","
",,10805.6,run_exp/static/audio/clip_11_q1_ask.m4a,,,,,,,2,,,,,,,,,,,,,,,,,,
quiz_q_1_fb_correct,47,316349,0.0-17.0-0.0,"""event"",""trial"",""time""
""fullscreenenter"",""1"",""5407""
","
","
","""event"",""trial"",""time""
""fullscreenenter"",""1"",""5407""
","
",,null,run_exp/static/audio/clip_12_q1_correct.m4a,null,<p>That’s correct. You win extra money by collecting more gems.</p>,,,,,,,,,,,,,,,,,,,,,,,
quiz_q_2_ask,48,328997,0.0-17.0-1.0,"""event"",""trial"",""time""
""fullscreenenter"",""1"",""5407""
","
","
","""event"",""trial"",""time""
""fullscreenenter"",""1"",""5407""
","
",,12645.2,run_exp/static/audio/clip_14_q2_ask.m4a,,,,,,,1,,,,,,,,,,,,,,,,,,
quiz_q_2_fb_correct,49,333009,0.0-18.0-0.0,"""event"",""trial"",""time""
""fullscreenenter"",""1"",""5407""
","
","
","""event"",""trial"",""time""
""fullscreenenter"",""1"",""5407""
","
",,null,run_exp/static/audio/clip_15_q2_correct.m4a,null,<p>That’s correct. The experiment is 20 minutes no matter what.</p>,,,,,,,,,,,,,,,,,,,,,,,
quiz_q_3_ask,50,337681,0.0-18.0-1.0,"""event"",""trial"",""time""
""fullscreenenter"",""1"",""5407""
","
","
","""event"",""trial"",""time""
""fullscreenenter"",""1"",""5407""
","
",,4669.5,run_exp/static/audio/clip_17_q3_ask.m4a,,,,,,,1,,,,,,,,,,,,,,,,,,
quiz_q_3_fb_correct,51,341669,0.0-19.0-0.0,"""event"",""trial"",""time""
""fullscreenenter"",""1"",""5407""
","
","
","""event"",""trial"",""time""
""fullscreenenter"",""1"",""5407""
","
",,null,run_exp/static/audio/clip_18_q3_correct.m4a,null,<p> That’s correct. You press the letter L to travel to a new planet.</p>,,,,,,,,,,,,,,,,,,,,,,,
quiz_q_4_ask,52,351890,0.0-19.0-1.0,"""event"",""trial"",""time""
""fullscreenenter"",""1"",""5407""
","
","
","""event"",""trial"",""time""
""fullscreenenter"",""1"",""5407""
","
",,10219.3,run_exp/static/audio/clip_20_q4_ask.m4a,,,,,,,0,,,,,,,,,,,,,,,,,,
quiz_q_4_fb_correct,53,357230,0.0-20.0-0.0,"""event"",""trial"",""time""
""fullscreenenter"",""1"",""5407""
","
","
","""event"",""trial"",""time""
""fullscreenenter"",""1"",""5407""
","
",,null,run_exp/static/audio/clip_21_q4_correct.m4a,null,<p> That’s correct. The more you dig on a planet the fewer gems you’ll get with each dig. </p>,,,,,,,,,,,,,,,,,,,,,,,
quiz_q_5_ask,54,362532,0.0-20.0-1.0,"""event"",""trial"",""time""
""fullscreenenter"",""1"",""5407""
","
","
","""event"",""trial"",""time""
""fullscreenenter"",""1"",""5407""
","
",,5299.7,run_exp/static/audio/clip_23_q5_ask.m4a,,,,,,,1,,,,,,,,,,,,,,,,,,
quiz_q_5_fb_correct,55,367549,0.0-21.0-0.0,"""event"",""trial"",""time""
""fullscreenenter"",""1"",""5407""
","
","
","""event"",""trial"",""time""
""fullscreenenter"",""1"",""5407""
","
",,null,run_exp/static/audio/clip_24_q5_correct.m4a,null,<p> That’s correct. The alien tells you nothing about how much treasure is on the planet.</p>,,,,,,,,,,,,,,,,,,,,,,,
quiz_correct,56,371009,0.0-22.0-0.0,"""event"",""trial"",""time""
""fullscreenenter"",""1"",""5407""
","
","
","""event"",""trial"",""time""
""fullscreenenter"",""1"",""5407""
","
",,null,run_exp/static/audio/clip_26_correct_quiz.m4a,null,,,,,,,,,,,,,,,,,,,,,,,,
quiz_correct_continue,57,375450,0.0-22.0-1.0,"""event"",""trial"",""time""
""fullscreenenter"",""1"",""5407""
","
","
","""event"",""trial"",""time""
""fullscreenenter"",""1"",""5407""
","
",,4439.4,<p>Good job! You're now ready to move on to the real game!</p>,,,,,,,0,,,,,,,,,,,,,,,,,,
audio-keyboard-response,58,385590,0.0-22.0-2.0,"""event"",""trial"",""time""
""fullscreenenter"",""1"",""5407""
","
","
","""event"",""trial"",""time""
""fullscreenenter"",""1"",""5407""
","
",,null,run_exp/static/audio/clip_28_real_game.m4a,null,,,,,,,,,,,,,,,,,,,,,,,,
instruc_begin_exp_contine,59,390195,0.0-22.0-3.0,"""event"",""trial"",""time""
""fullscreenenter"",""1"",""5407""
","
","
","""event"",""trial"",""time""
""fullscreenenter"",""1"",""5407""
","
",,4603.3,"<p>Now that you know how  to dig for space treasure and travel to new planets,you can start exploring! </p><p>Do you want to go over the instructions again or get started with the real game?</p>",,,,,,,1,,,,,,1,,,,,,,,,,,,
alien_welcome,60,395218,0.0-23.0-0.0,"""event"",""trial"",""time""
""fullscreenenter"",""1"",""5407""
","
","
","""event"",""trial"",""time""
""fullscreenenter"",""1"",""5407""
","
",,null,run_exp/static/images/task_images/aliens/old_aliens/planet/alien_planet-47.jpg,null,,,,,,,,,,,,,47,"47,39,62,6,5,7,40,17,56,74,13,9,10,32,33,72,4,30,76,60,48,23,14,16,58,11,19,34,61,31,73,65,64",,,,,,,,,,
land,61,395728,0.0-23.0-1.0,"""event"",""trial"",""time""
""fullscreenenter"",""1"",""5407""
","
","
","""event"",""trial"",""time""
""fullscreenenter"",""1"",""5407""
","
",,null,run_exp/static/images/task_images/land.jpg,null,,,,,,,100,,,1,,,,,,,,,,,,,,
dig,62,397748,0.0-23.0-2.0,"""event"",""trial"",""time""
""fullscreenenter"",""1"",""5407""
","
","
","""event"",""trial"",""time""
""fullscreenenter"",""1"",""5407""
","
",,,,,,,,,,,,"[{""stimulus"":""run_exp/static/images/task_images/dig.jpg"",""time"":0.2999999523162842},{""stimulus"":""run_exp/static/images/task_images/land.jpg"",""time"":688.7999999523163},{""stimulus"":""run_exp/static/images/task_images/dig.jpg"",""time"":1348.7999999523163}]",[],1,,,,,,,,,,,,,,
harvest,63,398768,0.0-23.0-3.0,"""event"",""trial"",""time""
""fullscreenenter"",""1"",""5407""
","
","
","""event"",""trial"",""time""
""fullscreenenter"",""1"",""5407""
","
",,null,run_exp/static/images/task_images/gems/100.jpg,null,,,,,,,14,,,1,,,,,100,0.135231867,0.14,,,,,,,
decision,64,399788,0.0-23.0-4.0,"""event"",""trial"",""time""
""fullscreenenter"",""1"",""5407""
","
","
","""event"",""trial"",""time""
""fullscreenenter"",""1"",""5407""
","
",,1017.2,run_exp/static/images/task_images/land.jpg,65,,,,,,,14,,,1,,,,,,,,9590,1,0,FALSE,,,
dig,65,401788,0.0-24.0-0.0,"""event"",""trial"",""time""
""fullscreenenter"",""1"",""5407""
","
","
","""event"",""trial"",""time""
""fullscreenenter"",""1"",""5407""
","
",,,,,,,,,,,,"[{""stimulus"":""run_exp/static/images/task_images/dig.jpg"",""time"":0.19999992847442627},{""stimulus"":""run_exp/static/images/task_images/land.jpg"",""time"":666.2999999523163},{""stimulus"":""run_exp/static/images/task_images/dig.jpg"",""time"":1324.7999999523163}]",[],1,,,,,,,,,,,,,,
harvest,66,402808,0.0-24.0-1.0,"""event"",""trial"",""time""
""fullscreenenter"",""1"",""5407""
","
","
","""event"",""trial"",""time""
""fullscreenenter"",""1"",""5407""
","
",,null,run_exp/static/images/task_images/gems/14.jpg,null,,,,,,,3,,,1,,,,,14,0.187573585,0.214285714,,,,,,,
decision,67,403368,0.0-24.0-2.0,"""event"",""trial"",""time""
""fullscreenenter"",""1"",""5407""
","
","
","""event"",""trial"",""time""
""fullscreenenter"",""1"",""5407""
","
",,558.8000001,run_exp/static/images/task_images/land.jpg,65,,,,,,,3,,,1,,,,,,,,13170,1,1,FALSE,,,
dig,68,405818,0.0-25.0-0.0,"""event"",""trial"",""time""
""fullscreenenter"",""1"",""5407""
","
","
","""event"",""trial"",""time""
""fullscreenenter"",""1"",""5407""
","
",,,,,,,,,,,,"[{""stimulus"":""run_exp/static/images/task_images/dig.jpg"",""time"":0.40000009536743164},{""stimulus"":""run_exp/static/images/task_images/land.jpg"",""time"":821.3000000715256},{""stimulus"":""run_exp/static/images/task_images/dig.jpg"",""time"":1645.8000000715256}]",[],1,,,,,,,,,,,,,,
harvest,69,406838,0.0-25.0-1.0,"""event"",""trial"",""time""
""fullscreenenter"",""1"",""5407""
","
","
","""event"",""trial"",""time""
""fullscreenenter"",""1"",""5407""
","
",,null,run_exp/static/images/task_images/gems/3.jpg,null,,,,,,,1,,,1,,,,,3,0.247314995,0.333333333,,,,,,,
decision,70,407148,0.0-25.0-2.0,"""event"",""trial"",""time""
""fullscreenenter"",""1"",""5407""
","
","
","""event"",""trial"",""time""
""fullscreenenter"",""1"",""5407""
","
",,308.4,run_exp/static/images/task_images/land.jpg,76,,,,,,,1,,,1,,,,,,,,16950,1,2,TRUE,,,
travel,71,416838,0.0-26.0-0.0,"""event"",""trial"",""time""
""fullscreenenter"",""1"",""5407""
","
","
","""event"",""trial"",""time""
""fullscreenenter"",""1"",""5407""
","
",,,,,,,,,,,,"[{""stimulus"":""run_exp/static/images/task_images/rocket-01.jpg"",""time"":0.20000004768371582},{""stimulus"":""run_exp/static/images/task_images/rocket-02.jpg"",""time"":1086.3999999761581},{""stimulus"":""run_exp/static/images/task_images/rocket-03.jpg"",""time"":2156.3000000715256},{""stimulus"":""run_exp/static/images/task_images/rocket-04.jpg"",""time"":3247},{""stimulus"":""run_exp/static/images/task_images/rocket-05.jpg"",""time"":4306.5},{""stimulus"":""run_exp/static/images/task_images/rocket-06.jpg"",""time"":5396.600000023842},{""stimulus"":""run_exp/static/images/task_images/rocket-07.jpg"",""time"":6463.300000071526},{""stimulus"":""run_exp/static/images/task_images/rocket-08.jpg"",""time"":7546.700000047684},{""stimulus"":""run_exp/static/images/task_images/rocket-09.jpg"",""time"":8627.100000023842}]",[],1,,,,,,,,,,,,,,
alien_welcome,72,421858,0.0-26.0-1.0,"""event"",""trial"",""time""
""fullscreenenter"",""1"",""5407""
","
","
","""event"",""trial"",""time""
""fullscreenenter"",""1"",""5407""
","
",,null,run_exp/static/images/task_images/aliens/old_aliens/planet/alien_planet-39.jpg,null,,,,,,,,,,,,,39,"47,39,62,6,5,7,40,17,56,74,13,9,10,32,33,72,4,30,76,60,48,23,14,16,58,11,19,34,61,31,73,65,64",,,,,,,,,,
land,73,422378,0.0-26.0-2.0,"""event"",""trial"",""time""
""fullscreenenter"",""1"",""5407""
","
","
","""event"",""trial"",""time""
""fullscreenenter"",""1"",""5407""
","
",,null,run_exp/static/images/task_images/land.jpg,null,,,,,,,104,,,2,,,,,,,,,,,,,,
dig,74,424388,0.0-26.0-3.0,"""event"",""trial"",""time""
""fullscreenenter"",""1"",""5407""
","
","
","""event"",""trial"",""time""
""fullscreenenter"",""1"",""5407""
","
",,,,,,,,,,,,"[{""stimulus"":""run_exp/static/images/task_images/dig.jpg"",""time"":0.40000009536743164},{""stimulus"":""run_exp/static/images/task_images/land.jpg"",""time"":678.3000000715256},{""stimulus"":""run_exp/static/images/task_images/dig.jpg"",""time"":1338.3000000715256}]",[],2,,,,,,,,,,,,,,
harvest,75,425398,0.0-26.0-4.0,"""event"",""trial"",""time""
""fullscreenenter"",""1"",""5407""
","
","
","""event"",""trial"",""time""
""fullscreenenter"",""1"",""5407""
","
",,null,run_exp/static/images/task_images/gems/104.jpg,null,,,,,,,19,,,2,,,,,104,0.183753831,0.182692308,,,,,,,
decision,76,425778,0.0-26.0-5.0,"""event"",""trial"",""time""
""fullscreenenter"",""1"",""5407""
","
","
","""event"",""trial"",""time""
""fullscreenenter"",""1"",""5407""
","
",,378.3,run_exp/static/images/task_images/land.jpg,65,,,,,,,19,,,2,,,,,,,,35580,1,0,FALSE,,,
dig,77,428408,0.0-27.0-0.0,"""event"",""trial"",""time""
""fullscreenenter"",""1"",""5407""
","
","
","""event"",""trial"",""time""
""fullscreenenter"",""1"",""5407""
","
",,,,,,,,,,,,"[{""stimulus"":""run_exp/static/images/task_images/dig.jpg"",""time"":0.2999999523162842},{""stimulus"":""run_exp/static/images/task_images/land.jpg"",""time"":876.6000000238419},{""stimulus"":""run_exp/static/images/task_images/dig.jpg"",""time"":1757}]",[],2,,,,,,,,,,,,,,
harvest,78,429428,0.0-27.0-1.0,"""event"",""trial"",""time""
""fullscreenenter"",""1"",""5407""
","
","
","""event"",""trial"",""time""
""fullscreenenter"",""1"",""5407""
","
",,null,run_exp/static/images/task_images/gems/19.jpg,null,,,,,,,7,,,2,,,,,19,0.370679192,0.368421053,,,,,,,
decision,79,429628,0.0-27.0-2.0,"""event"",""trial"",""time""
""fullscreenenter"",""1"",""5407""
","
","
","""event"",""trial"",""time""
""fullscreenenter"",""1"",""5407""
","
",,198.0999999,run_exp/static/images/task_images/land.jpg,65,,,,,,,7,,,2,,,,,,,,39430,1,1,FALSE,,,
dig,80,432448,0.0-28.0-0.0,"""event"",""trial"",""time""
""fullscreenenter"",""1"",""5407""
","
","
","""event"",""trial"",""time""
""fullscreenenter"",""1"",""5407""
","
",,,,,,,,,,,,"[{""stimulus"":""run_exp/static/images/task_images/dig.jpg"",""time"":0.30000007152557373},{""stimulus"":""run_exp/static/images/task_images/land.jpg"",""time"":947},{""stimulus"":""run_exp/static/images/task_images/dig.jpg"",""time"":1887.3000000715256}]",[],2,,,,,,,,,,,,,,
harvest,81,433458,0.0-28.0-1.0,"""event"",""trial"",""time""
""fullscreenenter"",""1"",""5407""
","
","
","""event"",""trial"",""time""
""fullscreenenter"",""1"",""5407""
","
",,null,run_exp/static/images/task_images/gems/7.jpg,null,,,,,,,1,,,2,,,,,7,0.171784943,0.142857143,,,,,,,
decision,82,434858,0.0-28.0-2.0,"""event"",""trial"",""time""
""fullscreenenter"",""1"",""5407""
","
","
","""event"",""trial"",""time""
""fullscreenenter"",""1"",""5407""
","
",,1398,run_exp/static/images/task_images/land.jpg,76,,,,,,,1,,,2,,,,,,,,44660,1,2,TRUE,,,
travel,83,443468,0.0-29.0-0.0,"""event"",""trial"",""time""
""fullscreenenter"",""1"",""5407""
","
","
","""event"",""trial"",""time""
""fullscreenenter"",""1"",""5407""
","
",,,,,,,,,,,,"[{""stimulus"":""run_exp/static/images/task_images/rocket-01.jpg"",""time"":0.3999999761581421},{""stimulus"":""run_exp/static/images/task_images/rocket-02.jpg"",""time"":976.8000000715256},{""stimulus"":""run_exp/static/images/task_images/rocket-03.jpg"",""time"":1926.7000000476837},{""stimulus"":""run_exp/static/images/task_images/rocket-04.jpg"",""time"":2887.3000000715256},{""stimulus"":""run_exp/static/images/task_images/rocket-05.jpg"",""time"":3837},{""stimulus"":""run_exp/static/images/task_images/rocket-06.jpg"",""time"":4787.100000023842},{""stimulus"":""run_exp/static/images/task_images/rocket-07.jpg"",""time"":5746.5},{""stimulus"":""run_exp/static/images/task_images/rocket-08.jpg"",""time"":6697.399999976158},{""stimulus"":""run_exp/static/images/task_images/rocket-09.jpg"",""time"":7657.100000023842}]",[],2,,,,,,,,,,,,,,
alien_welcome,84,448478,0.0-29.0-1.0,"""event"",""trial"",""time""
""fullscreenenter"",""1"",""5407""
","
","
","""event"",""trial"",""time""
""fullscreenenter"",""1"",""5407""
","
",,null,run_exp/static/images/task_images/aliens/old_aliens/planet/alien_planet-62.jpg,null,,,,,,,,,,,,,62,"47,39,62,6,5,7,40,17,56,74,13,9,10,32,33,72,4,30,76,60,48,23,14,16,58,11,19,34,61,31,73,65,64",,,,,,,,,,
land,85,448988,0.0-29.0-2.0,"""event"",""trial"",""time""
""fullscreenenter"",""1"",""5407""
","
","
","""event"",""trial"",""time""
""fullscreenenter"",""1"",""5407""
","
",,null,run_exp/static/images/task_images/land.jpg,null,,,,,,,94,,,3,,,,,,,,,,,,,,
dig,86,450998,0.0-29.0-3.0,"""event"",""trial"",""time""
""fullscreenenter"",""1"",""5407""
","
","
","""event"",""trial"",""time""
""fullscreenenter"",""1"",""5407""
","
",,,,,,,,,,,,"[{""stimulus"":""run_exp/static/images/task_images/dig.jpg"",""time"":0.3999999761581421},{""stimulus"":""run_exp/static/images/task_images/land.jpg"",""time"":687.6999999284744},{""stimulus"":""run_exp/static/images/task_images/dig.jpg"",""time"":1338.0999999046326}]",[],3,,,,,,,,,,,,,,
harvest,87,452018,0.0-29.0-4.0,"""event"",""trial"",""time""
""fullscreenenter"",""1"",""5407""
","
","
","""event"",""trial"",""time""
""fullscreenenter"",""1"",""5407""
","
",,null,run_exp/static/images/task_images/gems/94.jpg,null,,,,,,,45,,,3,,,,,94,0.475491072,0.478723404,,,,,,,
decision,88,452107,0.0-29.0-5.0,"""event"",""trial"",""time""
""fullscreenenter"",""1"",""5407""
","
","
","""event"",""trial"",""time""
""fullscreenenter"",""1"",""5407""
","
",,86.60000002,run_exp/static/images/task_images/land.jpg,65,,,,,,,45,,,3,,,,,,,,61909,1,0,FALSE,,,
dig,89,455038,0.0-30.0-0.0,"""event"",""trial"",""time""
""fullscreenenter"",""1"",""5407""
","
","
","""event"",""trial"",""time""
""fullscreenenter"",""1"",""5407""
","
",,,,,,,,,,,,"[{""stimulus"":""run_exp/static/images/task_images/dig.jpg"",""time"":0.20000004768371582},{""stimulus"":""run_exp/static/images/task_images/land.jpg"",""time"":987.2999999523163},{""stimulus"":""run_exp/static/images/task_images/dig.jpg"",""time"":1957.6000000238419}]",[],3,,,,,,,,,,,,,,
harvest,90,456058,0.0-30.0-1.0,"""event"",""trial"",""time""
""fullscreenenter"",""1"",""5407""
","
","
","""event"",""trial"",""time""
""fullscreenenter"",""1"",""5407""
","
",,null,run_exp/static/images/task_images/gems/45.jpg,null,,,,,,,19,,,3,,,,,45,0.418212736,0.422222222,,,,,,,
decision,91,457247,0.0-30.0-2.0,"""event"",""trial"",""time""
""fullscreenenter"",""1"",""5407""
","
","
","""event"",""trial"",""time""
""fullscreenenter"",""1"",""5407""
","
",,1187.3,run_exp/static/images/task_images/land.jpg,65,,,,,,,19,,,3,,,,,,,,67049,1,1,FALSE,,,
dig,92,459078,0.0-31.0-0.0,"""event"",""trial"",""time""
""fullscreenenter"",""1"",""5407""
","
","
","""event"",""trial"",""time""
""fullscreenenter"",""1"",""5407""
","
",,,,,,,,,,,,"[{""stimulus"":""run_exp/static/images/task_images/dig.jpg"",""time"":0.2999999523162842},{""stimulus"":""run_exp/static/images/task_images/land.jpg"",""time"":617.8999999761581},{""stimulus"":""run_exp/static/images/task_images/dig.jpg"",""time"":1217.7999999523163}]",[],3,,,,,,,,,,,,,,
harvest,93,460088,0.0-31.0-1.0,"""event"",""trial"",""time""
""fullscreenenter"",""1"",""5407""
","
","
","""event"",""trial"",""time""
""fullscreenenter"",""1"",""5407""
","
",,null,run_exp/static/images/task_images/gems/19.jpg,null,,,,,,,10,,,3,,,,,19,0.518400075,0.526315789,,,,,,,
decision,94,461697,0.0-31.0-2.0,"""event"",""trial"",""time""
""fullscreenenter"",""1"",""5407""
","
","
","""event"",""trial"",""time""
""fullscreenenter"",""1"",""5407""
","
",,1607,run_exp/static/images/task_images/land.jpg,76,,,,,,,10,,,3,,,,,,,,71499,1,2,TRUE,,,
travel,95,470099,0.0-32.0-0.0,"""event"",""trial"",""time""
""fullscreenenter"",""1"",""5407""
","
","
","""event"",""trial"",""time""
""fullscreenenter"",""1"",""5407""
","
",,,,,,,,,,,,"[{""stimulus"":""run_exp/static/images/task_images/rocket-01.jpg"",""time"":0.2999999523162842},{""stimulus"":""run_exp/static/images/task_images/rocket-02.jpg"",""time"":938.0999999046326},{""stimulus"":""run_exp/static/images/task_images/rocket-03.jpg"",""time"":1877.6999999284744},{""stimulus"":""run_exp/static/images/task_images/rocket-04.jpg"",""time"":2797.6999999284744},{""stimulus"":""run_exp/static/images/task_images/rocket-05.jpg"",""time"":3747.5},{""stimulus"":""run_exp/static/images/task_images/rocket-06.jpg"",""time"":4677.199999928474},{""stimulus"":""run_exp/static/images/task_images/rocket-07.jpg"",""time"":5607.299999952316},{""stimulus"":""run_exp/static/images/task_images/rocket-08.jpg"",""time"":6527.099999904633},{""stimulus"":""run_exp/static/images/task_images/rocket-09.jpg"",""time"":7457.699999928474}]",[],3,,,,,,,,,,,,,,
alien_welcome,96,475118,0.0-32.0-1.0,"""event"",""trial"",""time""
""fullscreenenter"",""1"",""5407""
","
","
","""event"",""trial"",""time""
""fullscreenenter"",""1"",""5407""
","
",,null,run_exp/static/images/task_images/aliens/old_aliens/planet/alien_planet-6.jpg,null,,,,,,,,,,,,,6,"47,39,62,6,5,7,40,17,56,74,13,9,10,32,33,72,4,30,76,60,48,23,14,16,58,11,19,34,61,31,73,65,64",,,,,,,,,,
land,97,475628,0.0-32.0-2.0,"""event"",""trial"",""time""
""fullscreenenter"",""1"",""5407""
","
","
","""event"",""trial"",""time""
""fullscreenenter"",""1"",""5407""
","
",,null,run_exp/static/images/task_images/land.jpg,null,,,,,,,101,,,4,,,,,,,,,,,,,,
dig,98,477638,0.0-32.0-3.0,"""event"",""trial"",""time""
""fullscreenenter"",""1"",""5407""
","
","
","""event"",""trial"",""time""
""fullscreenenter"",""1"",""5407""
","
",,,,,,,,,,,,"[{""stimulus"":""run_exp/static/images/task_images/dig.jpg"",""time"":0.2999999523162842},{""stimulus"":""run_exp/static/images/task_images/land.jpg"",""time"":669},{""stimulus"":""run_exp/static/images/task_images/dig.jpg"",""time"":1338.7999999523163}]",[],4,,,,,,,,,,,,,,
harvest,99,478647,0.0-32.0-4.0,"""event"",""trial"",""time""
""fullscreenenter"",""1"",""5407""
","
","
","""event"",""trial"",""time""
""fullscreenenter"",""1"",""5407""
","
",,null,run_exp/static/images/task_images/gems/101.jpg,null,,,,,,,49,,,4,,,,,101,0.48795029,0.485148515,,,,,,,
decision,100,479687,0.0-32.0-5.0,"""event"",""trial"",""time""
""fullscreenenter"",""1"",""5407""
","
","
","""event"",""trial"",""time""
""fullscreenenter"",""1"",""5407""
","
",,1038.5,run_exp/static/images/task_images/land.jpg,65,,,,,,,49,,,4,,,,,,,,89489,1,0,FALSE,,,
dig,101,481658,0.0-33.0-0.0,"""event"",""trial"",""time""
""fullscreenenter"",""1"",""5407""
","
","
","""event"",""trial"",""time""
""fullscreenenter"",""1"",""5407""
","
",,,,,,,,,,,,"[{""stimulus"":""run_exp/static/images/task_images/dig.jpg"",""time"":0.2999999523162842},{""stimulus"":""run_exp/static/images/task_images/land.jpg"",""time"":667.7000000476837},{""stimulus"":""run_exp/static/images/task_images/dig.jpg"",""time"":1316.1000000238419}]",[],4,,,,,,,,,,,,,,
harvest,102,482668,0.0-33.0-1.0,"""event"",""trial"",""time""
""fullscreenenter"",""1"",""5407""
","
","
","""event"",""trial"",""time""
""fullscreenenter"",""1"",""5407""
","
",,null,run_exp/static/images/task_images/gems/49.jpg,null,,,,,,,25,,,4,,,,,49,0.52022437,0.510204082,,,,,,,
decision,103,483157,0.0-33.0-2.0,"""event"",""trial"",""time""
""fullscreenenter"",""1"",""5407""
","
","
","""event"",""trial"",""time""
""fullscreenenter"",""1"",""5407""
","
",,487.3000001,run_exp/static/images/task_images/land.jpg,65,,,,,,,25,,,4,,,,,,,,92959,1,1,FALSE,,,
dig,104,485688,0.0-34.0-0.0,"""event"",""trial"",""time""
""fullscreenenter"",""1"",""5407""
","
","
","""event"",""trial"",""time""
""fullscreenenter"",""1"",""5407""
","
",,,,,,,,,,,,"[{""stimulus"":""run_exp/static/images/task_images/dig.jpg"",""time"":0.19999992847442627},{""stimulus"":""run_exp/static/images/task_images/land.jpg"",""time"":857.8999999761581},{""stimulus"":""run_exp/static/images/task_images/dig.jpg"",""time"":1677.8999999761581}]",[],4,,,,,,,,,,,,,,
harvest,105,486708,0.0-34.0-1.0,"""event"",""trial"",""time""
""fullscreenenter"",""1"",""5407""
","
","
","""event"",""trial"",""time""
""fullscreenenter"",""1"",""5407""
","
",,null,run_exp/static/images/task_images/gems/25.jpg,null,,,,,,,13,,,4,,,,,25,0.517486229,0.52,,,,,,,
decision,106,487247,0.0-34.0-2.0,"""event"",""trial"",""time""
""fullscreenenter"",""1"",""5407""
","
","
","""event"",""trial"",""time""
""fullscreenenter"",""1"",""5407""
","
",,537.8000001,run_exp/static/images/task_images/land.jpg,65,,,,,,,13,,,4,,,,,,,,97049,1,2,FALSE,,,
dig,107,489728,0.0-35.0-0.0,"""event"",""trial"",""time""
""fullscreenenter"",""1"",""5407""
","
","
","""event"",""trial"",""time""
""fullscreenenter"",""1"",""5407""
","
",,,,,,,,,,,,"[{""stimulus"":""run_exp/static/images/task_images/dig.jpg"",""time"":0.19999992847442627},{""stimulus"":""run_exp/static/images/task_images/land.jpg"",""time"":827.8999999761581},{""stimulus"":""run_exp/static/images/task_images/dig.jpg"",""time"":1647.6999999284744}]",[],4,,,,,,,,,,,,,,
harvest,108,490739,0.0-35.0-1.0,"""event"",""trial"",""time""
""fullscreenenter"",""1"",""5407""
","
","
","""event"",""trial"",""time""
""fullscreenenter"",""1"",""5407""
","
",,null,run_exp/static/images/task_images/gems/13.jpg,null,,,,,,,5,,,4,,,,,13,0.364799312,0.384615385,,,,,,,
decision,109,490887,0.0-35.0-2.0,"""event"",""trial"",""time""
""fullscreenenter"",""1"",""5407""
","
","
","""event"",""trial"",""time""
""fullscreenenter"",""1"",""5407""
","
",,147.0999999,run_exp/static/images/task_images/land.jpg,76,,,,,,,5,,,4,,,,,,,,100689,1,3,TRUE,,,
travel,110,500749,0.0-36.0-0.0,"""event"",""trial"",""time""
""fullscreenenter"",""1"",""5407""
","
","
","""event"",""trial"",""time""
""fullscreenenter"",""1"",""5407""
","
",,,,,,,,,,,,"[{""stimulus"":""run_exp/static/images/task_images/rocket-01.jpg"",""time"":0.2999999523162842},{""stimulus"":""run_exp/static/images/task_images/rocket-02.jpg"",""time"":1107.3999999761581},{""stimulus"":""run_exp/static/images/task_images/rocket-03.jpg"",""time"":2197.7999999523163},{""stimulus"":""run_exp/static/images/task_images/rocket-04.jpg"",""time"":3287.2000000476837},{""stimulus"":""run_exp/static/images/task_images/rocket-05.jpg"",""time"":4387.299999952316},{""stimulus"":""run_exp/static/images/task_images/rocket-06.jpg"",""time"":5476.799999952316},{""stimulus"":""run_exp/static/images/task_images/rocket-07.jpg"",""time"":6567.299999952316},{""stimulus"":""run_exp/static/images/task_images/rocket-08.jpg"",""time"":7677.299999952316},{""stimulus"":""run_exp/static/images/task_images/rocket-09.jpg"",""time"":8767.299999952316}]",[],4,,,,,,,,,,,,,,
alien_welcome,111,505759,0.0-36.0-1.0,"""event"",""trial"",""time""
""fullscreenenter"",""1"",""5407""
","
","
","""event"",""trial"",""time""
""fullscreenenter"",""1"",""5407""
","
",,null,run_exp/static/images/task_images/aliens/old_aliens/planet/alien_planet-5.jpg,null,,,,,,,,,,,,,5,"47,39,62,6,5,7,40,17,56,74,13,9,10,32,33,72,4,30,76,60,48,23,14,16,58,11,19,34,61,31,73,65,64",,,,,,,,,,
land,112,506269,0.0-36.0-2.0,"""event"",""trial"",""time""
""fullscreenenter"",""1"",""5407""
","
","
","""event"",""trial"",""time""
""fullscreenenter"",""1"",""5407""
","
",,null,run_exp/static/images/task_images/land.jpg,null,,,,,,,102,,,5,,,,,,,,,,,,,,
dig,113,508288,0.0-36.0-3.0,"""event"",""trial"",""time""
""fullscreenenter"",""1"",""5407""
","
","
","""event"",""trial"",""time""
""fullscreenenter"",""1"",""5407""
","
",,,,,,,,,,,,"[{""stimulus"":""run_exp/static/images/task_images/dig.jpg"",""time"":0.2999999523162842},{""stimulus"":""run_exp/static/images/task_images/land.jpg"",""time"":668.6999999284744},{""stimulus"":""run_exp/static/images/task_images/dig.jpg"",""time"":1338.1999999284744}]",[],5,,,,,,,,,,,,,,
harvest,114,509298,0.0-36.0-4.0,"""event"",""trial"",""time""
""fullscreenenter"",""1"",""5407""
","
","
","""event"",""trial"",""time""
""fullscreenenter"",""1"",""5407""
","
",,null,run_exp/static/images/task_images/gems/102.jpg,null,,,,,,,45,,,5,,,,,102,0.44096289,0.441176471,,,,,,,
decision,115,509647,0.0-36.0-5.0,"""event"",""trial"",""time""
""fullscreenenter"",""1"",""5407""
","
","
","""event"",""trial"",""time""
""fullscreenenter"",""1"",""5407""
","
",,347.2,run_exp/static/images/task_images/land.jpg,65,,,,,,,45,,,5,,,,,,,,119449,1,0,FALSE,,,
dig,116,512308,0.0-37.0-0.0,"""event"",""trial"",""time""
""fullscreenenter"",""1"",""5407""
","
","
","""event"",""trial"",""time""
""fullscreenenter"",""1"",""5407""
","
",,,,,,,,,,,,"[{""stimulus"":""run_exp/static/images/task_images/dig.jpg"",""time"":0.2999999523162842},{""stimulus"":""run_exp/static/images/task_images/land.jpg"",""time"":887.3999999761581},{""stimulus"":""run_exp/static/images/task_images/dig.jpg"",""time"":1787.7000000476837}]",[],5,,,,,,,,,,,,,,
harvest,117,513319,0.0-37.0-1.0,"""event"",""trial"",""time""
""fullscreenenter"",""1"",""5407""
","
","
","""event"",""trial"",""time""
""fullscreenenter"",""1"",""5407""
","
",,null,run_exp/static/images/task_images/gems/45.jpg,null,,,,,,,23,,,5,,,,,45,0.512323189,0.511111111,,,,,,,
decision,118,513608,0.0-37.0-2.0,"""event"",""trial"",""time""
""fullscreenenter"",""1"",""5407""
","
","
","""event"",""trial"",""time""
""fullscreenenter"",""1"",""5407""
","
",,287.7,run_exp/static/images/task_images/land.jpg,65,,,,,,,23,,,5,,,,,,,,123410,1,1,FALSE,,,
dig,119,516339,0.0-38.0-0.0,"""event"",""trial"",""time""
""fullscreenenter"",""1"",""5407""
","
","
","""event"",""trial"",""time""
""fullscreenenter"",""1"",""5407""
","
",,,,,,,,,,,,"[{""stimulus"":""run_exp/static/images/task_images/dig.jpg"",""time"":0.2999999523162842},{""stimulus"":""run_exp/static/images/task_images/land.jpg"",""time"":908},{""stimulus"":""run_exp/static/images/task_images/dig.jpg"",""time"":1827.2999999523163}]",[],5,,,,,,,,,,,,,,
harvest,120,517358,0.0-38.0-1.0,"""event"",""trial"",""time""
""fullscreenenter"",""1"",""5407""
","
","
","""event"",""trial"",""time""
""fullscreenenter"",""1"",""5407""
","
",,null,run_exp/static/images/task_images/gems/23.jpg,null,,,,,,,12,,,5,,,,,23,0.524503425,0.52173913,,,,,,,
decision,121,517778,0.0-38.0-2.0,"""event"",""trial"",""time""
""fullscreenenter"",""1"",""5407""
","
","
","""event"",""trial"",""time""
""fullscreenenter"",""1"",""5407""
","
",,417.9,run_exp/static/images/task_images/land.jpg,65,,,,,,,12,,,5,,,,,,,,127580,1,2,FALSE,,,
dig,122,520378,0.0-39.0-0.0,"""event"",""trial"",""time""
""fullscreenenter"",""1"",""5407""
","
","
","""event"",""trial"",""time""
""fullscreenenter"",""1"",""5407""
","
",,,,,,,,,,,,"[{""stimulus"":""run_exp/static/images/task_images/dig.jpg"",""time"":0.3999999761581421},{""stimulus"":""run_exp/static/images/task_images/land.jpg"",""time"":867},{""stimulus"":""run_exp/static/images/task_images/dig.jpg"",""time"":1737.7000000476837}]",[],5,,,,,,,,,,,,,,
harvest,123,521398,0.0-39.0-1.0,"""event"",""trial"",""time""
""fullscreenenter"",""1"",""5407""
","
","
","""event"",""trial"",""time""
""fullscreenenter"",""1"",""5407""
","
",,null,run_exp/static/images/task_images/gems/12.jpg,null,,,,,,,6,,,5,,,,,12,0.485004334,0.5,,,,,,,
decision,124,521417,0.0-39.0-2.0,"""event"",""trial"",""time""
""fullscreenenter"",""1"",""5407""
","
","
","""event"",""trial"",""time""
""fullscreenenter"",""1"",""5407""
","
",,17.5999999,run_exp/static/images/task_images/land.jpg,76,,,,,,,6,,,5,,,,,,,,131219,1,3,TRUE,,,
travel,125,531416,0.0-40.0-0.0,"""event"",""trial"",""time""
""fullscreenenter"",""1"",""5407""
","
","
","""event"",""trial"",""time""
""fullscreenenter"",""1"",""5407""
","
",,,,,,,,,,,,"[{""stimulus"":""run_exp/static/images/task_images/rocket-01.jpg"",""time"":0.20000004768371582},{""stimulus"":""run_exp/static/images/task_images/rocket-02.jpg"",""time"":1117.7000000476837},{""stimulus"":""run_exp/static/images/task_images/rocket-03.jpg"",""time"":2227.4000000953674},{""stimulus"":""run_exp/static/images/task_images/rocket-04.jpg"",""time"":3347.4000000953674},{""stimulus"":""run_exp/static/images/task_images/rocket-05.jpg"",""time"":4437.700000047684},{""stimulus"":""run_exp/static/images/task_images/rocket-06.jpg"",""time"":5547.700000047684},{""stimulus"":""run_exp/static/images/task_images/rocket-07.jpg"",""time"":6657.300000071526},{""stimulus"":""run_exp/static/images/task_images/rocket-08.jpg"",""time"":7767.900000095367},{""stimulus"":""run_exp/static/images/task_images/rocket-09.jpg"",""time"":8887.700000047684}]",[],5,,,,,,,,,,,,,,
alien_welcome,126,536419,0.0-40.0-1.0,"""event"",""trial"",""time""
""fullscreenenter"",""1"",""5407""
","
","
","""event"",""trial"",""time""
""fullscreenenter"",""1"",""5407""
","
",,null,run_exp/static/images/task_images/aliens/old_aliens/planet/alien_planet-7.jpg,null,,,,,,,,,,,,,7,"47,39,62,6,5,7,40,17,56,74,13,9,10,32,33,72,4,30,76,60,48,23,14,16,58,11,19,34,61,31,73,65,64",,,,,,,,,,
land,127,536939,0.0-40.0-2.0,"""event"",""trial"",""time""
""fullscreenenter"",""1"",""5407""
","
","
","""event"",""trial"",""time""
""fullscreenenter"",""1"",""5407""
","
",,null,run_exp/static/images/task_images/land.jpg,null,,,,,,,98,,,6,,,,,,,,,,,,,,
dig,128,538958,0.0-40.0-3.0,"""event"",""trial"",""time""
""fullscreenenter"",""1"",""5407""
","
","
","""event"",""trial"",""time""
""fullscreenenter"",""1"",""5407""
","
",,,,,,,,,,,,"[{""stimulus"":""run_exp/static/images/task_images/dig.jpg"",""time"":0.30000007152557373},{""stimulus"":""run_exp/static/images/task_images/land.jpg"",""time"":687.6000000238419},{""stimulus"":""run_exp/static/images/task_images/dig.jpg"",""time"":1337.7000000476837}]",[],6,,,,,,,,,,,,,,
harvest,129,539969,0.0-40.0-4.0,"""event"",""trial"",""time""
""fullscreenenter"",""1"",""5407""
","
","
","""event"",""trial"",""time""
""fullscreenenter"",""1"",""5407""
","
",,null,run_exp/static/images/task_images/gems/98.jpg,null,,,,,,,79,,,6,,,,,98,0.801595478,0.806122449,,,,,,,
decision,130,540327,0.0-40.0-5.0,"""event"",""trial"",""time""
""fullscreenenter"",""1"",""5407""
","
","
","""event"",""trial"",""time""
""fullscreenenter"",""1"",""5407""
","
",,357.3,run_exp/static/images/task_images/land.jpg,65,,,,,,,79,,,6,,,,,,,,150130,1,0,FALSE,,,
dig,131,542989,0.0-41.0-0.0,"""event"",""trial"",""time""
""fullscreenenter"",""1"",""5407""
","
","
","""event"",""trial"",""time""
""fullscreenenter"",""1"",""5407""
","
",,,,,,,,,,,,"[{""stimulus"":""run_exp/static/images/task_images/dig.jpg"",""time"":0.19999992847442627},{""stimulus"":""run_exp/static/images/task_images/land.jpg"",""time"":884.6999999284744},{""stimulus"":""run_exp/static/images/task_images/dig.jpg"",""time"":1765.1999999284744}]",[],6,,,,,,,,,,,,,,
harvest,132,543999,0.0-41.0-1.0,"""event"",""trial"",""time""
""fullscreenenter"",""1"",""5407""
","
","
","""event"",""trial"",""time""
""fullscreenenter"",""1"",""5407""
","
",,null,run_exp/static/images/task_images/gems/79.jpg,null,,,,,,,68,,,6,,,,,79,0.857133469,0.860759494,,,,,,,
decision,133,544308,0.0-41.0-2.0,"""event"",""trial"",""time""
""fullscreenenter"",""1"",""5407""
","
","
","""event"",""trial"",""time""
""fullscreenenter"",""1"",""5407""
","
",,307.2,run_exp/static/images/task_images/land.jpg,65,,,,,,,68,,,6,,,,,,,,154110,1,1,FALSE,,,
dig,134,547019,0.0-42.0-0.0,"""event"",""trial"",""time""
""fullscreenenter"",""1"",""5407""
","
","
","""event"",""trial"",""time""
""fullscreenenter"",""1"",""5407""
","
",,,,,,,,,,,,"[{""stimulus"":""run_exp/static/images/task_images/dig.jpg"",""time"":0.30000007152557373},{""stimulus"":""run_exp/static/images/task_images/land.jpg"",""time"":918.4000000953674},{""stimulus"":""run_exp/static/images/task_images/dig.jpg"",""time"":1808.3000000715256}]",[],6,,,,,,,,,,,,,,
harvest,135,548039,0.0-42.0-1.0,"""event"",""trial"",""time""
""fullscreenenter"",""1"",""5407""
","
","
","""event"",""trial"",""time""
""fullscreenenter"",""1"",""5407""
","
",,null,run_exp/static/images/task_images/gems/68.jpg,null,,,,,,,59,,,6,,,,,68,0.860348164,0.867647059,,,,,,,
decision,136,548648,0.0-42.0-2.0,"""event"",""trial"",""time""
""fullscreenenter"",""1"",""5407""
","
","
","""event"",""trial"",""time""
""fullscreenenter"",""1"",""5407""
","
",,607.3,run_exp/static/images/task_images/land.jpg,65,,,,,,,59,,,6,,,,,,,,158450,1,2,FALSE,,,
dig,137,551049,0.0-43.0-0.0,"""event"",""trial"",""time""
""fullscreenenter"",""1"",""5407""
","
","
","""event"",""trial"",""time""
""fullscreenenter"",""1"",""5407""
","
",,,,,,,,,,,,"[{""stimulus"":""run_exp/static/images/task_images/dig.jpg"",""time"":0.2999999523162842},{""stimulus"":""run_exp/static/images/task_images/land.jpg"",""time"":807.7000000476837},{""stimulus"":""run_exp/static/images/task_images/dig.jpg"",""time"":1608.5}]",[],6,,,,,,,,,,,,,,
harvest,138,552069,0.0-43.0-1.0,"""event"",""trial"",""time""
""fullscreenenter"",""1"",""5407""
","
","
","""event"",""trial"",""time""
""fullscreenenter"",""1"",""5407""
","
",,null,run_exp/static/images/task_images/gems/59.jpg,null,,,,,,,47,,,6,,,,,59,0.788971465,0.796610169,,,,,,,
decision,139,552378,0.0-43.0-2.0,"""event"",""trial"",""time""
""fullscreenenter"",""1"",""5407""
","
","
","""event"",""trial"",""time""
""fullscreenenter"",""1"",""5407""
","
",,307.5,run_exp/static/images/task_images/land.jpg,65,,,,,,,47,,,6,,,,,,,,162180,1,3,FALSE,,,
dig,140,555089,0.0-44.0-0.0,"""event"",""trial"",""time""
""fullscreenenter"",""1"",""5407""
","
","
","""event"",""trial"",""time""
""fullscreenenter"",""1"",""5407""
","
",,,,,,,,,,,,"[{""stimulus"":""run_exp/static/images/task_images/dig.jpg"",""time"":0.20000004768371582},{""stimulus"":""run_exp/static/images/task_images/land.jpg"",""time"":898.3000000715256},{""stimulus"":""run_exp/static/images/task_images/dig.jpg"",""time"":1797.3000000715256}]",[],6,,,,,,,,,,,,,,
harvest,141,556099,0.0-44.0-1.0,"""event"",""trial"",""time""
""fullscreenenter"",""1"",""5407""
","
","
","""event"",""trial"",""time""
""fullscreenenter"",""1"",""5407""
","
",,null,run_exp/static/images/task_images/gems/47.jpg,null,,,,,,,36,,,6,,,,,47,0.775128524,0.765957447,,,,,,,
decision,142,556258,0.0-44.0-2.0,"""event"",""trial"",""time""
""fullscreenenter"",""1"",""5407""
","
","
","""event"",""trial"",""time""
""fullscreenenter"",""1"",""5407""
","
",,157.3,run_exp/static/images/task_images/land.jpg,65,,,,,,,36,,,6,,,,,,,,166060,1,4,FALSE,,,
dig,143,559109,0.0-45.0-0.0,"""event"",""trial"",""time""
""fullscreenenter"",""1"",""5407""
","
","
","""event"",""trial"",""time""
""fullscreenenter"",""1"",""5407""
","
",,,,,,,,,,,,"[{""stimulus"":""run_exp/static/images/task_images/dig.jpg"",""time"":0.2999999523162842},{""stimulus"":""run_exp/static/images/task_images/land.jpg"",""time"":967.7999999523163},{""stimulus"":""run_exp/static/images/task_images/dig.jpg"",""time"":1907.6000000238419}]",[],6,,,,,,,,,,,,,,
harvest,144,560129,0.0-45.0-1.0,"""event"",""trial"",""time""
""fullscreenenter"",""1"",""5407""
","
","
","""event"",""trial"",""time""
""fullscreenenter"",""1"",""5407""
","
",,null,run_exp/static/images/task_images/gems/36.jpg,null,,,,,,,27,,,6,,,,,36,0.760318717,0.75,,,,,,,
decision,145,560288,0.0-45.0-2.0,"""event"",""trial"",""time""
""fullscreenenter"",""1"",""5407""
","
","
","""event"",""trial"",""time""
""fullscreenenter"",""1"",""5407""
","
",,157.5,run_exp/static/images/task_images/land.jpg,65,,,,,,,27,,,6,,,,,,,,170090,1,5,FALSE,,,
dig,146,563149,0.0-46.0-0.0,"""event"",""trial"",""time""
""fullscreenenter"",""1"",""5407""
","
","
","""event"",""trial"",""time""
""fullscreenenter"",""1"",""5407""
","
",,,,,,,,,,,,"[{""stimulus"":""run_exp/static/images/task_images/dig.jpg"",""time"":0.30000007152557373},{""stimulus"":""run_exp/static/images/task_images/land.jpg"",""time"":967.7000000476837},{""stimulus"":""run_exp/static/images/task_images/dig.jpg"",""time"":1905.6000000238419}]",[],6,,,,,,,,,,,,,,
harvest,147,564159,0.0-46.0-1.0,"""event"",""trial"",""time""
""fullscreenenter"",""1"",""5407""
","
","
","""event"",""trial"",""time""
""fullscreenenter"",""1"",""5407""
","
",,null,run_exp/static/images/task_images/gems/27.jpg,null,,,,,,,22,,,6,,,,,27,0.807874534,0.814814815,,,,,,,
decision,148,564178,0.0-46.0-2.0,"""event"",""trial"",""time""
""fullscreenenter"",""1"",""5407""
","
","
","""event"",""trial"",""time""
""fullscreenenter"",""1"",""5407""
","
",,17.10000002,run_exp/static/images/task_images/land.jpg,65,,,,,,,22,,,6,,,,,,,,173980,1,6,FALSE,,,
dig,149,567179,0.0-47.0-0.0,"""event"",""trial"",""time""
""fullscreenenter"",""1"",""5407""
","
","
","""event"",""trial"",""time""
""fullscreenenter"",""1"",""5407""
","
",,,,,,,,,,,,"[{""stimulus"":""run_exp/static/images/task_images/dig.jpg"",""time"":0.2999999523162842},{""stimulus"":""run_exp/static/images/task_images/land.jpg"",""time"":997.3999999761581},{""stimulus"":""run_exp/static/images/task_images/dig.jpg"",""time"":2007.3999999761581}]",[],6,,,,,,,,,,,,,,
harvest,150,568199,0.0-47.0-1.0,"""event"",""trial"",""time""
""fullscreenenter"",""1"",""5407""
","
","
","""event"",""trial"",""time""
""fullscreenenter"",""1"",""5407""
","
",,null,run_exp/static/images/task_images/gems/22.jpg,null,,,,,,,17,,,6,,,,,22,0.752471955,0.772727273,,,,,,,
decision,151,568207,0.0-47.0-2.0,"""event"",""trial"",""time""
""fullscreenenter"",""1"",""5407""
","
","
","""event"",""trial"",""time""
""fullscreenenter"",""1"",""5407""
","
",,6.899999976,run_exp/static/images/task_images/land.jpg,65,,,,,,,17,,,6,,,,,,,,178010,1,7,FALSE,,,
dig,152,571209,0.0-48.0-0.0,"""event"",""trial"",""time""
""fullscreenenter"",""1"",""5407""
","
","
","""event"",""trial"",""time""
""fullscreenenter"",""1"",""5407""
","
",,,,,,,,,,,,"[{""stimulus"":""run_exp/static/images/task_images/dig.jpg"",""time"":0.2999999523162842},{""stimulus"":""run_exp/static/images/task_images/land.jpg"",""time"":1017.8999999761581},{""stimulus"":""run_exp/static/images/task_images/dig.jpg"",""time"":2007.2999999523163}]",[],6,,,,,,,,,,,,,,
harvest,153,572229,0.0-48.0-1.0,"""event"",""trial"",""time""
""fullscreenenter"",""1"",""5407""
","
","
","""event"",""trial"",""time""
""fullscreenenter"",""1"",""5407""
","
",,null,run_exp/static/images/task_images/gems/17.jpg,null,,,,,,,14,,,6,,,,,17,0.839122053,0.823529412,,,,,,,
decision,154,573518,0.0-48.0-2.0,"""event"",""trial"",""time""
""fullscreenenter"",""1"",""5407""
","
","
","""event"",""trial"",""time""
""fullscreenenter"",""1"",""5407""
","
",,1287.3,run_exp/static/images/task_images/land.jpg,76,,,,,,,14,,,6,,,,,,,,183320,1,8,TRUE,,,
travel,155,582239,0.0-49.0-0.0,"""event"",""trial"",""time""
""fullscreenenter"",""1"",""5407""
","
","
","""event"",""trial"",""time""
""fullscreenenter"",""1"",""5407""
","
",,,,,,,,,,,,"[{""stimulus"":""run_exp/static/images/task_images/rocket-01.jpg"",""time"":0.2999999523162842},{""stimulus"":""run_exp/static/images/task_images/rocket-02.jpg"",""time"":977.2000000476837},{""stimulus"":""run_exp/static/images/task_images/rocket-03.jpg"",""time"":1957.7999999523163},{""stimulus"":""run_exp/static/images/task_images/rocket-04.jpg"",""time"":2918},{""stimulus"":""run_exp/static/images/task_images/rocket-05.jpg"",""time"":3887.2000000476837},{""stimulus"":""run_exp/static/images/task_images/rocket-06.jpg"",""time"":4842.5},{""stimulus"":""run_exp/static/images/task_images/rocket-07.jpg"",""time"":5817.5},{""stimulus"":""run_exp/static/images/task_images/rocket-08.jpg"",""time"":6787.600000023842},{""stimulus"":""run_exp/static/images/task_images/rocket-09.jpg"",""time"":7757.899999976158}]",[],6,,,,,,,,,,,,,,
alien_welcome,156,587259,0.0-49.0-1.0,"""event"",""trial"",""time""
""fullscreenenter"",""1"",""5407""
","
","
","""event"",""trial"",""time""
""fullscreenenter"",""1"",""5407""
","
",,null,run_exp/static/images/task_images/aliens/old_aliens/planet/alien_planet-40.jpg,null,,,,,,,,,,,,,40,"47,39,62,6,5,7,40,17,56,74,13,9,10,32,33,72,4,30,76,60,48,23,14,16,58,11,19,34,61,31,73,65,64",,,,,,,,,,
land,157,587779,0.0-49.0-2.0,"""event"",""trial"",""time""
""fullscreenenter"",""1"",""5407""
","
","
","""event"",""trial"",""time""
""fullscreenenter"",""1"",""5407""
","
",,null,run_exp/static/images/task_images/land.jpg,null,,,,,,,100,,,7,,,,,,,,,,,,,,
dig,158,589789,0.0-49.0-3.0,"""event"",""trial"",""time""
""fullscreenenter"",""1"",""5407""
","
","
","""event"",""trial"",""time""
""fullscreenenter"",""1"",""5407""
","
",,,,,,,,,,,,"[{""stimulus"":""run_exp/static/images/task_images/dig.jpg"",""time"":0.40000009536743164},{""stimulus"":""run_exp/static/images/task_images/land.jpg"",""time"":679.2000000476837},{""stimulus"":""run_exp/static/images/task_images/dig.jpg"",""time"":1338.9000000953674}]",[],7,,,,,,,,,,,,,,
harvest,159,590799,0.0-49.0-4.0,"""event"",""trial"",""time""
""fullscreenenter"",""1"",""5407""
","
","
","""event"",""trial"",""time""
""fullscreenenter"",""1"",""5407""
","
",,null,run_exp/static/images/task_images/gems/100.jpg,null,,,,,,,86,,,7,,,,,100,0.855408862,0.86,,,,,,,
decision,160,591218,0.0-49.0-5.0,"""event"",""trial"",""time""
""fullscreenenter"",""1"",""5407""
","
","
","""event"",""trial"",""time""
""fullscreenenter"",""1"",""5407""
","
",,416.8000001,run_exp/static/images/task_images/land.jpg,65,,,,,,,86,,,7,,,,,,,,201020,1,0,FALSE,,,
dig,161,593819,0.0-50.0-0.0,"""event"",""trial"",""time""
""fullscreenenter"",""1"",""5407""
","
","
","""event"",""trial"",""time""
""fullscreenenter"",""1"",""5407""
","
",,,,,,,,,,,,"[{""stimulus"":""run_exp/static/images/task_images/dig.jpg"",""time"":0.2999999523162842},{""stimulus"":""run_exp/static/images/task_images/land.jpg"",""time"":877.1000000238419},{""stimulus"":""run_exp/static/images/task_images/dig.jpg"",""time"":1737.7999999523163}]",[],7,,,,,,,,,,,,,,
harvest,162,594839,0.0-50.0-1.0,"""event"",""trial"",""time""
""fullscreenenter"",""1"",""5407""
","
","
","""event"",""trial"",""time""
""fullscreenenter"",""1"",""5407""
","
",,null,run_exp/static/images/task_images/gems/86.jpg,null,,,,,,,74,,,7,,,,,86,0.86137696,0.860465116,,,,,,,
decision,163,595168,0.0-50.0-2.0,"""event"",""trial"",""time""
""fullscreenenter"",""1"",""5407""
","
","
","""event"",""trial"",""time""
""fullscreenenter"",""1"",""5407""
","
",,327.4000001,run_exp/static/images/task_images/land.jpg,65,,,,,,,74,,,7,,,,,,,,204970,1,1,FALSE,,,
dig,164,597859,0.0-51.0-0.0,"""event"",""trial"",""time""
""fullscreenenter"",""1"",""5407""
","
","
","""event"",""trial"",""time""
""fullscreenenter"",""1"",""5407""
","
",,,,,,,,,,,,"[{""stimulus"":""run_exp/static/images/task_images/dig.jpg"",""time"":0.30000007152557373},{""stimulus"":""run_exp/static/images/task_images/land.jpg"",""time"":907.2000000476837},{""stimulus"":""run_exp/static/images/task_images/dig.jpg"",""time"":1796.8000000715256}]",[],7,,,,,,,,,,,,,,
harvest,165,598879,0.0-51.0-1.0,"""event"",""trial"",""time""
""fullscreenenter"",""1"",""5407""
","
","
","""event"",""trial"",""time""
""fullscreenenter"",""1"",""5407""
","
",,null,run_exp/static/images/task_images/gems/74.jpg,null,,,,,,,59,,,7,,,,,74,0.798014977,0.797297297,,,,,,,
decision,166,599428,0.0-51.0-2.0,"""event"",""trial"",""time""
""fullscreenenter"",""1"",""5407""
","
","
","""event"",""trial"",""time""
""fullscreenenter"",""1"",""5407""
","
",,546.4000001,run_exp/static/images/task_images/land.jpg,65,,,,,,,59,,,7,,,,,,,,209230,1,2,FALSE,,,
dig,167,601899,0.0-52.0-0.0,"""event"",""trial"",""time""
""fullscreenenter"",""1"",""5407""
","
","
","""event"",""trial"",""time""
""fullscreenenter"",""1"",""5407""
","
",,,,,,,,,,,,"[{""stimulus"":""run_exp/static/images/task_images/dig.jpg"",""time"":0.3999999761581421},{""stimulus"":""run_exp/static/images/task_images/land.jpg"",""time"":835.1000000238419},{""stimulus"":""run_exp/static/images/task_images/dig.jpg"",""time"":1647.1000000238419}]",[],7,,,,,,,,,,,,,,
harvest,168,602909,0.0-52.0-1.0,"""event"",""trial"",""time""
""fullscreenenter"",""1"",""5407""
","
","
","""event"",""trial"",""time""
""fullscreenenter"",""1"",""5407""
","
",,null,run_exp/static/images/task_images/gems/59.jpg,null,,,,,,,43,,,7,,,,,59,0.725380137,0.728813559,,,,,,,
decision,169,603164,0.0-52.0-2.0,"""event"",""trial"",""time""
""fullscreenenter"",""1"",""5407""
","
","
","""event"",""trial"",""time""
""fullscreenenter"",""1"",""5407""
","
",,257.6,run_exp/static/images/task_images/land.jpg,65,,,,,,,43,,,7,,,,,,,,212966,1,3,FALSE,,,
dig,170,605925,0.0-53.0-0.0,"""event"",""trial"",""time""
""fullscreenenter"",""1"",""5407""
","
","
","""event"",""trial"",""time""
""fullscreenenter"",""1"",""5407""
","
",,,,,,,,,,,,"[{""stimulus"":""run_exp/static/images/task_images/dig.jpg"",""time"":0.2999999523162842},{""stimulus"":""run_exp/static/images/task_images/land.jpg"",""time"":927.1999999284744},{""stimulus"":""run_exp/static/images/task_images/dig.jpg"",""time"":1847.5}]",[],7,,,,,,,,,,,,,,
harvest,171,606935,0.0-53.0-1.0,"""event"",""trial"",""time""
""fullscreenenter"",""1"",""5407""
","
","
","""event"",""trial"",""time""
""fullscreenenter"",""1"",""5407""
","
",,null,run_exp/static/images/task_images/gems/43.jpg,null,,,,,,,34,,,7,,,,,43,0.789724163,0.790697674,,,,,,,
decision,172,607254,0.0-53.0-2.0,"""event"",""trial"",""time""
""fullscreenenter"",""1"",""5407""
","
","
","""event"",""trial"",""time""
""fullscreenenter"",""1"",""5407""
","
",,317.5999999,run_exp/static/images/task_images/land.jpg,65,,,,,,,34,,,7,,,,,,,,217056,1,4,FALSE,,,
dig,173,609945,0.0-54.0-0.0,"""event"",""trial"",""time""
""fullscreenenter"",""1"",""5407""
","
","
","""event"",""trial"",""time""
""fullscreenenter"",""1"",""5407""
","
",,,,,,,,,,,,"[{""stimulus"":""run_exp/static/images/task_images/dig.jpg"",""time"":0.3999999761581421},{""stimulus"":""run_exp/static/images/task_images/land.jpg"",""time"":907.1000000238419},{""stimulus"":""run_exp/static/images/task_images/dig.jpg"",""time"":1807}]",[],7,,,,,,,,,,,,,,
harvest,174,610955,0.0-54.0-1.0,"""event"",""trial"",""time""
""fullscreenenter"",""1"",""5407""
","
","
","""event"",""trial"",""time""
""fullscreenenter"",""1"",""5407""
","
",,null,run_exp/static/images/task_images/gems/34.jpg,null,,,,,,,28,,,7,,,,,34,0.830942724,0.823529412,,,,,,,
decision,175,611444,0.0-54.0-2.0,"""event"",""trial"",""time""
""fullscreenenter"",""1"",""5407""
","
","
","""event"",""trial"",""time""
""fullscreenenter"",""1"",""5407""
","
",,487.3000001,run_exp/static/images/task_images/land.jpg,65,,,,,,,28,,,7,,,,,,,,221246,1,5,FALSE,,,
dig,176,613965,0.0-55.0-0.0,"""event"",""trial"",""time""
""fullscreenenter"",""1"",""5407""
","
","
","""event"",""trial"",""time""
""fullscreenenter"",""1"",""5407""
","
",,,,,,,,,,,,"[{""stimulus"":""run_exp/static/images/task_images/dig.jpg"",""time"":0.20000004768371582},{""stimulus"":""run_exp/static/images/task_images/land.jpg"",""time"":847.5},{""stimulus"":""run_exp/static/images/task_images/dig.jpg"",""time"":1687.3000000715256}]",[],7,,,,,,,,,,,,,,
harvest,177,614985,0.0-55.0-1.0,"""event"",""trial"",""time""
""fullscreenenter"",""1"",""5407""
","
","
","""event"",""trial"",""time""
""fullscreenenter"",""1"",""5407""
","
",,null,run_exp/static/images/task_images/gems/28.jpg,null,,,,,,,23,,,7,,,,,28,0.831511271,0.821428571,,,,,,,
decision,178,615284,0.0-55.0-2.0,"""event"",""trial"",""time""
""fullscreenenter"",""1"",""5407""
","
","
","""event"",""trial"",""time""
""fullscreenenter"",""1"",""5407""
","
",,297.6,run_exp/static/images/task_images/land.jpg,65,,,,,,,23,,,7,,,,,,,,225086,1,6,FALSE,,,
dig,179,617995,0.0-56.0-0.0,"""event"",""trial"",""time""
""fullscreenenter"",""1"",""5407""
","
","
","""event"",""trial"",""time""
""fullscreenenter"",""1"",""5407""
","
",,,,,,,,,,,,"[{""stimulus"":""run_exp/static/images/task_images/dig.jpg"",""time"":0.3999999761581421},{""stimulus"":""run_exp/static/images/task_images/land.jpg"",""time"":907.8000000715256},{""stimulus"":""run_exp/static/images/task_images/dig.jpg"",""time"":1807.3000000715256}]",[],7,,,,,,,,,,,,,,
harvest,180,619015,0.0-56.0-1.0,"""event"",""trial"",""time""
""fullscreenenter"",""1"",""5407""
","
","
","""event"",""trial"",""time""
""fullscreenenter"",""1"",""5407""
","
",,null,run_exp/static/images/task_images/gems/23.jpg,null,,,,,,,18,,,7,,,,,23,0.763140863,0.782608696,,,,,,,
decision,181,620775,0.0-56.0-2.0,"""event"",""trial"",""time""
""fullscreenenter"",""1"",""5407""
","
","
","""event"",""trial"",""time""
""fullscreenenter"",""1"",""5407""
","
",,1757.9,run_exp/static/images/task_images/land.jpg,65,,,,,,,18,,,7,,,,,,,,230577,1,7,FALSE,,,
dig,182,622035,0.0-57.0-0.0,"""event"",""trial"",""time""
""fullscreenenter"",""1"",""5407""
","
","
","""event"",""trial"",""time""
""fullscreenenter"",""1"",""5407""
","
",,,,,,,,,,,,"[{""stimulus"":""run_exp/static/images/task_images/dig.jpg"",""time"":0.20000004768371582},{""stimulus"":""run_exp/static/images/task_images/land.jpg"",""time"":417.2999999523163},{""stimulus"":""run_exp/static/images/task_images/dig.jpg"",""time"":847.1000000238419}]",[],7,,,,,,,,,,,,,,
harvest,183,623055,0.0-57.0-1.0,"""event"",""trial"",""time""
""fullscreenenter"",""1"",""5407""
","
","
","""event"",""trial"",""time""
""fullscreenenter"",""1"",""5407""
","
",,null,run_exp/static/images/task_images/gems/18.jpg,null,,,,,,,15,,,7,,,,,18,0.824164426,0.833333333,,,,,,,
decision,184,623394,0.0-57.0-2.0,"""event"",""trial"",""time""
""fullscreenenter"",""1"",""5407""
","
","
","""event"",""trial"",""time""
""fullscreenenter"",""1"",""5407""
","
",,337.6,run_exp/static/images/task_images/land.jpg,76,,,,,,,15,,,7,,,,,,,,233196,1,8,TRUE,,,
travel,185,633065,0.0-58.0-0.0,"""event"",""trial"",""time""
""fullscreenenter"",""1"",""5407""
","
","
","""event"",""trial"",""time""
""fullscreenenter"",""1"",""5407""
","
",,,,,,,,,,,,"[{""stimulus"":""run_exp/static/images/task_images/rocket-01.jpg"",""time"":0.2999999523162842},{""stimulus"":""run_exp/static/images/task_images/rocket-02.jpg"",""time"":1076.7999999523163},{""stimulus"":""run_exp/static/images/task_images/rocket-03.jpg"",""time"":2164.600000023842},{""stimulus"":""run_exp/static/images/task_images/rocket-04.jpg"",""time"":3236.7999999523163},{""stimulus"":""run_exp/static/images/task_images/rocket-05.jpg"",""time"":4306.600000023842},{""stimulus"":""run_exp/static/images/task_images/rocket-06.jpg"",""time"":5377.399999976158},{""stimulus"":""run_exp/static/images/task_images/rocket-07.jpg"",""time"":6456.799999952316},{""stimulus"":""run_exp/static/images/task_images/rocket-08.jpg"",""time"":7530.5},{""stimulus"":""run_exp/static/images/task_images/rocket-09.jpg"",""time"":8596.899999976158}]",[],7,,,,,,,,,,,,,,
alien_welcome,186,638085,0.0-58.0-1.0,"""event"",""trial"",""time""
""fullscreenenter"",""1"",""5407""
","
","
","""event"",""trial"",""time""
""fullscreenenter"",""1"",""5407""
","
",,null,run_exp/static/images/task_images/aliens/old_aliens/planet/alien_planet-17.jpg,null,,,,,,,,,,,,,17,"47,39,62,6,5,7,40,17,56,74,13,9,10,32,33,72,4,30,76,60,48,23,14,16,58,11,19,34,61,31,73,65,64",,,,,,,,,,
land,187,638596,0.0-58.0-2.0,"""event"",""trial"",""time""
""fullscreenenter"",""1"",""5407""
","
","
","""event"",""trial"",""time""
""fullscreenenter"",""1"",""5407""
","
",,null,run_exp/static/images/task_images/land.jpg,null,,,,,,,110,,,8,,,,,,,,,,,,,,
dig,188,640605,0.0-58.0-3.0,"""event"",""trial"",""time""
""fullscreenenter"",""1"",""5407""
","
","
","""event"",""trial"",""time""
""fullscreenenter"",""1"",""5407""
","
",,,,,,,,,,,,"[{""stimulus"":""run_exp/static/images/task_images/dig.jpg"",""time"":0.30000007152557373},{""stimulus"":""run_exp/static/images/task_images/land.jpg"",""time"":688.5},{""stimulus"":""run_exp/static/images/task_images/dig.jpg"",""time"":1337.9000000953674}]",[],8,,,,,,,,,,,,,,
harvest,189,641625,0.0-58.0-4.0,"""event"",""trial"",""time""
""fullscreenenter"",""1"",""5407""
","
","
","""event"",""trial"",""time""
""fullscreenenter"",""1"",""5407""
","
",,null,run_exp/static/images/task_images/gems/110.jpg,null,,,,,,,85,,,8,,,,,110,0.773502065,0.772727273,,,,,,,
decision,190,641954,0.0-58.0-5.0,"""event"",""trial"",""time""
""fullscreenenter"",""1"",""5407""
","
","
","""event"",""trial"",""time""
""fullscreenenter"",""1"",""5407""
","
",,327,run_exp/static/images/task_images/land.jpg,65,,,,,,,85,,,8,,,,,,,,251756,1,0,FALSE,,,
dig,191,644645,0.0-59.0-0.0,"""event"",""trial"",""time""
""fullscreenenter"",""1"",""5407""
","
","
","""event"",""trial"",""time""
""fullscreenenter"",""1"",""5407""
","
",,,,,,,,,,,,"[{""stimulus"":""run_exp/static/images/task_images/dig.jpg"",""time"":0.2999999523162842},{""stimulus"":""run_exp/static/images/task_images/land.jpg"",""time"":892.6999999284744},{""stimulus"":""run_exp/static/images/task_images/dig.jpg"",""time"":1793.5999999046326}]",[],8,,,,,,,,,,,,,,
harvest,192,645655,0.0-59.0-1.0,"""event"",""trial"",""time""
""fullscreenenter"",""1"",""5407""
","
","
","""event"",""trial"",""time""
""fullscreenenter"",""1"",""5407""
","
",,null,run_exp/static/images/task_images/gems/85.jpg,null,,,,,,,69,,,8,,,,,85,0.806973313,0.811764706,,,,,,,
decision,193,646024,0.0-59.0-2.0,"""event"",""trial"",""time""
""fullscreenenter"",""1"",""5407""
","
","
","""event"",""trial"",""time""
""fullscreenenter"",""1"",""5407""
","
",,368,run_exp/static/images/task_images/land.jpg,65,,,,,,,69,,,8,,,,,,,,255826,1,1,FALSE,,,
dig,194,648675,0.0-60.0-0.0,"""event"",""trial"",""time""
""fullscreenenter"",""1"",""5407""
","
","
","""event"",""trial"",""time""
""fullscreenenter"",""1"",""5407""
","
",,,,,,,,,,,,"[{""stimulus"":""run_exp/static/images/task_images/dig.jpg"",""time"":0.20000004768371582},{""stimulus"":""run_exp/static/images/task_images/land.jpg"",""time"":887.6000000238419},{""stimulus"":""run_exp/static/images/task_images/dig.jpg"",""time"":1767.3999999761581}]",[],8,,,,,,,,,,,,,,
harvest,195,649695,0.0-60.0-1.0,"""event"",""trial"",""time""
""fullscreenenter"",""1"",""5407""
","
","
","""event"",""trial"",""time""
""fullscreenenter"",""1"",""5407""
","
",,null,run_exp/static/images/task_images/gems/69.jpg,null,,,,,,,58,,,8,,,,,69,0.842077128,0.84057971,,,,,,,
decision,196,650304,0.0-60.0-2.0,"""event"",""trial"",""time""
""fullscreenenter"",""1"",""5407""
","
","
","""event"",""trial"",""time""
""fullscreenenter"",""1"",""5407""
","
",,607.4,run_exp/static/images/task_images/land.jpg,65,,,,,,,58,,,8,,,,,,,,260106,1,2,FALSE,,,
dig,197,652715,0.0-61.0-0.0,"""event"",""trial"",""time""
""fullscreenenter"",""1"",""5407""
","
","
","""event"",""trial"",""time""
""fullscreenenter"",""1"",""5407""
","
",,,,,,,,,,,,"[{""stimulus"":""run_exp/static/images/task_images/dig.jpg"",""time"":0.30000007152557373},{""stimulus"":""run_exp/static/images/task_images/land.jpg"",""time"":807.7000000476837},{""stimulus"":""run_exp/static/images/task_images/dig.jpg"",""time"":1607.3000000715256}]",[],8,,,,,,,,,,,,,,
harvest,198,653736,0.0-61.0-1.0,"""event"",""trial"",""time""
""fullscreenenter"",""1"",""5407""
","
","
","""event"",""trial"",""time""
""fullscreenenter"",""1"",""5407""
","
",,null,run_exp/static/images/task_images/gems/58.jpg,null,,,,,,,36,,,8,,,,,58,0.620281998,0.620689655,,,,,,,
decision,199,654344,0.0-61.0-2.0,"""event"",""trial"",""time""
""fullscreenenter"",""1"",""5407""
","
","
","""event"",""trial"",""time""
""fullscreenenter"",""1"",""5407""
","
",,606.7,run_exp/static/images/task_images/land.jpg,65,,,,,,,36,,,8,,,,,,,,264146,1,3,FALSE,,,
dig,200,656745,0.0-62.0-0.0,"""event"",""trial"",""time""
""fullscreenenter"",""1"",""5407""
","
","
","""event"",""trial"",""time""
""fullscreenenter"",""1"",""5407""
","
",,,,,,,,,,,,"[{""stimulus"":""run_exp/static/images/task_images/dig.jpg"",""time"":0.2999999523162842},{""stimulus"":""run_exp/static/images/task_images/land.jpg"",""time"":815.8999999761581},{""stimulus"":""run_exp/static/images/task_images/dig.jpg"",""time"":1606.2999999523163}]",[],8,,,,,,,,,,,,,,
harvest,201,657755,0.0-62.0-1.0,"""event"",""trial"",""time""
""fullscreenenter"",""1"",""5407""
","
","
","""event"",""trial"",""time""
""fullscreenenter"",""1"",""5407""
","
",,null,run_exp/static/images/task_images/gems/36.jpg,null,,,,,,,30,,,8,,,,,36,0.822812402,0.833333333,,,,,,,
decision,202,658074,0.0-62.0-2.0,"""event"",""trial"",""time""
""fullscreenenter"",""1"",""5407""
","
","
","""event"",""trial"",""time""
""fullscreenenter"",""1"",""5407""
","
",,317,run_exp/static/images/task_images/land.jpg,65,,,,,,,30,,,8,,,,,,,,267876,1,4,FALSE,,,
dig,203,660775,0.0-63.0-0.0,"""event"",""trial"",""time""
""fullscreenenter"",""1"",""5407""
","
","
","""event"",""trial"",""time""
""fullscreenenter"",""1"",""5407""
","
",,,,,,,,,,,,"[{""stimulus"":""run_exp/static/images/task_images/dig.jpg"",""time"":0.20000004768371582},{""stimulus"":""run_exp/static/images/task_images/land.jpg"",""time"":907.1000000238419},{""stimulus"":""run_exp/static/images/task_images/dig.jpg"",""time"":1797.3999999761581}]",[],8,,,,,,,,,,,,,,
harvest,204,661796,0.0-63.0-1.0,"""event"",""trial"",""time""
""fullscreenenter"",""1"",""5407""
","
","
","""event"",""trial"",""time""
""fullscreenenter"",""1"",""5407""
","
",,null,run_exp/static/images/task_images/gems/30.jpg,null,,,,,,,25,,,8,,,,,30,0.82029272,0.833333333,,,,,,,
decision,205,662104,0.0-63.0-2.0,"""event"",""trial"",""time""
""fullscreenenter"",""1"",""5407""
","
","
","""event"",""trial"",""time""
""fullscreenenter"",""1"",""5407""
","
",,307.1,run_exp/static/images/task_images/land.jpg,65,,,,,,,25,,,8,,,,,,,,271906,1,5,FALSE,,,
dig,206,664819,0.0-64.0-0.0,"""event"",""trial"",""time""
""fullscreenenter"",""1"",""5407""
","
","
","""event"",""trial"",""time""
""fullscreenenter"",""1"",""5407""
","
",,,,,,,,,,,,"[{""stimulus"":""run_exp/static/images/task_images/dig.jpg"",""time"":0.20000004768371582},{""stimulus"":""run_exp/static/images/task_images/land.jpg"",""time"":908.3000000715256},{""stimulus"":""run_exp/static/images/task_images/dig.jpg"",""time"":1798.3999999761581}]",[],8,,,,,,,,,,,,,,
harvest,207,665839,0.0-64.0-1.0,"""event"",""trial"",""time""
""fullscreenenter"",""1"",""5407""
","
","
","""event"",""trial"",""time""
""fullscreenenter"",""1"",""5407""
","
",,null,run_exp/static/images/task_images/gems/25.jpg,null,,,,,,,19,,,8,,,,,25,0.745393251,0.76,,,,,,,
decision,208,666128,0.0-64.0-2.0,"""event"",""trial"",""time""
""fullscreenenter"",""1"",""5407""
","
","
","""event"",""trial"",""time""
""fullscreenenter"",""1"",""5407""
","
",,287.1,run_exp/static/images/task_images/land.jpg,65,,,,,,,19,,,8,,,,,,,,275930,1,6,FALSE,,,
dig,209,668859,0.0-65.0-0.0,"""event"",""trial"",""time""
""fullscreenenter"",""1"",""5407""
","
","
","""event"",""trial"",""time""
""fullscreenenter"",""1"",""5407""
","
",,,,,,,,,,,,"[{""stimulus"":""run_exp/static/images/task_images/dig.jpg"",""time"":0.2999999523162842},{""stimulus"":""run_exp/static/images/task_images/land.jpg"",""time"":912.5},{""stimulus"":""run_exp/static/images/task_images/dig.jpg"",""time"":1817.1999999284744}]",[],8,,,,,,,,,,,,,,
harvest,210,669879,0.0-65.0-1.0,"""event"",""trial"",""time""
""fullscreenenter"",""1"",""5407""
","
","
","""event"",""trial"",""time""
""fullscreenenter"",""1"",""5407""
","
",,null,run_exp/static/images/task_images/gems/19.jpg,null,,,,,,,13,,,8,,,,,19,0.700748339,0.684210526,,,,,,,
decision,211,670218,0.0-65.0-2.0,"""event"",""trial"",""time""
""fullscreenenter"",""1"",""5407""
","
","
","""event"",""trial"",""time""
""fullscreenenter"",""1"",""5407""
","
",,337.3000001,run_exp/static/images/task_images/land.jpg,65,,,,,,,13,,,8,,,,,,,,280020,1,7,FALSE,,,
dig,212,672899,0.0-66.0-0.0,"""event"",""trial"",""time""
""fullscreenenter"",""1"",""5407""
","
","
","""event"",""trial"",""time""
""fullscreenenter"",""1"",""5407""
","
",,,,,,,,,,,,"[{""stimulus"":""run_exp/static/images/task_images/dig.jpg"",""time"":0.2999999523162842},{""stimulus"":""run_exp/static/images/task_images/land.jpg"",""time"":897.5999999046326},{""stimulus"":""run_exp/static/images/task_images/dig.jpg"",""time"":1777.2999999523163}]",[],8,,,,,,,,,,,,,,
harvest,213,673909,0.0-66.0-1.0,"""event"",""trial"",""time""
""fullscreenenter"",""1"",""5407""
","
","
","""event"",""trial"",""time""
""fullscreenenter"",""1"",""5407""
","
",,null,run_exp/static/images/task_images/gems/13.jpg,null,,,,,,,10,,,8,,,,,13,0.758669362,0.769230769,,,,,,,
decision,214,674778,0.0-66.0-2.0,"""event"",""trial"",""time""
""fullscreenenter"",""1"",""5407""
","
","
","""event"",""trial"",""time""
""fullscreenenter"",""1"",""5407""
","
",,867.1,run_exp/static/images/task_images/land.jpg,76,,,,,,,10,,,8,,,,,,,,284580,1,8,TRUE,,,
travel,215,683918,0.0-67.0-0.0,"""event"",""trial"",""time""
""fullscreenenter"",""1"",""5407""
","
","
","""event"",""trial"",""time""
""fullscreenenter"",""1"",""5407""
","
",,,,,,,,,,,,"[{""stimulus"":""run_exp/static/images/task_images/rocket-01.jpg"",""time"":0.20000004768371582},{""stimulus"":""run_exp/static/images/task_images/rocket-02.jpg"",""time"":1017.8999999761581},{""stimulus"":""run_exp/static/images/task_images/rocket-03.jpg"",""time"":2037},{""stimulus"":""run_exp/static/images/task_images/rocket-04.jpg"",""time"":3047.100000023842},{""stimulus"":""run_exp/static/images/task_images/rocket-05.jpg"",""time"":4058},{""stimulus"":""run_exp/static/images/task_images/rocket-06.jpg"",""time"":5087.399999976158},{""stimulus"":""run_exp/static/images/task_images/rocket-07.jpg"",""time"":6087.700000047684},{""stimulus"":""run_exp/static/images/task_images/rocket-08.jpg"",""time"":7117.799999952316},{""stimulus"":""run_exp/static/images/task_images/rocket-09.jpg"",""time"":8127}]",[],8,,,,,,,,,,,,,,
alien_welcome,216,688939,0.0-67.0-1.0,"""event"",""trial"",""time""
""fullscreenenter"",""1"",""5407""
","
","
","""event"",""trial"",""time""
""fullscreenenter"",""1"",""5407""
","
",,null,run_exp/static/images/task_images/aliens/old_aliens/planet/alien_planet-56.jpg,null,,,,,,,,,,,,,56,"47,39,62,6,5,7,40,17,56,74,13,9,10,32,33,72,4,30,76,60,48,23,14,16,58,11,19,34,61,31,73,65,64",,,,,,,,,,
land,217,689459,0.0-67.0-2.0,"""event"",""trial"",""time""
""fullscreenenter"",""1"",""5407""
","
","
","""event"",""trial"",""time""
""fullscreenenter"",""1"",""5407""
","
",,null,run_exp/static/images/task_images/land.jpg,null,,,,,,,98,,,9,,,,,,,,,,,,,,
dig,218,691479,0.0-67.0-3.0,"""event"",""trial"",""time""
""fullscreenenter"",""1"",""5407""
","
","
","""event"",""trial"",""time""
""fullscreenenter"",""1"",""5407""
","
",,,,,,,,,,,,"[{""stimulus"":""run_exp/static/images/task_images/dig.jpg"",""time"":0.40000009536743164},{""stimulus"":""run_exp/static/images/task_images/land.jpg"",""time"":678.6000000238419},{""stimulus"":""run_exp/static/images/task_images/dig.jpg"",""time"":1346.4000000953674}]",[],9,,,,,,,,,,,,,,
harvest,219,692499,0.0-67.0-4.0,"""event"",""trial"",""time""
""fullscreenenter"",""1"",""5407""
","
","
","""event"",""trial"",""time""
""fullscreenenter"",""1"",""5407""
","
",,null,run_exp/static/images/task_images/gems/98.jpg,null,,,,,,,21,,,9,,,,,98,0.212599347,0.214285714,,,,,,,
decision,220,692848,0.0-67.0-5.0,"""event"",""trial"",""time""
""fullscreenenter"",""1"",""5407""
","
","
","""event"",""trial"",""time""
""fullscreenenter"",""1"",""5407""
","
",,346.9,run_exp/static/images/task_images/land.jpg,65,,,,,,,21,,,9,,,,,,,,302651,1,0,TRUE,,,
end_of_block_continue,221,701711,0.0-68.0-0.0,"""event"",""trial"",""time""
""fullscreenenter"",""1"",""5407""
","
","
","""event"",""trial"",""time""
""fullscreenenter"",""1"",""5407""
","
",,null,run_exp/static/audio/clip_32_block_end.m4a,,,,,,,null,,,,,,,,,,,,,,,,,,
alien_welcome,222,706720,0.0-69.0-0.0,"""event"",""trial"",""time""
""fullscreenenter"",""1"",""5407""
","
","
","""event"",""trial"",""time""
""fullscreenenter"",""1"",""5407""
","
",,null,run_exp/static/images/task_images/aliens/old_aliens/planet/alien_planet-74.jpg,null,,,,,,,,,,,,,74,"47,39,62,6,5,7,40,17,56,74,13,9,10,32,33,72,4,30,76,60,48,23,14,16,58,11,19,34,61,31,73,65,64",,,,,,,,,,
land,223,707239,0.0-69.0-1.0,"""event"",""trial"",""time""
""fullscreenenter"",""1"",""5407""
","
","
","""event"",""trial"",""time""
""fullscreenenter"",""1"",""5407""
","
",,null,run_exp/static/images/task_images/land.jpg,null,,,,,,,102,,,10,,,,,,,,,,,,,,
dig,224,709244,0.0-69.0-2.0,"""event"",""trial"",""time""
""fullscreenenter"",""1"",""5407""
","
","
","""event"",""trial"",""time""
""fullscreenenter"",""1"",""5407""
","
",,,,,,,,,,,,"[{""stimulus"":""run_exp/static/images/task_images/dig.jpg"",""time"":0.5},{""stimulus"":""run_exp/static/images/task_images/land.jpg"",""time"":687.5},{""stimulus"":""run_exp/static/images/task_images/dig.jpg"",""time"":1337.3999999761581}]",[],10,,,,,,,,,,,,,,
harvest,225,710249,0.0-69.0-3.0,"""event"",""trial"",""time""
""fullscreenenter"",""1"",""5407""
","
","
","""event"",""trial"",""time""
""fullscreenenter"",""1"",""5407""
","
",,null,run_exp/static/images/task_images/gems/102.jpg,null,,,,,,,21,,,10,,,,,102,0.203142233,0.205882353,,,,,,,
decision,226,710828,0.0-69.0-4.0,"""event"",""trial"",""time""
""fullscreenenter"",""1"",""5407""
","
","
","""event"",""trial"",""time""
""fullscreenenter"",""1"",""5407""
","
",,577.5,run_exp/static/images/task_images/land.jpg,65,,,,,,,21,,,10,,,,,,,,9113,2,0,FALSE,,,
dig,227,713259,0.0-70.0-0.0,"""event"",""trial"",""time""
""fullscreenenter"",""1"",""5407""
","
","
","""event"",""trial"",""time""
""fullscreenenter"",""1"",""5407""
","
",,,,,,,,,,,,"[{""stimulus"":""run_exp/static/images/task_images/dig.jpg"",""time"":0.30000007152557373},{""stimulus"":""run_exp/static/images/task_images/land.jpg"",""time"":816.8000000715256},{""stimulus"":""run_exp/static/images/task_images/dig.jpg"",""time"":1617.1000000238419}]",[],10,,,,,,,,,,,,,,
harvest,228,714265,0.0-70.0-1.0,"""event"",""trial"",""time""
""fullscreenenter"",""1"",""5407""
","
","
","""event"",""trial"",""time""
""fullscreenenter"",""1"",""5407""
","
",,null,run_exp/static/images/task_images/gems/21.jpg,null,,,,,,,6,,,10,,,,,21,0.298916569,0.285714286,,,,,,,
decision,229,714748,0.0-70.0-2.0,"""event"",""trial"",""time""
""fullscreenenter"",""1"",""5407""
","
","
","""event"",""trial"",""time""
""fullscreenenter"",""1"",""5407""
","
",,482,run_exp/static/images/task_images/land.jpg,65,,,,,,,6,,,10,,,,,,,,13034,2,1,FALSE,,,
dig,230,717290,0.0-71.0-0.0,"""event"",""trial"",""time""
""fullscreenenter"",""1"",""5407""
","
","
","""event"",""trial"",""time""
""fullscreenenter"",""1"",""5407""
","
",,,,,,,,,,,,"[{""stimulus"":""run_exp/static/images/task_images/dig.jpg"",""time"":0.2999999523162842},{""stimulus"":""run_exp/static/images/task_images/land.jpg"",""time"":846.5999999046326},{""stimulus"":""run_exp/static/images/task_images/dig.jpg"",""time"":1697}]",[],10,,,,,,,,,,,,,,
harvest,231,718309,0.0-71.0-1.0,"""event"",""trial"",""time""
""fullscreenenter"",""1"",""5407""
","
","
","""event"",""trial"",""time""
""fullscreenenter"",""1"",""5407""
","
",,null,run_exp/static/images/task_images/gems/6.jpg,null,,,,,,,1,,,10,,,,,6,0.184011037,0.166666667,,,,,,,
decision,232,719318,0.0-71.0-2.0,"""event"",""trial"",""time""
""fullscreenenter"",""1"",""5407""
","
","
","""event"",""trial"",""time""
""fullscreenenter"",""1"",""5407""
","
",,1007.1,run_exp/static/images/task_images/land.jpg,76,,,,,,,1,,,10,,,,,,,,17603,2,2,TRUE,,,
travel,233,728319,0.0-72.0-0.0,"""event"",""trial"",""time""
""fullscreenenter"",""1"",""5407""
","
","
","""event"",""trial"",""time""
""fullscreenenter"",""1"",""5407""
","
",,,,,,,,,,,,"[{""stimulus"":""run_exp/static/images/task_images/rocket-01.jpg"",""time"":0.30000007152557373},{""stimulus"":""run_exp/static/images/task_images/rocket-02.jpg"",""time"":1007.5},{""stimulus"":""run_exp/static/images/task_images/rocket-03.jpg"",""time"":2017.2000000476837},{""stimulus"":""run_exp/static/images/task_images/rocket-04.jpg"",""time"":3017.8000000715256},{""stimulus"":""run_exp/static/images/task_images/rocket-05.jpg"",""time"":4007.7000000476837},{""stimulus"":""run_exp/static/images/task_images/rocket-06.jpg"",""time"":5016.899999976158},{""stimulus"":""run_exp/static/images/task_images/rocket-07.jpg"",""time"":5997.100000023842},{""stimulus"":""run_exp/static/images/task_images/rocket-08.jpg"",""time"":7007.399999976158},{""stimulus"":""run_exp/static/images/task_images/rocket-09.jpg"",""time"":8007.5}]",[],10,,,,,,,,,,,,,,
alien_welcome,234,733340,0.0-72.0-1.0,"""event"",""trial"",""time""
""fullscreenenter"",""1"",""5407""
","
","
","""event"",""trial"",""time""
""fullscreenenter"",""1"",""5407""
","
",,null,run_exp/static/images/task_images/aliens/old_aliens/planet/alien_planet-13.jpg,null,,,,,,,,,,,,,13,"47,39,62,6,5,7,40,17,56,74,13,9,10,32,33,72,4,30,76,60,48,23,14,16,58,11,19,34,61,31,73,65,64",,,,,,,,,,
land,235,733849,0.0-72.0-2.0,"""event"",""trial"",""time""
""fullscreenenter"",""1"",""5407""
","
","
","""event"",""trial"",""time""
""fullscreenenter"",""1"",""5407""
","
",,null,run_exp/static/images/task_images/land.jpg,null,,,,,,,103,,,11,,,,,,,,,,,,,,
dig,236,735859,0.0-72.0-3.0,"""event"",""trial"",""time""
""fullscreenenter"",""1"",""5407""
","
","
","""event"",""trial"",""time""
""fullscreenenter"",""1"",""5407""
","
",,,,,,,,,,,,"[{""stimulus"":""run_exp/static/images/task_images/dig.jpg"",""time"":0.2999999523162842},{""stimulus"":""run_exp/static/images/task_images/land.jpg"",""time"":678.5999999046326},{""stimulus"":""run_exp/static/images/task_images/dig.jpg"",""time"":1338.0999999046326}]",[],11,,,,,,,,,,,,,,
harvest,237,736879,0.0-72.0-4.0,"""event"",""trial"",""time""
""fullscreenenter"",""1"",""5407""
","
","
","""event"",""trial"",""time""
""fullscreenenter"",""1"",""5407""
","
",,null,run_exp/static/images/task_images/gems/103.jpg,null,,,,,,,24,,,11,,,,,103,0.22989942,0.233009709,,,,,,,
decision,238,737578,0.0-72.0-5.0,"""event"",""trial"",""time""
""fullscreenenter"",""1"",""5407""
","
","
","""event"",""trial"",""time""
""fullscreenenter"",""1"",""5407""
","
",,697.3,run_exp/static/images/task_images/land.jpg,65,,,,,,,24,,,11,,,,,,,,35864,2,0,FALSE,,,
dig,239,739890,0.0-73.0-0.0,"""event"",""trial"",""time""
""fullscreenenter"",""1"",""5407""
","
","
","""event"",""trial"",""time""
""fullscreenenter"",""1"",""5407""
","
",,,,,,,,,,,,"[{""stimulus"":""run_exp/static/images/task_images/dig.jpg"",""time"":0.2999999523162842},{""stimulus"":""run_exp/static/images/task_images/land.jpg"",""time"":774.1000000238419},{""stimulus"":""run_exp/static/images/task_images/dig.jpg"",""time"":1547}]",[],11,,,,,,,,,,,,,,
harvest,240,740909,0.0-73.0-1.0,"""event"",""trial"",""time""
""fullscreenenter"",""1"",""5407""
","
","
","""event"",""trial"",""time""
""fullscreenenter"",""1"",""5407""
","
",,null,run_exp/static/images/task_images/gems/24.jpg,null,,,,,,,8,,,11,,,,,24,0.336480989,0.333333333,,,,,,,
decision,241,741287,0.0-73.0-2.0,"""event"",""trial"",""time""
""fullscreenenter"",""1"",""5407""
","
","
","""event"",""trial"",""time""
""fullscreenenter"",""1"",""5407""
","
",,375.9,run_exp/static/images/task_images/land.jpg,65,,,,,,,8,,,11,,,,,,,,39573,2,1,FALSE,,,
dig,242,743929,0.0-74.0-0.0,"""event"",""trial"",""time""
""fullscreenenter"",""1"",""5407""
","
","
","""event"",""trial"",""time""
""fullscreenenter"",""1"",""5407""
","
",,,,,,,,,,,,"[{""stimulus"":""run_exp/static/images/task_images/dig.jpg"",""time"":0.20000004768371582},{""stimulus"":""run_exp/static/images/task_images/land.jpg"",""time"":877.8999999761581},{""stimulus"":""run_exp/static/images/task_images/dig.jpg"",""time"":1768.2000000476837}]",[],11,,,,,,,,,,,,,,
harvest,243,744950,0.0-74.0-1.0,"""event"",""trial"",""time""
""fullscreenenter"",""1"",""5407""
","
","
","""event"",""trial"",""time""
""fullscreenenter"",""1"",""5407""
","
",,null,run_exp/static/images/task_images/gems/8.jpg,null,,,,,,,2,,,11,,,,,8,0.197242173,0.25,,,,,,,
decision,244,745287,0.0-74.0-2.0,"""event"",""trial"",""time""
""fullscreenenter"",""1"",""5407""
","
","
","""event"",""trial"",""time""
""fullscreenenter"",""1"",""5407""
","
",,336.1999999,run_exp/static/images/task_images/land.jpg,76,,,,,,,2,,,11,,,,,,,,43573,2,2,TRUE,,,
travel,245,754970,0.0-75.0-0.0,"""event"",""trial"",""time""
""fullscreenenter"",""1"",""5407""
","
","
","""event"",""trial"",""time""
""fullscreenenter"",""1"",""5407""
","
",,,,,,,,,,,,"[{""stimulus"":""run_exp/static/images/task_images/rocket-01.jpg"",""time"":0.2999999523162842},{""stimulus"":""run_exp/static/images/task_images/rocket-02.jpg"",""time"":1077.5},{""stimulus"":""run_exp/static/images/task_images/rocket-03.jpg"",""time"":2157.399999976158},{""stimulus"":""run_exp/static/images/task_images/rocket-04.jpg"",""time"":3222.899999976158},{""stimulus"":""run_exp/static/images/task_images/rocket-05.jpg"",""time"":4298},{""stimulus"":""run_exp/static/images/task_images/rocket-06.jpg"",""time"":5367.399999976158},{""stimulus"":""run_exp/static/images/task_images/rocket-07.jpg"",""time"":6448.200000047684},{""stimulus"":""run_exp/static/images/task_images/rocket-08.jpg"",""time"":7517.299999952316},{""stimulus"":""run_exp/static/images/task_images/rocket-09.jpg"",""time"":8587.399999976158}]",[],11,,,,,,,,,,,,,,
alien_welcome,246,759990,0.0-75.0-1.0,"""event"",""trial"",""time""
""fullscreenenter"",""1"",""5407""
","
","
","""event"",""trial"",""time""
""fullscreenenter"",""1"",""5407""
","
",,null,run_exp/static/images/task_images/aliens/old_aliens/planet/alien_planet-9.jpg,null,,,,,,,,,,,,,9,"47,39,62,6,5,7,40,17,56,74,13,9,10,32,33,72,4,30,76,60,48,23,14,16,58,11,19,34,61,31,73,65,64",,,,,,,,,,
land,247,760509,0.0-75.0-2.0,"""event"",""trial"",""time""
""fullscreenenter"",""1"",""5407""
","
","
","""event"",""trial"",""time""
