trial_type,trial_index,time_elapsed,internal_node_id,success,rt,stimulus,key_press,prompt,subject_id,age,gender,button_pressed,next_reward,animation_sequence,responses,planet,curr_prac_trial,n_prac_rounds,alien,aliens,reward_received,decay_rate_actual,decay_rate_exp,time_in_block,block_num,prt,last_trial_on_planet,button_html,bonus,num_failures
pavlovia,0,17,0.0-0.0,,,,,,,,,,,,,,,,,,,,,,,,,,,
fullscreen,1,9647,0.0-1.0,TRUE,,,,,,,,,,,,,,,,,,,,,,,,,,
instruc_welcome,2,19536,0.0-2.0,,null,run_exp/static/audio/clip_1_welcome.m4a,null,"<p>Howdy! In this experiment, you’ll be an explorer traveling through space to collect space treasure.</p><p>Your mission is to collect as much treasure as possible.</p><br><br><p><img src='run_exp/static/images/task_images/opening_img-01.jpg' height='300' width='auto'></p>",QFth44Y2vlatbHS_1Y3uCvx5VSxv8Zo_MLRP_3UiMZOod8fqXdmC,15.13,female,,,,,,,,,,,,,,,,,,,
audio-keyboard-response,3,36554,0.0-3.0,,null,run_exp/static/audio/clip_2_move.m4a,null,,,,,,,,,,,,,,,,,,,,,,,
welcome_dec,4,37639,0.0-4.0,,1074.3,"<p>Howdy! In this experiment, you’ll be an explorer traveling through space to collect space treasure.</p><p>Your mission is to collect as much treasure as possible.</p><br><br><p><img src='run_exp/static/images/task_images/opening_img-01.jpg' height='300' width='auto'></p>",,,,,,1,,,,,,,,,,,,,,,,,,
html-keyboard-response,5,38528,0.0-5.0,,882.4,"<p>Howdy! In this experiment, you’ll be an explorer traveling through space to collect space treasure.</p><p>Your mission is to collect as much treasure as possible.</p><br><br><p><img src='run_exp/static/images/task_images/opening_img-01.jpg' height='300' width='auto'></p><button class=""jspsych-html-btn-unchosen""><img src=""run_exp/static/images/task_images/planet-01.jpg"" height=""50""></button><button class=""jspsych-html-btn-chosen""><img src=""run_exp/static/images/task_images/planet-02.jpg"" height=""50""></button><p><b>[press the space bar to lock in your answer]<b><br></p>",32,,,,,,,,,,,,,,,,,,,,,,,
instruc_goal,6,48972,0.0-6.0-0.0,,null,run_exp/static/audio/clip_3_goal.m4a,null,"<p> As a space explorer, you’ll visit different planets to dig for space treasure, these pink gems.</p> <p> The more treasure you dig up, the more bonus money you’ll win! </p><br><br><p><img src='run_exp/static/images/task_images/pink_gem.jpg' height='300' width='auto'></p>",,,,,,,,,,,,,,,,,,,,,,
instruc_goal,7,58550,0.0-6.0-1.0,,9566.8,"<p> As a space explorer, you’ll visit different planets to dig for space treasure, these pink gems.</p> <p> The more treasure you dig up, the more bonus money you’ll win! </p><br><br><p><img src='run_exp/static/images/task_images/pink_gem.jpg' height='300' width='auto'></p>",,,,,,1,,,,,,,,,,,,,,,,,,
html-keyboard-response,8,62713,0.0-6.0-2.0,,4152.3,"<p> As a space explorer, you’ll visit different planets to dig for space treasure, these pink gems.</p> <p> The more treasure you dig up, the more bonus money you’ll win! </p><br><br><p><img src='run_exp/static/images/task_images/pink_gem.jpg' height='300' width='auto'></p><button class=""jspsych-html-btn-unchosen""><img src=""run_exp/static/images/task_images/planet-01.jpg"" height=""50""></button><button class=""jspsych-html-btn-chosen""><img src=""run_exp/static/images/task_images/planet-02.jpg"" height=""50""></button><p><b>[press the space bar to lock in your answer]<b><br></p>",32,,,,,,,,,,,,,,,,,,,,,,,
instruc_dig,9,78871,0.0-7.0-0.0,,null,run_exp/static/audio/clip_4_dig.m4a,null,,,,,,100,,,,,,,,,,,,,,,,,
instruc_dig_try,10,79760,0.0-7.0-1.0,,884.7,"<p> When you’ve arrived at a new planet, you will dig once. </p> <p>Then, you get to decide if you want to stay on the planet and dig again or travel to a new planet and dig there.</p> <p> To stay and dig, press the letter <strong>‘A’</strong> on your keyboard. Try pressing it now! </p><p><img src='run_exp/static/images/task_images/land.jpg'  height='700' width='auto'></p>",65,"<p> When you’ve arrived at a new planet, you will dig once. </p> <p>Then, you get to decide if you want to stay on the planet and dig again or travel to a new planet and dig there.</p> <p> To stay and dig, press the letter <strong>‘A’</strong> on your keyboard. Try pressing it now! </p><p><img src='run_exp/static/images/task_images/land.jpg'  height='700' width='auto'></p>",,,,,100,,,,,,,,,,,,,,,,,
dig_prac,11,83118,0.0-7.0-2.0,,,,,,,,,,,"[{""stimulus"":""run_exp/static/images/task_images/dig.jpg"",""time"":1.1000000014901161},{""stimulus"":""run_exp/static/images/task_images/land.jpg"",""time"":670.8000000007451},{""stimulus"":""run_exp/static/images/task_images/dig.jpg"",""time"":2800.199999999255}]",[],,,,,,,,,,,,,,,
instruc_travel,12,119704,0.0-7.0-3.0,,null,run_exp/static/audio/clip_5_travel.m4a,null,"<p>Every time you dig up gems, there are less gems on the planet, so the more you dig on a planet the fewer gems you’ll get with each dig.</p><p>When gems are running low, you may want to travel to a new planet. </p> <p>  Planets are very far apart in this galaxy, so it will take some time to travel between them. </p> <br><p>There are lots and lots of planets for you to visit, so you won’t be able to return to any planets you’ve seen before. </p><br><p>To leave this planet and travel to a new one, press the letter <strong>‘L’</strong> on your keyboard. Try pressing it now! </p><p><img src='run_exp/static/images/task_images/rocket-01.jpg'  height='600' width='auto'></p>",,,,,,,,,,,,,,,,,,,,,,
instruc_travel_try,13,125824,0.0-7.0-4.0,,6113.6,"<p>Every time you dig up gems, there are less gems on the planet, so the more you dig on a planet the fewer gems you’ll get with each dig.</p><p>When gems are running low, you may want to travel to a new planet. </p> <p>  Planets are very far apart in this galaxy, so it will take some time to travel between them. </p> <br><p>There are lots and lots of planets for you to visit, so you won’t be able to return to any planets you’ve seen before. </p><br><p>To leave this planet and travel to a new one, press the letter <strong>‘L’</strong> on your keyboard. Try pressing it now! </p><p><img src='run_exp/static/images/task_images/rocket-01.jpg'  height='600' width='auto'></p>",76,"<p>Every time you dig up gems, there are less gems on the planet, so the more you dig on a planet the fewer gems you’ll get with each dig.</p><p>When gems are running low, you may want to travel to a new planet. </p> <p>  Planets are very far apart in this galaxy, so it will take some time to travel between them. </p> <br><p>There are lots and lots of planets for you to visit, so you won’t be able to return to any planets you’ve seen before. </p><br><p>To leave this planet and travel to a new one, press the letter <strong>‘L’</strong> on your keyboard. Try pressing it now! </p><p><img src='run_exp/static/images/task_images/rocket-01.jpg'  height='600' width='auto'></p>",,,,,,,,,,,,,,,,,,,,,,
travel_prac,14,135833,0.0-7.0-5.0,,,,,,,,,,,"[{""stimulus"":""run_exp/static/images/task_images/rocket-01.jpg"",""time"":1.1000000014901161},{""stimulus"":""run_exp/static/images/task_images/rocket-02.jpg"",""time"":1115.199999999255},{""stimulus"":""run_exp/static/images/task_images/rocket-03.jpg"",""time"":2226.800000000745},{""stimulus"":""run_exp/static/images/task_images/rocket-04.jpg"",""time"":3338.10000000149},{""stimulus"":""run_exp/static/images/task_images/rocket-05.jpg"",""time"":4449.60000000149},{""stimulus"":""run_exp/static/images/task_images/rocket-06.jpg"",""time"":5558.60000000149},{""stimulus"":""run_exp/static/images/task_images/rocket-07.jpg"",""time"":6671.800000000745},{""stimulus"":""run_exp/static/images/task_images/rocket-08.jpg"",""time"":7781.60000000149},{""stimulus"":""run_exp/static/images/task_images/rocket-09.jpg"",""time"":8893.699999999255}]",[],0,,,,,,,,,,,,,,
instruc_alien_greet,15,163306,0.0-7.0-6.0,,null,run_exp/static/audio/clip_6_alien.m4a,null,"<p>When you arrive at a new planet, the alien who owns the treasure mine on that planet will greet you!</p><p>The better an alien takes care of their mine the easier it is to dig for gems. Some aliens take better care of their mine than others. So, you won’t get exactly the same amount of gems on each planet.</p><p>What the alien looks like does not tell you anything about how many gems there are on the planet.</p><br><p><img src=""run_exp/static/images/task_images/aliens/instructions_aliens/planet/alien_planet-1.jpg""  height=""600"" width=""auto""></p>",,,,,,,,,,,,,,,,,,,,,,
instruc_alien_greet,16,209494,0.0-7.0-7.0,,46176.7,"<p>When you arrive at a new planet, the alien who owns the treasure mine on that planet will greet you!</p><p>The better an alien takes care of their mine the easier it is to dig for gems. Some aliens take better care of their mine than others. So, you won’t get exactly the same amount of gems on each planet.</p><p>What the alien looks like does not tell you anything about how many gems there are on the planet.</p><br><p><img src=""run_exp/static/images/task_images/aliens/instructions_aliens/planet/alien_planet-1.jpg""  height=""600"" width=""auto""></p>",,,,,,1,,,,,,,,,,,,,,,,,,
html-keyboard-response,17,209970,0.0-7.0-8.0,,470.7,"<p>When you arrive at a new planet, the alien who owns the treasure mine on that planet will greet you!</p><p>The better an alien takes care of their mine the easier it is to dig for gems. Some aliens take better care of their mine than others. So, you won’t get exactly the same amount of gems on each planet.</p><p>What the alien looks like does not tell you anything about how many gems there are on the planet.</p><br><p><img src=""run_exp/static/images/task_images/aliens/instructions_aliens/planet/alien_planet-1.jpg""  height=""600"" width=""auto""></p><button class=""jspsych-html-btn-unchosen""><img src=""run_exp/static/images/task_images/planet-01.jpg"" height=""50""></button><button class=""jspsych-html-btn-chosen""><img src=""run_exp/static/images/task_images/planet-02.jpg"" height=""50""></button><p><b>[press the space bar to lock in your answer]<b><br></p>",32,,,,,,,,,,,,,,,,,,,,,,,
time_out,18,221759,0.0-8.0-0.0,,null,run_exp/static/audio/clip_7_timeout.m4a,null,"<p>If you don't make your choice fast enough, you’ll have to wait a few seconds before you can make another one.</p><p>You can’t dig for more gems or travel to new planets. You just have to sit and wait.</p><br><p><img src='run_exp/static/images/task_images/time_out.jpg'  height='600' width='auto'></p>",,,,,,,,,,,,,,,,,,,,,,
time_out,19,225872,0.0-8.0-1.0,,4099.5,"<p>If you don't make your choice fast enough, you’ll have to wait a few seconds before you can make another one.</p><p>You can’t dig for more gems or travel to new planets. You just have to sit and wait.</p><br><p><img src='run_exp/static/images/task_images/time_out.jpg'  height='600' width='auto'></p>",,,,,,1,,,,,,,,,,,,,,,,,,
html-keyboard-response,20,230915,0.0-8.0-2.0,,5035.9,"<p>If you don't make your choice fast enough, you’ll have to wait a few seconds before you can make another one.</p><p>You can’t dig for more gems or travel to new planets. You just have to sit and wait.</p><br><p><img src='run_exp/static/images/task_images/time_out.jpg'  height='600' width='auto'></p><button class=""jspsych-html-btn-unchosen""><img src=""run_exp/static/images/task_images/planet-01.jpg"" height=""50""></button><button class=""jspsych-html-btn-chosen""><img src=""run_exp/static/images/task_images/planet-02.jpg"" height=""50""></button><p><b>[press the space bar to lock in your answer]<b><br></p>",32,,,,,,,,,,,,,,,,,,,,,,,
instruc_break,21,246973,0.0-9.0-0.0,,null,run_exp/static/audio/clip_8_break.m4a,null,"<p> After digging and traveling for a while, you’ll be able to take a break at home base. </p><p>The game will last 20 minutes no matter what.</p><p>You will visit home base every 5 minutes, so, you will visit home base three times during the game.</p><br><p><img src='run_exp/static/images/task_images/home_base.jpg' height='600' width='auto'></p>",,,,,,,,,,,,,,,,,,,,,,
instruc_break,22,249927,0.0-9.0-1.0,,2943.2,"<p> After digging and traveling for a while, you’ll be able to take a break at home base. </p><p>The game will last 20 minutes no matter what.</p><p>You will visit home base every 5 minutes, so, you will visit home base three times during the game.</p><br><p><img src='run_exp/static/images/task_images/home_base.jpg' height='600' width='auto'></p>",,,,,,1,,,,,,,,,,,,,,,,,,
html-keyboard-response,23,250328,0.0-9.0-2.0,,394.9,"<p> After digging and traveling for a while, you’ll be able to take a break at home base. </p><p>The game will last 20 minutes no matter what.</p><p>You will visit home base every 5 minutes, so, you will visit home base three times during the game.</p><br><p><img src='run_exp/static/images/task_images/home_base.jpg' height='600' width='auto'></p><button class=""jspsych-html-btn-unchosen""><img src=""run_exp/static/images/task_images/planet-01.jpg"" height=""50""></button><button class=""jspsych-html-btn-chosen""><img src=""run_exp/static/images/task_images/planet-02.jpg"" height=""50""></button><p><b>[press the space bar to lock in your answer]<b><br></p>",32,,,,,,,,,,,,,,,,,,,,,,,
instruc_prac_game,24,260924,0.0-10.0-0.0,,null,run_exp/static/audio/clip_9_practice.m4a,null,"<p> Are you ready to play a practice game? </p> <p>In this practice game, you'll be digging up barrels of gems. But, in the real game, you'll be digging up the gems themselves. </p>",,,,,,,,,,,,,,,,,,,,,,
html-button-response,25,264329,0.0-10.0-1.0,,3398.7,"<p> Are you ready to play a practice game? </p> <p>In this practice game, you'll be digging up barrels of gems. But, in the real game, you'll be digging up the gems themselves. </p>",,,,,,0,,,,,,,,,,,,,,,,,,
alien_welcome_prac,26,269343,0.0-11.0-0.0,,null,run_exp/static/images/task_images/aliens/practice_aliens/planet/alien_planet-5.jpg,null,,,,,,,,,,,,,,,,,,,,,,,
land_prac,27,269853,0.0-11.0-1.0,,null,run_exp/static/images/task_images/land.jpg,null,,,,,,102,,,0,,,,,,,,,,,,,,
dig_prac,28,271867,0.0-11.0-2.0,,,,,,,,,,,"[{""stimulus"":""run_exp/static/images/task_images/dig.jpg"",""time"":0.7000000029802322},{""stimulus"":""run_exp/static/images/task_images/land.jpg"",""time"":671.3000000007451},{""stimulus"":""run_exp/static/images/task_images/dig.jpg"",""time"":1336.9000000022352}]",[],,,,,,,,,,,,,,,
harvest_prac,29,274233,0.0-11.0-3.0,,null,run_exp/static/images/task_images/barrel_text.jpg,null,,,,,,,,,,,,,,,,,,,,,,,
decision_prac,30,277236,0.0-11.0-4.0,,null,run_exp/static/images/task_images/land.jpg,null,,,,,,,,,,1,,,,,,,,,,,,,
time_out,31,279250,0.0-12.0-0.0,,null,run_exp/static/images/task_images/time_out.jpg,null,,,,,,,,,,,,,,,,,,,,,,,
decision_prac,32,280696,0.0-12.0-1.0,,1438.7,run_exp/static/images/task_images/land.jpg,65,,,,,,,,,,2,,,,,,,,,,,,,
dig_prac,33,282708,0.0-13.0-0.0,,,,,,,,,,,"[{""stimulus"":""run_exp/static/images/task_images/dig.jpg"",""time"":0.6999999992549419},{""stimulus"":""run_exp/static/images/task_images/land.jpg"",""time"":672.1999999992549},{""stimulus"":""run_exp/static/images/task_images/dig.jpg"",""time"":1337}]",[],,,,,,,,,,,,,,,
harvest_prac,34,283715,0.0-13.0-1.0,,null,run_exp/static/images/task_images/barrel_text.jpg,null,,,,,,,,,,,,,,,,,,,,,,,
decision_prac,35,286721,0.0-13.0-2.0,,null,run_exp/static/images/task_images/land.jpg,null,,,,,,,,,,3,,,,,,,,,,,,,
time_out,36,288736,0.0-14.0-0.0,,null,run_exp/static/images/task_images/time_out.jpg,null,,,,,,,,,,,,,,,,,,,,,,,
decision_prac,37,289313,0.0-14.0-1.0,,571.4,run_exp/static/images/task_images/land.jpg,65,,,,,,,,,,4,,,,,,,,,,,,,
dig_prac,38,291332,0.0-15.0-0.0,,,,,,,,,,,"[{""stimulus"":""run_exp/static/images/task_images/dig.jpg"",""time"":0.8000000007450581},{""stimulus"":""run_exp/static/images/task_images/land.jpg"",""time"":673.0999999977648},{""stimulus"":""run_exp/static/images/task_images/dig.jpg"",""time"":1337.699999999255}]",[],,,,,,,,,,,,,,,
harvest_prac,39,292337,0.0-15.0-1.0,,null,run_exp/static/images/task_images/barrel_text.jpg,null,,,,,,,,,,,,,,,,,,,,,,,
decision_prac,40,293936,0.0-15.0-2.0,,1593.6,run_exp/static/images/task_images/land.jpg,76,,,,,,,,,,,1,,,,,,,,,,,,
quiz_instruc,41,305867,0.0-16.0-0.0,,11915.7,run_exp/static/audio/clip_10_quiz.m4a,,,,,,0,,,,,,,,,,,,,,,,,,
instruc_repeat,42,349147,0.0-16.0-1.0,,null,"<p> Are you ready to play a practice game? </p> <p>In this practice game, you'll be digging up barrels of gems. But, in the real game, you'll be digging up the gems themselves. </p>",null,"<p>In this game, your goal is to collect as many gems as you can. That’s how you will win bonus money. </p> <p>The entire game will last 20 minutes no matter how many gems you collect or how many planets you visit. </p><p>To stay on a planet and dig again, press the letter A on your keyboard. To leave for a new planet, press the letter L.</p><p>The more you dig on a planet, the fewer gems you’ll get with each dig which is why you might consider leaving for a new planet. </p><p>When you arrive at a new planet, you’ll be greeted by an alien. What the alien looks like does not tell you anything about how much treasure is on the planet. </p>",,,,,,,,,,,,,,,,,,,,,,
instruc_repeat_continue,43,351083,0.0-16.0-2.0,,1928.4,"<p> Are you ready to play a practice game? </p> <p>In this practice game, you'll be digging up barrels of gems. But, in the real game, you'll be digging up the gems themselves. </p>",,,,,,0,,,,,,,,,,,,,,,,,,
quiz_q_1_ask,44,357074,0.0-16.0-3.0,,5983.5,run_exp/static/audio/clip_11_q1_ask.m4a,,,,,,2,,,,,,,,,,,,,,,,,,
quiz_q_1_fb_correct,45,361433,0.0-17.0-0.0,,null,run_exp/static/audio/clip_12_q1_corrrect.m4a,null,<p>That’s correct. You win extra money by collecting more gems.</p>,,,,,,,,,,,,,,,,,,,,,,
quiz_q_2_ask,46,367638,0.0-17.0-1.0,,6195.8,run_exp/static/audio/clip_14_q2_ask.m4a,,,,,,1,,,,,,,,,,,,,,,,,,
quiz_q_2_fb_correct,47,371929,0.0-18.0-0.0,,null,run_exp/static/audio/clip_15_q2_correct.m4a,null,<p>That’s correct. The experiment is 20 minutes no matter what.</p>,,,,,,,,,,,,,,,,,,,,,,
quiz_q_3_ask,48,377548,0.0-18.0-1.0,,5612.8,run_exp/static/audio/clip_17_q3_ask.m4a,,,,,,1,,,,,,,,,,,,,,,,,,
quiz_q_3_fb_correct,49,382041,0.0-19.0-0.0,,null,run_exp/static/audio/clip_18_q3_correct.m4a,null,<p> That’s correct. You press the letter L to travel to a new planet.</p>,,,,,,,,,,,,,,,,,,,,,,
quiz_q_4_ask,50,388534,0.0-19.0-1.0,,6481.9,run_exp/static/audio/clip_20_q4_ask.m4a,,,,,,0,,,,,,,,,,,,,,,,,,
quiz_q_4_fb_correct,51,394200,0.0-20.0-0.0,,null,run_exp/static/audio/clip_21_q4_correct.m4a,null,<p> That’s correct. The more you dig on a planet the fewer gems you’ll get with each dig. </p>,,,,,,,,,,,,,,,,,,,,,,
quiz_q_5_ask,52,397287,0.0-20.0-1.0,,3081.3,run_exp/static/audio/clip_23_q5_ask.m4a,,,,,,1,,,,,,,,,,,,,,,,,,
quiz_q_5_fb_correct,53,402776,0.0-21.0-0.0,,null,run_exp/static/audio/clip_24_q5_correct.m4a,null,<p> That’s correct. The alien tells you nothing about how much treasure is on the planet.</p>,,,,,,,,,,,,,,,,,,,,,,
quiz_correct,54,406745,0.0-22.0-0.0,,null,run_exp/static/audio/clip_26_correct_quiz.m4a,null,,,,,,,,,,,,,,,,,,,,,,,
quiz_correct_continue,55,408317,0.0-22.0-1.0,,1564.9,<p>Good job! You're now ready to move on to the real game!</p>,,,,,,0,,,,,,,,,,,,,,,,,,
audio-keyboard-response,56,418906,0.0-22.0-2.0,,null,run_exp/static/audio/clip_28_real_game.m4a,null,,,,,,,,,,,,,,,,,,,,,,,
instruc_begin_exp_contine,57,423288,0.0-22.0-3.0,,4352.5,"<p>Now that you know how  to dig for space treasure and travel to new planets,you can start exploring! </p><p>Do you want to go over the instructions again or get started with the real game?</p>",,,,,,1,,,,,,1,,,,,,,,,,,,
alien_welcome,58,428304,0.0-23.0-0.0,,null,run_exp/static/images/task_images/aliens/old_aliens/planet/alien_planet-16.jpg,null,,,,,,,,,,,,16,"16,64,9,67,70,12,28,50,3,54,74,56,20,45,79,13,24,29,19,47,7,40,80,57,71,31,26,63,32,27,44,17,53,42,34,72,11,10,77,39,41,59,68,78,15",,,,,,,,,,
land,59,428811,0.0-23.0-1.0,,null,run_exp/static/images/task_images/land.jpg,null,,,,,,95,,,1,,,,,,,,,,,,,,
dig,60,430822,0.0-23.0-2.0,,,,,,,,,,,"[{""stimulus"":""run_exp/static/images/task_images/dig.jpg"",""time"":0.7999999970197678},{""stimulus"":""run_exp/static/images/task_images/land.jpg"",""time"":672.2999999970198},{""stimulus"":""run_exp/static/images/task_images/dig.jpg"",""time"":1337.699999999255}]",[],1,,,,,,,,,,,,,,
harvest,61,431827,0.0-23.0-3.0,,null,run_exp/static/images/task_images/gems/95.jpg,null,,,,,,26,,,1,,,,,95,0.271141102,0.273684211,,,,,,,
decision,62,434523,0.0-23.0-4.0,,2691.5,run_exp/static/images/task_images/land.jpg,65,,,,,,26,,,1,,,,,,,,11228,1,0,FALSE,,,
dig,63,434850,0.0-24.0-0.0,,,,,,,,,,,"[{""stimulus"":""run_exp/static/images/task_images/dig.jpg"",""time"":0.6999999992549419},{""stimulus"":""run_exp/static/images/task_images/land.jpg"",""time"":106.19999999925494},{""stimulus"":""run_exp/static/images/task_images/dig.jpg"",""time"":208.89999999850988}]",[],1,,,,,,,,,,,,,,
harvest,64,436570,0.0-24.0-1.0,,null,run_exp/static/images/task_images/gems/26.jpg,null,,,,,,6,,,1,,,,,26,0.24992328,0.230769231,,,,,,,
decision,65,439186,0.0-24.0-2.0,,2609.3,run_exp/static/images/task_images/land.jpg,76,,,,,,6,,,1,,,,,,,,15889,1,1,TRUE,,,
travel,66,446594,0.0-25.0-0.0,,,,,,,,,,,"[{""stimulus"":""run_exp/static/images/task_images/rocket-01.jpg"",""time"":0.6000000014901161},{""stimulus"":""run_exp/static/images/task_images/rocket-02.jpg"",""time"":824.5},{""stimulus"":""run_exp/static/images/task_images/rocket-03.jpg"",""time"":1645.300000000745},{""stimulus"":""run_exp/static/images/task_images/rocket-04.jpg"",""time"":2467},{""stimulus"":""run_exp/static/images/task_images/rocket-05.jpg"",""time"":3287.199999999255},{""stimulus"":""run_exp/static/images/task_images/rocket-06.jpg"",""time"":4108.800000000745},{""stimulus"":""run_exp/static/images/task_images/rocket-07.jpg"",""time"":4931.300000000745},{""stimulus"":""run_exp/static/images/task_images/rocket-08.jpg"",""time"":5751.10000000149},{""stimulus"":""run_exp/static/images/task_images/rocket-09.jpg"",""time"":6570.900000002235}]",[],1,,,,,,,,,,,,,,
alien_welcome,67,451604,0.0-25.0-1.0,,null,run_exp/static/images/task_images/aliens/old_aliens/planet/alien_planet-64.jpg,null,,,,,,,,,,,,64,"16,64,9,67,70,12,28,50,3,54,74,56,20,45,79,13,24,29,19,47,7,40,80,57,71,31,26,63,32,27,44,17,53,42,34,72,11,10,77,39,41,59,68,78,15",,,,,,,,,,
land,68,452113,0.0-25.0-2.0,,null,run_exp/static/images/task_images/land.jpg,null,,,,,,95,,,2,,,,,,,,,,,,,,
dig,69,454123,0.0-25.0-3.0,,,,,,,,,,,"[{""stimulus"":""run_exp/static/images/task_images/dig.jpg"",""time"":1.1000000014901161},{""stimulus"":""run_exp/static/images/task_images/land.jpg"",""time"":670.5},{""stimulus"":""run_exp/static/images/task_images/dig.jpg"",""time"":1339.4000000022352}]",[],2,,,,,,,,,,,,,,
harvest,70,455139,0.0-25.0-4.0,,null,run_exp/static/images/task_images/gems/95.jpg,null,,,,,,20,,,2,,,,,95,0.211894973,0.210526316,,,,,,,
decision,71,456187,0.0-25.0-5.0,,1033.5,run_exp/static/images/task_images/land.jpg,65,,,,,,20,,,2,,,,,,,,32890,1,0,FALSE,,,
dig,72,458171,0.0-26.0-0.0,,,,,,,,,,,"[{""stimulus"":""run_exp/static/images/task_images/dig.jpg"",""time"":0.7999999970197678},{""stimulus"":""run_exp/static/images/task_images/land.jpg"",""time"":658.7999999970198},{""stimulus"":""run_exp/static/images/task_images/dig.jpg"",""time"":1314.699999999255}]",[],2,,,,,,,,,,,,,,
harvest,73,459176,0.0-26.0-1.0,,null,run_exp/static/images/task_images/gems/20.jpg,null,,,,,,5,,,2,,,,,20,0.243479127,0.25,,,,,,,
decision,74,461170,0.0-26.0-2.0,,1987.7,run_exp/static/images/task_images/land.jpg,76,,,,,,5,,,2,,,,,,,,37873,1,1,TRUE,,,
travel,75,469197,0.0-27.0-0.0,,,,,,,,,,,"[{""stimulus"":""run_exp/static/images/task_images/rocket-01.jpg"",""time"":0.8000000007450581},{""stimulus"":""run_exp/static/images/task_images/rocket-02.jpg"",""time"":894},{""stimulus"":""run_exp/static/images/task_images/rocket-03.jpg"",""time"":1783.800000000745},{""stimulus"":""run_exp/static/images/task_images/rocket-04.jpg"",""time"":2673.2000000029802},{""stimulus"":""run_exp/static/images/task_images/rocket-05.jpg"",""time"":3563.800000000745},{""stimulus"":""run_exp/static/images/task_images/rocket-06.jpg"",""time"":4453.900000002235},{""stimulus"":""run_exp/static/images/task_images/rocket-07.jpg"",""time"":5344},{""stimulus"":""run_exp/static/images/task_images/rocket-08.jpg"",""time"":6232.60000000149},{""stimulus"":""run_exp/static/images/task_images/rocket-09.jpg"",""time"":7125.300000000745}]",[],2,,,,,,,,,,,,,,
alien_welcome,76,474210,0.0-27.0-1.0,,null,run_exp/static/images/task_images/aliens/old_aliens/planet/alien_planet-9.jpg,null,,,,,,,,,,,,9,"16,64,9,67,70,12,28,50,3,54,74,56,20,45,79,13,24,29,19,47,7,40,80,57,71,31,26,63,32,27,44,17,53,42,34,72,11,10,77,39,41,59,68,78,15",,,,,,,,,,
land,77,474715,0.0-27.0-2.0,,null,run_exp/static/images/task_images/land.jpg,null,,,,,,98,,,3,,,,,,,,,,,,,,
dig,78,476725,0.0-27.0-3.0,,,,,,,,,,,"[{""stimulus"":""run_exp/static/images/task_images/dig.jpg"",""time"":0.7000000029802322},{""stimulus"":""run_exp/static/images/task_images/land.jpg"",""time"":670.5},{""stimulus"":""run_exp/static/images/task_images/dig.jpg"",""time"":1337}]",[],3,,,,,,,,,,,,,,
harvest,79,477730,0.0-27.0-4.0,,null,run_exp/static/images/task_images/gems/98.jpg,null,,,,,,40,,,3,,,,,98,0.407875849,0.408163265,,,,,,,
decision,80,479111,0.0-27.0-5.0,,1375.1,run_exp/static/images/task_images/land.jpg,65,,,,,,40,,,3,,,,,,,,55813,1,0,FALSE,,,
dig,81,480750,0.0-28.0-0.0,,,,,,,,,,,"[{""stimulus"":""run_exp/static/images/task_images/dig.jpg"",""time"":0.7000000029802322},{""stimulus"":""run_exp/static/images/task_images/land.jpg"",""time"":545.6000000014901},{""stimulus"":""run_exp/static/images/task_images/dig.jpg"",""time"":1085.5}]",[],3,,,,,,,,,,,,,,
harvest,82,481755,0.0-28.0-1.0,,null,run_exp/static/images/task_images/gems/40.jpg,null,,,,,,19,,,3,,,,,40,0.475071318,0.475,,,,,,,
decision,83,483690,0.0-28.0-2.0,,1932.2,run_exp/static/images/task_images/land.jpg,65,,,,,,19,,,3,,,,,,,,60392,1,1,FALSE,,,
dig,84,484770,0.0-29.0-0.0,,,,,,,,,,,"[{""stimulus"":""run_exp/static/images/task_images/dig.jpg"",""time"":0.6999999992549419},{""stimulus"":""run_exp/static/images/task_images/land.jpg"",""time"":358.69999999925494},{""stimulus"":""run_exp/static/images/task_images/dig.jpg"",""time"":716.8000000007451}]",[],3,,,,,,,,,,,,,,
harvest,85,485776,0.0-29.0-1.0,,null,run_exp/static/images/task_images/gems/19.jpg,null,,,,,,10,,,3,,,,,19,0.519659639,0.526315789,,,,,,,
decision,86,488431,0.0-29.0-2.0,,2649.8,run_exp/static/images/task_images/land.jpg,65,,,,,,10,,,3,,,,,,,,65133,1,2,FALSE,,,
dig,87,488798,0.0-30.0-0.0,,,,,,,,,,,"[{""stimulus"":""run_exp/static/images/task_images/dig.jpg"",""time"":0.6999999992549419},{""stimulus"":""run_exp/static/images/task_images/land.jpg"",""time"":120.10000000149012},{""stimulus"":""run_exp/static/images/task_images/dig.jpg"",""time"":236}]",[],3,,,,,,,,,,,,,,
harvest,88,489804,0.0-30.0-1.0,,null,run_exp/static/images/task_images/gems/10.jpg,null,,,,,,5,,,3,,,,,10,0.46141227,0.5,,,,,,,
decision,89,491670,0.0-30.0-2.0,,1862.9,run_exp/static/images/task_images/land.jpg,76,,,,,,5,,,3,,,,,,,,68373,1,3,TRUE,,,
travel,90,499822,0.0-31.0-0.0,,,,,,,,,,,"[{""stimulus"":""run_exp/static/images/task_images/rocket-01.jpg"",""time"":0.7000000029802322},{""stimulus"":""run_exp/static/images/task_images/rocket-02.jpg"",""time"":908.4000000022352},{""stimulus"":""run_exp/static/images/task_images/rocket-03.jpg"",""time"":1811.5},{""stimulus"":""run_exp/static/images/task_images/rocket-04.jpg"",""time"":2716},{""stimulus"":""run_exp/static/images/task_images/rocket-05.jpg"",""time"":3619.900000002235},{""stimulus"":""run_exp/static/images/task_images/rocket-06.jpg"",""time"":4524.10000000149},{""stimulus"":""run_exp/static/images/task_images/rocket-07.jpg"",""time"":5427.60000000149},{""stimulus"":""run_exp/static/images/task_images/rocket-08.jpg"",""time"":6332.10000000149},{""stimulus"":""run_exp/static/images/task_images/rocket-09.jpg"",""time"":7234.900000002235}]",[],3,,,,,,,,,,,,,,
alien_welcome,91,504829,0.0-31.0-1.0,,null,run_exp/static/images/task_images/aliens/old_aliens/planet/alien_planet-67.jpg,null,,,,,,,,,,,,67,"16,64,9,67,70,12,28,50,3,54,74,56,20,45,79,13,24,29,19,47,7,40,80,57,71,31,26,63,32,27,44,17,53,42,34,72,11,10,77,39,41,59,68,78,15",,,,,,,,,,
land,92,505337,0.0-31.0-2.0,,null,run_exp/static/images/task_images/land.jpg,null,,,,,,104,,,4,,,,,,,,,,,,,,
dig,93,507350,0.0-31.0-3.0,,,,,,,,,,,"[{""stimulus"":""run_exp/static/images/task_images/dig.jpg"",""time"":0.6999999992549419},{""stimulus"":""run_exp/static/images/task_images/land.jpg"",""time"":671.5999999977648},{""stimulus"":""run_exp/static/images/task_images/dig.jpg"",""time"":1337}]",[],4,,,,,,,,,,,,,,
harvest,94,508356,0.0-31.0-4.0,,null,run_exp/static/images/task_images/gems/104.jpg,null,,,,,,51,,,4,,,,,104,0.490625062,0.490384615,,,,,,,
decision,95,510674,0.0-31.0-5.0,,2300.3,run_exp/static/images/task_images/land.jpg,65,,,,,,51,,,4,,,,,,,,87377,1,0,FALSE,,,
dig,96,511392,0.0-32.0-0.0,,,,,,,,,,,"[{""stimulus"":""run_exp/static/images/task_images/dig.jpg"",""time"":0.6999999992549419},{""stimulus"":""run_exp/static/images/task_images/land.jpg"",""time"":236.40000000223517},{""stimulus"":""run_exp/static/images/task_images/dig.jpg"",""time"":471.19999999925494}]",[],4,,,,,,,,,,,,,,
harvest,97,512398,0.0-32.0-1.0,,null,run_exp/static/images/task_images/gems/51.jpg,null,,,,,,25,,,4,,,,,51,0.483195906,0.490196078,,,,,,,
decision,98,514508,0.0-32.0-2.0,,2101.7,run_exp/static/images/task_images/land.jpg,65,,,,,,25,,,4,,,,,,,,91210,1,1,FALSE,,,
dig,99,515424,0.0-33.0-0.0,,,,,,,,,,,"[{""stimulus"":""run_exp/static/images/task_images/dig.jpg"",""time"":0.5999999977648258},{""stimulus"":""run_exp/static/images/task_images/land.jpg"",""time"":303.5},{""stimulus"":""run_exp/static/images/task_images/dig.jpg"",""time"":600.5999999977648}]",[],4,,,,,,,,,,,,,,
harvest,100,517136,0.0-33.0-1.0,,null,run_exp/static/images/task_images/gems/25.jpg,null,,,,,,13,,,4,,,,,25,0.514459862,0.52,,,,,,,
decision,101,518378,0.0-33.0-2.0,,1237.8,run_exp/static/images/task_images/land.jpg,65,,,,,,13,,,4,,,,,,,,95080,1,2,FALSE,,,
dig,102,520154,0.0-34.0-0.0,,,,,,,,,,,"[{""stimulus"":""run_exp/static/images/task_images/dig.jpg"",""time"":0.6999999992549419},{""stimulus"":""run_exp/static/images/task_images/land.jpg"",""time"":591.3000000007451},{""stimulus"":""run_exp/static/images/task_images/dig.jpg"",""time"":1177.9000000022352}]",[],4,,,,,,,,,,,,,,
harvest,103,521159,0.0-34.0-1.0,,null,run_exp/static/images/task_images/gems/13.jpg,null,,,,,,7,,,4,,,,,13,0.508887222,0.538461538,,,,,,,
decision,104,522662,0.0-34.0-2.0,,1497.7,run_exp/static/images/task_images/land.jpg,76,,,,,,7,,,4,,,,,,,,99364,1,3,TRUE,,,
travel,105,531178,0.0-35.0-0.0,,,,,,,,,,,"[{""stimulus"":""run_exp/static/images/task_images/rocket-01.jpg"",""time"":0.8000000007450581},{""stimulus"":""run_exp/static/images/task_images/rocket-02.jpg"",""time"":948.8000000007451},{""stimulus"":""run_exp/static/images/task_images/rocket-03.jpg"",""time"":1892.300000000745},{""stimulus"":""run_exp/static/images/task_images/rocket-04.jpg"",""time"":2836},{""stimulus"":""run_exp/static/images/task_images/rocket-05.jpg"",""time"":3779.60000000149},{""stimulus"":""run_exp/static/images/task_images/rocket-06.jpg"",""time"":4723.900000002235},{""stimulus"":""run_exp/static/images/task_images/rocket-07.jpg"",""time"":5668.699999999255},{""stimulus"":""run_exp/static/images/task_images/rocket-08.jpg"",""time"":6612.800000000745},{""stimulus"":""run_exp/static/images/task_images/rocket-09.jpg"",""time"":7554.699999999255}]",[],4,,,,,,,,,,,,,,
alien_welcome,106,536186,0.0-35.0-1.0,,null,run_exp/static/images/task_images/aliens/old_aliens/planet/alien_planet-70.jpg,null,,,,,,,,,,,,70,"16,64,9,67,70,12,28,50,3,54,74,56,20,45,79,13,24,29,19,47,7,40,80,57,71,31,26,63,32,27,44,17,53,42,34,72,11,10,77,39,41,59,68,78,15",,,,,,,,,,
land,107,536694,0.0-35.0-2.0,,null,run_exp/static/images/task_images/land.jpg,null,,,,,,103,,,5,,,,,,,,,,,,,,
dig,108,538707,0.0-35.0-3.0,,,,,,,,,,,"[{""stimulus"":""run_exp/static/images/task_images/dig.jpg"",""time"":1},{""stimulus"":""run_exp/static/images/task_images/land.jpg"",""time"":671.3999999985099},{""stimulus"":""run_exp/static/images/task_images/dig.jpg"",""time"":1338.0999999977648}]",[],5,,,,,,,,,,,,,,
harvest,109,539713,0.0-35.0-4.0,,null,run_exp/static/images/task_images/gems/103.jpg,null,,,,,,52,,,5,,,,,103,0.508256118,0.504854369,,,,,,,
decision,110,541730,0.0-35.0-5.0,,2014.1,run_exp/static/images/task_images/land.jpg,65,,,,,,52,,,5,,,,,,,,118433,1,0,FALSE,,,
dig,111,542731,0.0-36.0-0.0,,,,,,,,,,,"[{""stimulus"":""run_exp/static/images/task_images/dig.jpg"",""time"":0.7000000029802322},{""stimulus"":""run_exp/static/images/task_images/land.jpg"",""time"":331.6000000014901},{""stimulus"":""run_exp/static/images/task_images/dig.jpg"",""time"":661}]",[],5,,,,,,,,,,,,,,
harvest,112,543736,0.0-36.0-1.0,,null,run_exp/static/images/task_images/gems/52.jpg,null,,,,,,22,,,5,,,,,52,0.417525103,0.423076923,,,,,,,
decision,113,545726,0.0-36.0-2.0,,1987.5,run_exp/static/images/task_images/land.jpg,65,,,,,,22,,,5,,,,,,,,122429,1,1,FALSE,,,
dig,114,546755,0.0-37.0-0.0,,,,,,,,,,,"[{""stimulus"":""run_exp/static/images/task_images/dig.jpg"",""time"":0.6999999992549419},{""stimulus"":""run_exp/static/images/task_images/land.jpg"",""time"":339.69999999925494},{""stimulus"":""run_exp/static/images/task_images/dig.jpg"",""time"":680}]",[],5,,,,,,,,,,,,,,
harvest,115,547759,0.0-37.0-1.0,,null,run_exp/static/images/task_images/gems/22.jpg,null,,,,,,11,,,5,,,,,22,0.511087131,0.5,,,,,,,
decision,116,549461,0.0-37.0-2.0,,1699.2,run_exp/static/images/task_images/land.jpg,65,,,,,,11,,,5,,,,,,,,126164,1,2,FALSE,,,
dig,117,550780,0.0-38.0-0.0,,,,,,,,,,,"[{""stimulus"":""run_exp/static/images/task_images/dig.jpg"",""time"":1.3999999985098839},{""stimulus"":""run_exp/static/images/task_images/land.jpg"",""time"":438.1000000014901},{""stimulus"":""run_exp/static/images/task_images/dig.jpg"",""time"":870.8000000007451}]",[],5,,,,,,,,,,,,,,
harvest,118,552473,0.0-38.0-1.0,,null,run_exp/static/images/task_images/gems/11.jpg,null,,,,,,6,,,5,,,,,11,0.532514467,0.545454545,,,,,,,
decision,119,553489,0.0-38.0-2.0,,1010.3,run_exp/static/images/task_images/land.jpg,65,,,,,,6,,,5,,,,,,,,130191,1,3,FALSE,,,
dig,120,555493,0.0-39.0-0.0,,,,,,,,,,,"[{""stimulus"":""run_exp/static/images/task_images/dig.jpg"",""time"":0.6999999992549419},{""stimulus"":""run_exp/static/images/task_images/land.jpg"",""time"":666.8000000007451},{""stimulus"":""run_exp/static/images/task_images/dig.jpg"",""time"":1331.300000000745}]",[],5,,,,,,,,,,,,,,
harvest,121,556498,0.0-39.0-1.0,,null,run_exp/static/images/task_images/gems/6.jpg,null,,,,,,3,,,5,,,,,6,0.467429581,0.5,,,,,,,
decision,122,557973,0.0-39.0-2.0,,1472.1,run_exp/static/images/task_images/land.jpg,76,,,,,,3,,,5,,,,,,,,134676,1,4,TRUE,,,
travel,123,566515,0.0-40.0-0.0,,,,,,,,,,,"[{""stimulus"":""run_exp/static/images/task_images/rocket-01.jpg"",""time"":0.6999999992549419},{""stimulus"":""run_exp/static/images/task_images/rocket-02.jpg"",""time"":950.9000000022352},{""stimulus"":""run_exp/static/images/task_images/rocket-03.jpg"",""time"":1898.1000000014901},{""stimulus"":""run_exp/static/images/task_images/rocket-04.jpg"",""time"":2845.60000000149},{""stimulus"":""run_exp/static/images/task_images/rocket-05.jpg"",""time"":3791.199999999255},{""stimulus"":""run_exp/static/images/task_images/rocket-06.jpg"",""time"":4739.60000000149},{""stimulus"":""run_exp/static/images/task_images/rocket-07.jpg"",""time"":5685.900000002235},{""stimulus"":""run_exp/static/images/task_images/rocket-08.jpg"",""time"":6632.800000000745},{""stimulus"":""run_exp/static/images/task_images/rocket-09.jpg"",""time"":7579.199999999255}]",[],5,,,,,,,,,,,,,,
alien_welcome,124,571526,0.0-40.0-1.0,,null,run_exp/static/images/task_images/aliens/old_aliens/planet/alien_planet-12.jpg,null,,,,,,,,,,,,12,"16,64,9,67,70,12,28,50,3,54,74,56,20,45,79,13,24,29,19,47,7,40,80,57,71,31,26,63,32,27,44,17,53,42,34,72,11,10,77,39,41,59,68,78,15",,,,,,,,,,
land,125,572032,0.0-40.0-2.0,,null,run_exp/static/images/task_images/land.jpg,null,,,,,,104,,,6,,,,,,,,,,,,,,
dig,126,574046,0.0-40.0-3.0,,,,,,,,,,,"[{""stimulus"":""run_exp/static/images/task_images/dig.jpg"",""time"":1.4000000022351742},{""stimulus"":""run_exp/static/images/task_images/land.jpg"",""time"":673.2000000029802},{""stimulus"":""run_exp/static/images/task_images/dig.jpg"",""time"":1337.4000000022352}]",[],6,,,,,,,,,,,,,,
harvest,127,575052,0.0-40.0-4.0,,null,run_exp/static/images/task_images/gems/104.jpg,null,,,,,,89,,,6,,,,,104,0.851002954,0.855769231,,,,,,,
decision,128,575965,0.0-40.0-5.0,,906,run_exp/static/images/task_images/land.jpg,65,,,,,,89,,,6,,,,,,,,152668,1,0,FALSE,,,
dig,129,578077,0.0-41.0-0.0,,,,,,,,,,,"[{""stimulus"":""run_exp/static/images/task_images/dig.jpg"",""time"":0.6999999992549419},{""stimulus"":""run_exp/static/images/task_images/land.jpg"",""time"":701.8999999985099},{""stimulus"":""run_exp/static/images/task_images/dig.jpg"",""time"":1399.800000000745}]",[],6,,,,,,,,,,,,,,
harvest,130,579083,0.0-41.0-1.0,,null,run_exp/static/images/task_images/gems/89.jpg,null,,,,,,70,,,6,,,,,89,0.78678704,0.786516854,,,,,,,
decision,131,580078,0.0-41.0-2.0,,991.2,run_exp/static/images/task_images/land.jpg,65,,,,,,70,,,6,,,,,,,,156780,1,1,FALSE,,,
dig,132,582102,0.0-42.0-0.0,,,,,,,,,,,"[{""stimulus"":""run_exp/static/images/task_images/dig.jpg"",""time"":0.8999999985098839},{""stimulus"":""run_exp/static/images/task_images/land.jpg"",""time"":673.2999999970198},{""stimulus"":""run_exp/static/images/task_images/dig.jpg"",""time"":1341}]",[],6,,,,,,,,,,,,,,
harvest,133,583108,0.0-42.0-1.0,,null,run_exp/static/images/task_images/gems/70.jpg,null,,,,,,57,,,6,,,,,70,0.819957547,0.814285714,,,,,,,
decision,134,584840,0.0-42.0-2.0,,1728.7,run_exp/static/images/task_images/land.jpg,65,,,,,,57,,,6,,,,,,,,161543,1,2,FALSE,,,
dig,135,586123,0.0-43.0-0.0,,,,,,,,,,,"[{""stimulus"":""run_exp/static/images/task_images/dig.jpg"",""time"":0.8000000007450581},{""stimulus"":""run_exp/static/images/task_images/land.jpg"",""time"":427.5},{""stimulus"":""run_exp/static/images/task_images/dig.jpg"",""time"":850.5}]",[],6,,,,,,,,,,,,,,
harvest,136,587129,0.0-43.0-1.0,,null,run_exp/static/images/task_images/gems/57.jpg,null,,,,,,45,,,6,,,,,57,0.788440985,0.789473684,,,,,,,
decision,137,588555,0.0-43.0-2.0,,1419.4,run_exp/static/images/task_images/land.jpg,65,,,,,,45,,,6,,,,,,,,165258,1,3,FALSE,,,
dig,138,590151,0.0-44.0-0.0,,,,,,,,,,,"[{""stimulus"":""run_exp/static/images/task_images/dig.jpg"",""time"":1.300000000745058},{""stimulus"":""run_exp/static/images/task_images/land.jpg"",""time"":529.5},{""stimulus"":""run_exp/static/images/task_images/dig.jpg"",""time"":1056.9000000022352}]",[],6,,,,,,,,,,,,,,
harvest,139,591157,0.0-44.0-1.0,,null,run_exp/static/images/task_images/gems/45.jpg,null,,,,,,36,,,6,,,,,45,0.789240754,0.8,,,,,,,
decision,140,592958,0.0-44.0-2.0,,1795.3,run_exp/static/images/task_images/land.jpg,65,,,,,,36,,,6,,,,,,,,169660,1,4,FALSE,,,
dig,141,594176,0.0-45.0-0.0,,,,,,,,,,,"[{""stimulus"":""run_exp/static/images/task_images/dig.jpg"",""time"":0.7000000029802322},{""stimulus"":""run_exp/static/images/task_images/land.jpg"",""time"":404.70000000298023},{""stimulus"":""run_exp/static/images/task_images/dig.jpg"",""time"":807.3000000007451}]",[],6,,,,,,,,,,,,,,
harvest,142,595180,0.0-45.0-1.0,,null,run_exp/static/images/task_images/gems/36.jpg,null,,,,,,30,,,6,,,,,36,0.842550237,0.833333333,,,,,,,
decision,143,596549,0.0-45.0-2.0,,1367.3,run_exp/static/images/task_images/land.jpg,65,,,,,,30,,,6,,,,,,,,173252,1,5,FALSE,,,
dig,144,598193,0.0-46.0-0.0,,,,,,,,,,,"[{""stimulus"":""run_exp/static/images/task_images/dig.jpg"",""time"":0.8000000007450581},{""stimulus"":""run_exp/static/images/task_images/land.jpg"",""time"":547.5},{""stimulus"":""run_exp/static/images/task_images/dig.jpg"",""time"":1090.5}]",[],6,,,,,,,,,,,,,,
harvest,145,599199,0.0-46.0-1.0,,null,run_exp/static/images/task_images/gems/30.jpg,null,,,,,,25,,,6,,,,,30,0.834241618,0.833333333,,,,,,,
decision,146,600778,0.0-46.0-2.0,,1574.4,run_exp/static/images/task_images/land.jpg,65,,,,,,25,,,6,,,,,,,,177480,1,6,FALSE,,,
dig,147,602218,0.0-47.0-0.0,,,,,,,,,,,"[{""stimulus"":""run_exp/static/images/task_images/dig.jpg"",""time"":0.6999999992549419},{""stimulus"":""run_exp/static/images/task_images/land.jpg"",""time"":478.19999999925494},{""stimulus"":""run_exp/static/images/task_images/dig.jpg"",""time"":953.5}]",[],6,,,,,,,,,,,,,,
harvest,148,603222,0.0-47.0-1.0,,null,run_exp/static/images/task_images/gems/25.jpg,null,,,,,,20,,,6,,,,,25,0.792701988,0.8,,,,,,,
decision,149,603814,0.0-47.0-2.0,,584.4,run_exp/static/images/task_images/land.jpg,65,,,,,,20,,,6,,,,,,,,180516,1,7,FALSE,,,
dig,150,606243,0.0-48.0-0.0,,,,,,,,,,,"[{""stimulus"":""run_exp/static/images/task_images/dig.jpg"",""time"":0.6999999992549419},{""stimulus"":""run_exp/static/images/task_images/land.jpg"",""time"":809},{""stimulus"":""run_exp/static/images/task_images/dig.jpg"",""time"":1612.800000000745}]",[],6,,,,,,,,,,,,,,
harvest,151,607247,0.0-48.0-1.0,,null,run_exp/static/images/task_images/gems/20.jpg,null,,,,,,15,,,6,,,,,20,0.766068559,0.75,,,,,,,
decision,152,609451,0.0-48.0-2.0,,2199.3,run_exp/static/images/task_images/land.jpg,65,,,,,,15,,,6,,,,,,,,186154,1,8,FALSE,,,
dig,153,610266,0.0-49.0-0.0,,,,,,,,,,,"[{""stimulus"":""run_exp/static/images/task_images/dig.jpg"",""time"":0.6999999992549419},{""stimulus"":""run_exp/static/images/task_images/land.jpg"",""time"":269.19999999925494},{""stimulus"":""run_exp/static/images/task_images/dig.jpg"",""time"":536.6999999992549}]",[],6,,,,,,,,,,,,,,
harvest,154,612101,0.0-49.0-1.0,,null,run_exp/static/images/task_images/gems/15.jpg,null,,,,,,13,,,6,,,,,15,0.850971323,0.866666667,,,,,,,
decision,155,612646,0.0-49.0-2.0,,540.3,run_exp/static/images/task_images/land.jpg,76,,,,,,13,,,6,,,,,,,,189349,1,9,TRUE,,,
travel,156,622120,0.0-50.0-0.0,,,,,,,,,,,"[{""stimulus"":""run_exp/static/images/task_images/rocket-01.jpg"",""time"":0.6000000014901161},{""stimulus"":""run_exp/static/images/task_images/rocket-02.jpg"",""time"":1056.5},{""stimulus"":""run_exp/static/images/task_images/rocket-03.jpg"",""time"":2106.300000000745},{""stimulus"":""run_exp/static/images/task_images/rocket-04.jpg"",""time"":3155.699999999255},{""stimulus"":""run_exp/static/images/task_images/rocket-05.jpg"",""time"":4208.199999999255},{""stimulus"":""run_exp/static/images/task_images/rocket-06.jpg"",""time"":5259.5},{""stimulus"":""run_exp/static/images/task_images/rocket-07.jpg"",""time"":6309.699999999255},{""stimulus"":""run_exp/static/images/task_images/rocket-08.jpg"",""time"":7361},{""stimulus"":""run_exp/static/images/task_images/rocket-09.jpg"",""time"":8413.10000000149}]",[],6,,,,,,,,,,,,,,
alien_welcome,157,627126,0.0-50.0-1.0,,null,run_exp/static/images/task_images/aliens/old_aliens/planet/alien_planet-28.jpg,null,,,,,,,,,,,,28,"16,64,9,67,70,12,28,50,3,54,74,56,20,45,79,13,24,29,19,47,7,40,80,57,71,31,26,63,32,27,44,17,53,42,34,72,11,10,77,39,41,59,68,78,15",,,,,,,,,,
land,158,627631,0.0-50.0-2.0,,null,run_exp/static/images/task_images/land.jpg,null,,,,,,105,,,7,,,,,,,,,,,,,,
dig,159,629644,0.0-50.0-3.0,,,,,,,,,,,"[{""stimulus"":""run_exp/static/images/task_images/dig.jpg"",""time"":1.300000000745058},{""stimulus"":""run_exp/static/images/task_images/land.jpg"",""time"":670.8999999985099},{""stimulus"":""run_exp/static/images/task_images/dig.jpg"",""time"":1337.800000000745}]",[],7,,,,,,,,,,,,,,
harvest,160,630649,0.0-50.0-4.0,,null,run_exp/static/images/task_images/gems/105.jpg,null,,,,,,85,,,7,,,,,105,0.810742448,0.80952381,,,,,,,
decision,161,632392,0.0-50.0-5.0,,1739.8,run_exp/static/images/task_images/land.jpg,65,,,,,,85,,,7,,,,,,,,209095,1,0,FALSE,,,
dig,162,633672,0.0-51.0-0.0,,,,,,,,,,,"[{""stimulus"":""run_exp/static/images/task_images/dig.jpg"",""time"":0.7000000029802322},{""stimulus"":""run_exp/static/images/task_images/land.jpg"",""time"":429.1000000014901},{""stimulus"":""run_exp/static/images/task_images/dig.jpg"",""time"":845}]",[],7,,,,,,,,,,,,,,
harvest,163,634677,0.0-51.0-1.0,,null,run_exp/static/images/task_images/gems/85.jpg,null,,,,,,65,,,7,,,,,85,0.76372761,0.764705882,,,,,,,
decision,164,636389,0.0-51.0-2.0,,1707.8,run_exp/static/images/task_images/land.jpg,65,,,,,,65,,,7,,,,,,,,213091,1,1,FALSE,,,
dig,165,637695,0.0-52.0-0.0,,,,,,,,,,,"[{""stimulus"":""run_exp/static/images/task_images/dig.jpg"",""time"":0.6999999992549419},{""stimulus"":""run_exp/static/images/task_images/land.jpg"",""time"":432.69999999925494},{""stimulus"":""run_exp/static/images/task_images/dig.jpg"",""time"":864.1000000014901}]",[],7,,,,,,,,,,,,,,
harvest,166,639430,0.0-52.0-1.0,,null,run_exp/static/images/task_images/gems/65.jpg,null,,,,,,50,,,7,,,,,65,0.763812319,0.769230769,,,,,,,
decision,167,640436,0.0-52.0-2.0,,1000.9,run_exp/static/images/task_images/land.jpg,65,,,,,,50,,,7,,,,,,,,217138,1,2,FALSE,,,
dig,168,642473,0.0-53.0-0.0,,,,,,,,,,,"[{""stimulus"":""run_exp/static/images/task_images/dig.jpg"",""time"":0.7000000029802322},{""stimulus"":""run_exp/static/images/task_images/land.jpg"",""time"":670.7000000029802},{""stimulus"":""run_exp/static/images/task_images/dig.jpg"",""time"":1335.800000000745}]",[],7,,,,,,,,,,,,,,
harvest,169,643479,0.0-53.0-1.0,,null,run_exp/static/images/task_images/gems/50.jpg,null,,,,,,39,,,7,,,,,50,0.77759474,0.78,,,,,,,
decision,170,644989,0.0-53.0-2.0,,1506.9,run_exp/static/images/task_images/land.jpg,65,,,,,,39,,,7,,,,,,,,221691,1,3,FALSE,,,
dig,171,646504,0.0-54.0-0.0,,,,,,,,,,,"[{""stimulus"":""run_exp/static/images/task_images/dig.jpg"",""time"":0.7000000029802322},{""stimulus"":""run_exp/static/images/task_images/land.jpg"",""time"":501.9000000022352},{""stimulus"":""run_exp/static/images/task_images/dig.jpg"",""time"":999.1000000014901}]",[],7,,,,,,,,,,,,,,
harvest,172,647507,0.0-54.0-1.0,,null,run_exp/static/images/task_images/gems/39.jpg,null,,,,,,29,,,7,,,,,39,0.749131788,0.743589744,,,,,,,
decision,173,649341,0.0-54.0-2.0,,1831.2,run_exp/static/images/task_images/land.jpg,65,,,,,,29,,,7,,,,,,,,226044,1,4,FALSE,,,
dig,174,650527,0.0-55.0-0.0,,,,,,,,,,,"[{""stimulus"":""run_exp/static/images/task_images/dig.jpg"",""time"":0.6999999992549419},{""stimulus"":""run_exp/static/images/task_images/land.jpg"",""time"":394.3999999985099},{""stimulus"":""run_exp/static/images/task_images/dig.jpg"",""time"":781.3999999985099}]",[],7,,,,,,,,,,,,,,
harvest,175,652249,0.0-55.0-1.0,,null,run_exp/static/images/task_images/gems/29.jpg,null,,,,,,24,,,7,,,,,29,0.817691472,0.827586207,,,,,,,
decision,176,652759,0.0-55.0-2.0,,504.6,run_exp/static/images/task_images/land.jpg,76,,,,,,24,,,7,,,,,,,,229462,1,5,TRUE,,,
travel,177,662272,0.0-56.0-0.0,,,,,,,,,,,"[{""stimulus"":""run_exp/static/images/task_images/rocket-01.jpg"",""time"":0.9000000022351742},{""stimulus"":""run_exp/static/images/task_images/rocket-02.jpg"",""time"":1059.5},{""stimulus"":""run_exp/static/images/task_images/rocket-03.jpg"",""time"":2115.800000000745},{""stimulus"":""run_exp/static/images/task_images/rocket-04.jpg"",""time"":3168.300000000745},{""stimulus"":""run_exp/static/images/task_images/rocket-05.jpg"",""time"":4224.5},{""stimulus"":""run_exp/static/images/task_images/rocket-06.jpg"",""time"":5278.900000002235},{""stimulus"":""run_exp/static/images/task_images/rocket-07.jpg"",""time"":6335.300000000745},{""stimulus"":""run_exp/static/images/task_images/rocket-08.jpg"",""time"":7389.800000000745},{""stimulus"":""run_exp/static/images/task_images/rocket-09.jpg"",""time"":8445.5}]",[],7,,,,,,,,,,,,,,
alien_welcome,178,667279,0.0-56.0-1.0,,null,run_exp/static/images/task_images/aliens/old_aliens/planet/alien_planet-50.jpg,null,,,,,,,,,,,,50,"16,64,9,67,70,12,28,50,3,54,74,56,20,45,79,13,24,29,19,47,7,40,80,57,71,31,26,63,32,27,44,17,53,42,34,72,11,10,77,39,41,59,68,78,15",,,,,,,,,,
land,179,667785,0.0-56.0-2.0,,null,run_exp/static/images/task_images/land.jpg,null,,,,,,101,,,8,,,,,,,,,,,,,,
dig,180,669796,0.0-56.0-3.0,,,,,,,,,,,"[{""stimulus"":""run_exp/static/images/task_images/dig.jpg"",""time"":0.8000000007450581},{""stimulus"":""run_exp/static/images/task_images/land.jpg"",""time"":671.6999999992549},{""stimulus"":""run_exp/static/images/task_images/dig.jpg"",""time"":1339.3999999985099}]",[],8,,,,,,,,,,,,,,
harvest,181,670802,0.0-56.0-4.0,,null,run_exp/static/images/task_images/gems/101.jpg,null,,,,,,85,,,8,,,,,101,0.839229374,0.841584158,,,,,,,
decision,182,673697,0.0-56.0-5.0,,2891.8,run_exp/static/images/task_images/land.jpg,65,,,,,,85,,,8,,,,,,,,250399,1,0,FALSE,,,
dig,183,673821,0.0-57.0-0.0,,,,,,,,,,,"[{""stimulus"":""run_exp/static/images/task_images/dig.jpg"",""time"":0.7999999970197678},{""stimulus"":""run_exp/static/images/task_images/land.jpg"",""time"":38.69999999925494},{""stimulus"":""run_exp/static/images/task_images/dig.jpg"",""time"":74.39999999850988}]",[],8,,,,,,,,,,,,,,
harvest,184,674825,0.0-57.0-1.0,,null,run_exp/static/images/task_images/gems/85.jpg,null,,,,,,65,,,8,,,,,85,0.764275938,0.764705882,,,,,,,
decision,185,677830,0.0-57.0-2.0,,null,run_exp/static/images/task_images/land.jpg,null,,,,,,65,,,8,,,,,,,,254532,1,1,FALSE,,,
time_out,186,679848,0.0-58.0-0.0,,null,run_exp/static/images/task_images/time_out.jpg,null,,,,,,65,,,,,,,,,,,,,,,,,
decision,187,680578,0.0-58.0-1.0,,726.5,run_exp/static/images/task_images/land.jpg,65,,,,,,65,,,8,,,,,,,,257281,1,1,FALSE,,,
dig,188,682863,0.0-59.0-0.0,,,,,,,,,,,"[{""stimulus"":""run_exp/static/images/task_images/dig.jpg"",""time"":0.8000000007450581},{""stimulus"":""run_exp/static/images/task_images/land.jpg"",""time"":761.2000000029802},{""stimulus"":""run_exp/static/images/task_images/dig.jpg"",""time"":1518.5}]",[],8,,,,,,,,,,,,,,
harvest,189,683868,0.0-59.0-1.0,,null,run_exp/static/images/task_images/gems/65.jpg,null,,,,,,52,,,8,,,,,65,0.802477696,0.8,,,,,,,
decision,190,685499,0.0-59.0-2.0,,1622.6,run_exp/static/images/task_images/land.jpg,65,,,,,,52,,,8,,,,,,,,262202,1,2,FALSE,,,
dig,191,686893,0.0-60.0-0.0,,,,,,,,,,,"[{""stimulus"":""run_exp/static/images/task_images/dig.jpg"",""time"":0.6999999992549419},{""stimulus"":""run_exp/static/images/task_images/land.jpg"",""time"":463.79999999701977},{""stimulus"":""run_exp/static/images/task_images/dig.jpg"",""time"":921.3999999985099}]",[],8,,,,,,,,,,,,,,
harvest,192,687900,0.0-60.0-1.0,,null,run_exp/static/images/task_images/gems/52.jpg,null,,,,,,36,,,8,,,,,52,0.69552476,0.692307692,,,,,,,
decision,193,688741,0.0-60.0-2.0,,835,run_exp/static/images/task_images/land.jpg,65,,,,,,36,,,8,,,,,,,,265444,1,3,FALSE,,,
dig,194,690924,0.0-61.0-0.0,,,,,,,,,,,"[{""stimulus"":""run_exp/static/images/task_images/dig.jpg"",""time"":0.8000000007450581},{""stimulus"":""run_exp/static/images/task_images/land.jpg"",""time"":723.8000000007451},{""stimulus"":""run_exp/static/images/task_images/dig.jpg"",""time"":1444.8999999985099}]",[],8,,,,,,,,,,,,,,
harvest,195,691931,0.0-61.0-1.0,,null,run_exp/static/images/task_images/gems/36.jpg,null,,,,,,30,,,8,,,,,36,0.839369331,0.833333333,,,,,,,
decision,196,692274,0.0-61.0-2.0,,338,run_exp/static/images/task_images/land.jpg,65,,,,,,30,,,8,,,,,,,,268977,1,4,FALSE,,,
dig,197,694954,0.0-62.0-0.0,,,,,,,,,,,"[{""stimulus"":""run_exp/static/images/task_images/dig.jpg"",""time"":0.8000000007450581},{""stimulus"":""run_exp/static/images/task_images/land.jpg"",""time"":891.1999999992549},{""stimulus"":""run_exp/static/images/task_images/dig.jpg"",""time"":1779.699999999255}]",[],8,,,,,,,,,,,,,,
harvest,198,695959,0.0-62.0-1.0,,null,run_exp/static/images/task_images/gems/30.jpg,null,,,,,,22,,,8,,,,,30,0.747852404,0.733333333,,,,,,,
decision,199,696173,0.0-62.0-2.0,,208.7,run_exp/static/images/task_images/land.jpg,65,,,,,,22,,,8,,,,,,,,272875,1,5,FALSE,,,
dig,200,698981,0.0-63.0-0.0,,,,,,,,,,,"[{""stimulus"":""run_exp/static/images/task_images/dig.jpg"",""time"":0.6999999992549419},{""stimulus"":""run_exp/static/images/task_images/land.jpg"",""time"":933.1999999992549},{""stimulus"":""run_exp/static/images/task_images/dig.jpg"",""time"":1864}]",[],8,,,,,,,,,,,,,,
harvest,201,699987,0.0-63.0-1.0,,null,run_exp/static/images/task_images/gems/22.jpg,null,,,,,,18,,,8,,,,,22,0.80636829,0.818181818,,,,,,,
decision,202,702557,0.0-63.0-2.0,,2564.5,run_exp/static/images/task_images/land.jpg,76,,,,,,18,,,8,,,,,,,,279259,1,6,TRUE,,,
travel,203,710005,0.0-64.0-0.0,,,,,,,,,,,"[{""stimulus"":""run_exp/static/images/task_images/rocket-01.jpg"",""time"":0.6999999992549419},{""stimulus"":""run_exp/static/images/task_images/rocket-02.jpg"",""time"":829.6999999992549},{""stimulus"":""run_exp/static/images/task_images/rocket-03.jpg"",""time"":1655.300000000745},{""stimulus"":""run_exp/static/images/task_images/rocket-04.jpg"",""time"":2482.300000000745},{""stimulus"":""run_exp/static/images/task_images/rocket-05.jpg"",""time"":3308},{""stimulus"":""run_exp/static/images/task_images/rocket-06.jpg"",""time"":4135},{""stimulus"":""run_exp/static/images/task_images/rocket-07.jpg"",""time"":4960},{""stimulus"":""run_exp/static/images/task_images/rocket-08.jpg"",""time"":5786.699999999255},{""stimulus"":""run_exp/static/images/task_images/rocket-09.jpg"",""time"":6612.199999999255}]",[],8,,,,,,,,,,,,,,
alien_welcome,204,715012,0.0-64.0-1.0,,null,run_exp/static/images/task_images/aliens/old_aliens/planet/alien_planet-3.jpg,null,,,,,,,,,,,,3,"16,64,9,67,70,12,28,50,3,54,74,56,20,45,79,13,24,29,19,47,7,40,80,57,71,31,26,63,32,27,44,17,53,42,34,72,11,10,77,39,41,59,68,78,15",,,,,,,,,,
land,205,715521,0.0-64.0-2.0,,null,run_exp/static/images/task_images/land.jpg,null,,,,,,93,,,9,,,,,,,,,,,,,,
dig,206,717535,0.0-64.0-3.0,,,,,,,,,,,"[{""stimulus"":""run_exp/static/images/task_images/dig.jpg"",""time"":0.6000000014901161},{""stimulus"":""run_exp/static/images/task_images/land.jpg"",""time"":669.6999999992549},{""stimulus"":""run_exp/static/images/task_images/dig.jpg"",""time"":1336.800000000745}]",[],9,,,,,,,,,,,,,,
harvest,207,718541,0.0-64.0-4.0,,null,run_exp/static/images/task_images/gems/93.jpg,null,,,,,,29,,,9,,,,,93,0.308982392,0.311827957,,,,,,,
decision,208,720108,0.0-64.0-5.0,,1563.6,run_exp/static/images/task_images/land.jpg,65,,,,,,29,,,9,,,,,,,,296810,1,0,FALSE,,,
dig,209,721558,0.0-65.0-0.0,,,,,,,,,,,"[{""stimulus"":""run_exp/static/images/task_images/dig.jpg"",""time"":0.7999999970197678},{""stimulus"":""run_exp/static/images/task_images/land.jpg"",""time"":494.5999999977648},{""stimulus"":""run_exp/static/images/task_images/dig.jpg"",""time"":959.2999999970198}]",[],9,,,,,,,,,,,,,,
harvest,210,722567,0.0-65.0-1.0,,null,run_exp/static/images/task_images/gems/29.jpg,null,,,,,,5,,,9,,,,,29,0.17809754,0.172413793,,,,,,,
decision,211,722819,0.0-65.0-2.0,,246.1,run_exp/static/images/task_images/land.jpg,76,,,,,,5,,,9,,,,,,,,299522,1,1,TRUE,,,
travel,212,732584,0.0-66.0-0.0,,,,,,,,,,,"[{""stimulus"":""run_exp/static/images/task_images/rocket-01.jpg"",""time"":0.6999999992549419},{""stimulus"":""run_exp/static/images/task_images/rocket-02.jpg"",""time"":1087},{""stimulus"":""run_exp/static/images/task_images/rocket-03.jpg"",""time"":2170.5},{""stimulus"":""run_exp/static/images/task_images/rocket-04.jpg"",""time"":3252.800000000745},{""stimulus"":""run_exp/static/images/task_images/rocket-05.jpg"",""time"":4335.39999999851},{""stimulus"":""run_exp/static/images/task_images/rocket-06.jpg"",""time"":5418.199999999255},{""stimulus"":""run_exp/static/images/task_images/rocket-07.jpg"",""time"":6501.699999999255},{""stimulus"":""run_exp/static/images/task_images/rocket-08.jpg"",""time"":7583.60000000149},{""stimulus"":""run_exp/static/images/task_images/rocket-09.jpg"",""time"":8668}]",[],9,,,,,,,,,,,,,,
alien_welcome,213,737595,0.0-66.0-1.0,,null,run_exp/static/images/task_images/aliens/old_aliens/planet/alien_planet-54.jpg,null,,,,,,,,,,,,54,"16,64,9,67,70,12,28,50,3,54,74,56,20,45,79,13,24,29,19,47,7,40,80,57,71,31,26,63,32,27,44,17,53,42,34,72,11,10,77,39,41,59,68,78,15",,,,,,,,,,
land,214,738102,0.0-66.0-2.0,,null,run_exp/static/images/task_images/land.jpg,null,,,,,,94,,,10,,,,,,,,,,,,,,
dig,215,740113,0.0-66.0-3.0,,,,,,,,,,,"[{""stimulus"":""run_exp/static/images/task_images/dig.jpg"",""time"":0.7000000029802322},{""stimulus"":""run_exp/static/images/task_images/land.jpg"",""time"":671.6000000014901},{""stimulus"":""run_exp/static/images/task_images/dig.jpg"",""time"":1337.4000000022352}]",[],10,,,,,,,,,,,,,,
harvest,216,741117,0.0-66.0-4.0,,null,run_exp/static/images/task_images/gems/94.jpg,null,,,,,,24,,,10,,,,,94,0.259774818,0.255319149,,,,,,,
decision,217,742458,0.0-66.0-5.0,,1339,run_exp/static/images/task_images/land.jpg,65,,,,,,24,,,10,,,,,,,,319161,1,0,TRUE,,,
end_of_block_continue,218,751670,0.0-67.0-0.0,,null,run_exp/static/audio/clip_32_block_end.m4a,,,,,,null,,,,,,,,,,,,,,,,,,
alien_welcome,219,756686,0.0-68.0-0.0,,null,run_exp/static/images/task_images/aliens/old_aliens/planet/alien_planet-74.jpg,null,,,,,,,,,,,,74,"16,64,9,67,70,12,28,50,3,54,74,56,20,45,79,13,24,29,19,47,7,40,80,57,71,31,26,63,32,27,44,17,53,42,34,72,11,10,77,39,41,59,68,78,15",,,,,,,,,,
land,220,757192,0.0-68.0-1.0,,null,run_exp/static/images/task_images/land.jpg,null,,,,,,96,,,11,,,,,,,,,,,,,,
dig,221,759205,0.0-68.0-2.0,,,,,,,,,,,"[{""stimulus"":""run_exp/static/images/task_images/dig.jpg"",""time"":0.6999999992549419},{""stimulus"":""run_exp/static/images/task_images/land.jpg"",""time"":670.0999999977648},{""stimulus"":""run_exp/static/images/task_images/dig.jpg"",""time"":1337.199999999255}]",[],11,,,,,,,,,,,,,,
harvest,222,760212,0.0-68.0-3.0,,null,run_exp/static/images/task_images/gems/96.jpg,null,,,,,,17,,,11,,,,,96,0.176151367,0.177083333,,,,,,,
decision,223,763218,0.0-68.0-4.0,,null,run_exp/static/images/task_images/land.jpg,null,,,,,,17,,,11,,,,,,,,11538,2,0,FALSE,,,
time_out,224,765237,0.0-69.0-0.0,,null,run_exp/static/images/task_images/time_out.jpg,null,,,,,,17,,,,,,,,,,,,,,,,,
decision,225,765653,0.0-69.0-1.0,,405.6,run_exp/static/images/task_images/land.jpg,65,,,,,,17,,,11,,,,,,,,13973,2,0,FALSE,,,
dig,226,768262,0.0-70.0-0.0,,,,,,,,,,,"[{""stimulus"":""run_exp/static/images/task_images/dig.jpg"",""time"":0.7000000029802322},{""stimulus"":""run_exp/static/images/task_images/land.jpg"",""time"":866.9000000022352},{""stimulus"":""run_exp/static/images/task_images/dig.jpg"",""time"":1731.9000000022352}]",[],11,,,,,,,,,,,,,,
harvest,227,769266,0.0-70.0-1.0,,null,run_exp/static/images/task_images/gems/17.jpg,null,,,,,,5,,,11,,,,,17,0.320734354,0.294117647,,,,,,,
decision,228,770069,0.0-70.0-2.0,,799.5,run_exp/static/images/task_images/land.jpg,65,,,,,,5,,,11,,,,,,,,18388,2,1,FALSE,,,
dig,229,772286,0.0-71.0-0.0,,,,,,,,,,,"[{""stimulus"":""run_exp/static/images/task_images/dig.jpg"",""time"":0.8000000007450581},{""stimulus"":""run_exp/static/images/task_images/land.jpg"",""time"":735.6999999992549},{""stimulus"":""run_exp/static/images/task_images/dig.jpg"",""time"":1469.5}]",[],11,,,,,,,,,,,,,,
harvest,230,773292,0.0-71.0-1.0,,null,run_exp/static/images/task_images/gems/5.jpg,null,,,,,,1,,,11,,,,,5,0.164079377,0.2,,,,,,,
decision,231,774290,0.0-71.0-2.0,,995.7,run_exp/static/images/task_images/land.jpg,65,,,,,,1,,,11,,,,,,,,22610,2,2,FALSE,,,
dig,232,776310,0.0-72.0-0.0,,,,,,,,,,,"[{""stimulus"":""run_exp/static/images/task_images/dig.jpg"",""time"":0.6999999992549419},{""stimulus"":""run_exp/static/images/task_images/land.jpg"",""time"":672},{""stimulus"":""run_exp/static/images/task_images/dig.jpg"",""time"":1340.699999999255}]",[],11,,,,,,,,,,,,,,
harvest,233,777314,0.0-72.0-1.0,,null,run_exp/static/images/task_images/gems/1.jpg,null,,,,,,0,,,11,,,,,1,0.229214749,0,,,,,,,
decision,234,778538,0.0-72.0-2.0,,1220.2,run_exp/static/images/task_images/land.jpg,76,,,,,,0,,,11,,,,,,,,26858,2,3,TRUE,,,
travel,235,787334,0.0-73.0-0.0,,,,,,,,,,,"[{""stimulus"":""run_exp/static/images/task_images/rocket-01.jpg"",""time"":0.8000000007450581},{""stimulus"":""run_exp/static/images/task_images/rocket-02.jpg"",""time"":978.4000000022352},{""stimulus"":""run_exp/static/images/task_images/rocket-03.jpg"",""time"":1954},{""stimulus"":""run_exp/static/images/task_images/rocket-04.jpg"",""time"":2929},{""stimulus"":""run_exp/static/images/task_images/rocket-05.jpg"",""time"":3903.400000002235},{""stimulus"":""run_exp/static/images/task_images/rocket-06.jpg"",""time"":4879.900000002235},{""stimulus"":""run_exp/static/images/task_images/rocket-07.jpg"",""time"":5854.300000000745},{""stimulus"":""run_exp/static/images/task_images/rocket-08.jpg"",""time"":6831},{""stimulus"":""run_exp/static/images/task_images/rocket-09.jpg"",""time"":7803.900000002235}]",[],11,,,,,,,,,,,,,,
alien_welcome,236,792340,0.0-73.0-1.0,,null,run_exp/static/images/task_images/aliens/old_aliens/planet/alien_planet-56.jpg,null,,,,,,,,,,,,56,"16,64,9,67,70,12,28,50,3,54,74,56,20,45,79,13,24,29,19,47,7,40,80,57,71,31,26,63,32,27,44,17,53,42,34,72,11,10,77,39,41,59,68,78,15",,,,,,,,,,
land,237,792848,0.0-73.0-2.0,,null,run_exp/static/images/task_images/land.jpg,null,,,,,,109,,,12,,,,,,,,,,,,,,
dig,238,794855,0.0-73.0-3.0,,,,,,,,,,,"[{""stimulus"":""run_exp/static/images/task_images/dig.jpg"",""time"":0.7000000029802322},{""stimulus"":""run_exp/static/images/task_images/land.jpg"",""time"":671},{""stimulus"":""run_exp/static/images/task_images/dig.jpg"",""time"":1337.1000000014901}]",[],12,,,,,,,,,,,,,,
harvest,239,795858,0.0-73.0-4.0,,null,run_exp/static/images/task_images/gems/109.jpg,null,,,,,,23,,,12,,,,,109,0.211156193,0.211009174,,,,,,,
decision,240,796813,0.0-73.0-5.0,,952.3,run_exp/static/images/task_images/land.jpg,65,,,,,,23,,,12,,,,,,,,45133,2,0,FALSE,,,
dig,241,798876,0.0-74.0-0.0,,,,,,,,,,,"[{""stimulus"":""run_exp/static/images/task_images/dig.jpg"",""time"":0.6999999992549419},{""stimulus"":""run_exp/static/images/task_images/land.jpg"",""time"":687.1999999992549},{""stimulus"":""run_exp/static/images/task_images/dig.jpg"",""time"":1368.199999999255}]",[],12,,,,,,,,,,,,,,
harvest,242,799880,0.0-74.0-1.0,,null,run_exp/static/images/task_images/gems/23.jpg,null,,,,,,6,,,12,,,,,23,0.248597572,0.260869565,,,,,,,
decision,243,801600,0.0-74.0-2.0,,1716.7,run_exp/static/images/task_images/land.jpg,76,,,,,,6,,,12,,,,,,,,49921,2,1,TRUE,,,
travel,244,809897,0.0-75.0-0.0,,,,,,,,,,,"[{""stimulus"":""run_exp/static/images/task_images/rocket-01.jpg"",""time"":0.6999999992549419},{""stimulus"":""run_exp/static/images/task_images/rocket-02.jpg"",""time"":925.3999999985099},{""stimulus"":""run_exp/static/images/task_images/rocket-03.jpg"",""time"":1844.5},{""stimulus"":""run_exp/static/images/task_images/rocket-04.jpg"",""time"":2765.5},{""stimulus"":""run_exp/static/images/task_images/rocket-05.jpg"",""time"":3684.699999999255},{""stimulus"":""run_exp/static/images/task_images/rocket-06.jpg"",""time"":4604.599999997765},{""stimulus"":""run_exp/static/images/task_images/rocket-07.jpg"",""time"":5523.89999999851},{""stimulus"":""run_exp/static/images/task_images/rocket-08.jpg"",""time"":6443.79999999702},{""stimulus"":""run_exp/static/images/task_images/rocket-09.jpg"",""time"":7364.099999997765}]",[],12,,,,,,,,,,,,,,
alien_welcome,245,814903,0.0-75.0-1.0,,null,run_exp/static/images/task_images/aliens/old_aliens/planet/alien_planet-20.jpg,null,,,,,,,,,,,,20,"16,64,9,67,70,12,28,50,3,54,74,56,20,45,79,13,24,29,19,47,7,40,80,57,71,31,26,63,32,27,44,17,53,42,34,72,11,10,77,39,41,59,68,78,15",,,,,,,,,,
land,246,815409,0.0-75.0-2.0,,null,run_exp/static/images/task_images/land.jpg,null,,,,,,101,,,13,,,,,,,,,,,,,,
dig,247,817421,0.0-75.0-3.0,,,,,,,,,,,"[{""stimulus"":""run_exp/static/images/task_images/dig.jpg"",""time"":0.8000000007450581},{""stimulus"":""run_exp/static/images/task_images/land.jpg"",""time"":671.1000000014901},{""stimulus"":""run_exp/static/images/task_images/dig.jpg"",""time"":1336.7000000029802}]",[],13,,,,,,,,,,,,,,
harvest,248,818428,0.0-75.0-4.0,,null,run_exp/static/images/task_images/gems/101.jpg,null,,,,,,22,,,13,,,,,101,0.21594534,0.217821782,,,,,,,
decision,249,819484,0.0-75.0-5.0,,1048.4,run_exp/static/images/task_images/land.jpg,65,,,,,,22,,,13,,,,,,,,67803,2,0,FALSE,,,
dig,250,821454,0.0-76.0-0.0,,,,,,,,,,,"[{""stimulus"":""run_exp/static/images/task_images/dig.jpg"",""time"":0.6000000014901161},{""stimulus"":""run_exp/static/images/task_images/land.jpg"",""time"":654},{""stimulus"":""run_exp/static/images/task_images/dig.jpg"",""time"":1303}]",[],13,,,,,,,,,,,,,,
harvest,251,822461,0.0-76.0-1.0,,null,run_exp/static/images/task_images/gems/22.jpg,null,,,,,,4,,,13,,,,,22,0.178766569,0.181818182,,,,,,,
decision,252,823422,0.0-76.0-2.0,,953.6,run_exp/static/images/task_images/land.jpg,76,,,,,,4,,,13,,,,,,,,71741,2,1,TRUE,,,
travel,253,832488,0.0-77.0-0.0,,,,,,,,,,,"[{""stimulus"":""run_exp/static/images/task_images/rocket-01.jpg"",""time"":1.0999999977648258},{""stimulus"":""run_exp/static/images/task_images/rocket-02.jpg"",""time"":1011.1999999992549},{""stimulus"":""run_exp/static/images/task_images/rocket-03.jpg"",""time"":2015},{""stimulus"":""run_exp/static/images/task_images/rocket-04.jpg"",""time"":3019.5},{""stimulus"":""run_exp/static/images/task_images/rocket-05.jpg"",""time"":4023.5},{""stimulus"":""run_exp/static/images/task_images/rocket-06.jpg"",""time"":5028.79999999702},{""stimulus"":""run_exp/static/images/task_images/rocket-07.jpg"",""time"":6033.39999999851},{""stimulus"":""run_exp/static/images/task_images/rocket-08.jpg"",""time"":7039.699999999255},{""stimulus"":""run_exp/static/images/task_images/rocket-09.jpg"",""time"":8044.699999999255}]",[],13,,,,,,,,,,,,,,
alien_welcome,254,837497,0.0-77.0-1.0,,null,run_exp/static/images/task_images/aliens/old_aliens/planet/alien_planet-45.jpg,null,,,,,,,,,,,,45,"16,64,9,67,70,12,28,50,3,54,74,56,20,45,79,13,24,29,19,47,7,40,80,57,71,31,26,63,32,27,44,17,53,42,34,72,11,10,77,39,41,59,68,78,15",,,,,,,,,,
land,255,838005,0.0-77.0-2.0,,null,run_exp/static/images/task_images/land.jpg,null,,,,,,109,,,14,,,,,,,,,,,,,,
dig,256,840019,0.0-77.0-3.0,,,,,,,,,,,"[{""stimulus"":""run_exp/static/images/task_images/dig.jpg"",""time"":0.6000000014901161},{""stimulus"":""run_exp/static/images/task_images/land.jpg"",""time"":671},{""stimulus"":""run_exp/static/images/task_images/dig.jpg"",""time"":1337.6000000014901}]",[],14,,,,,,,,,,,,,,
harvest,257,841026,0.0-77.0-4.0,,null,run_exp/static/images/task_images/gems/109.jpg,null,,,,,,87,,,14,,,,,109,0.798474464,0.798165138,,,,,,,
decision,258,841593,0.0-77.0-5.0,,558.7,run_exp/static/images/task_images/land.jpg,65,,,,,,87,,,14,,,,,,,,89913,2,0,FALSE,,,
dig,259,844049,0.0-78.0-0.0,,,,,,,,,,,"[{""stimulus"":""run_exp/static/images/task_images/dig.jpg"",""time"":0.6000000014901161},{""stimulus"":""run_exp/static/images/task_images/land.jpg"",""time"":815.6999999992549},{""stimulus"":""run_exp/static/images/task_images/dig.jpg"",""time"":1630.199999999255}]",[],14,,,,,,,,,,,,,,
harvest,260,845055,0.0-78.0-1.0,,null,run_exp/static/images/task_images/gems/87.jpg,null,,,,,,74,,,14,,,,,87,0.851552412,0.850574713,,,,,,,
decision,261,846673,0.0-78.0-2.0,,1614,run_exp/static/images/task_images/land.jpg,65,,,,,,74,,,14,,,,,,,,94993,2,1,FALSE,,,
dig,262,848079,0.0-79.0-0.0,,,,,,,,,,,"[{""stimulus"":""run_exp/static/images/task_images/dig.jpg"",""time"":0.8000000007450581},{""stimulus"":""run_exp/static/images/task_images/land.jpg"",""time"":466.5},{""stimulus"":""run_exp/static/images/task_images/dig.jpg"",""time"":927.8999999985099}]",[],14,,,,,,,,,,,,,,
harvest,263,849083,0.0-79.0-1.0,,null,run_exp/static/images/task_images/gems/74.jpg,null,,,,,,66,,,14,,,,,74,0.895780532,0.891891892,,,,,,,
decision,264,850839,0.0-79.0-2.0,,1752.7,run_exp/static/images/task_images/land.jpg,65,,,,,,66,,,14,,,,,,,,99158,2,2,FALSE,,,
dig,265,852101,0.0-80.0-0.0,,,,,,,,,,,"[{""stimulus"":""run_exp/static/images/task_images/dig.jpg"",""time"":0.6999999992549419},{""stimulus"":""run_exp/static/images/task_images/land.jpg"",""time"":419.5},{""stimulus"":""run_exp/static/images/task_images/dig.jpg"",""time"":834}]",[],14,,,,,,,,,,,,,,
harvest,266,853105,0.0-80.0-1.0,,null,run_exp/static/images/task_images/gems/66.jpg,null,,,,,,55,,,14,,,,,66,0.834775451,0.833333333,,,,,,,
decision,267,854767,0.0-80.0-2.0,,1658,run_exp/static/images/task_images/land.jpg,65,,,,,,55,,,14,,,,,,,,103086,2,3,FALSE,,,
dig,268,856127,0.0-81.0-0.0,,,,,,,,,,,"[{""stimulus"":""run_exp/static/images/task_images/dig.jpg"",""time"":0.7000000029802322},{""stimulus"":""run_exp/static/images/task_images/land.jpg"",""time"":450.4000000022352},{""stimulus"":""run_exp/static/images/task_images/dig.jpg"",""time"":898.2000000029802}]",[],14,,,,,,,,,,,,,,
harvest,269,857131,0.0-81.0-1.0,,null,run_exp/static/images/task_images/gems/55.jpg,null,,,,,,43,,,14,,,,,55,0.775974502,0.781818182,,,,,,,
decision,270,859138,0.0-81.0-2.0,,1999.9,run_exp/static/images/task_images/land.jpg,76,,,,,,43,,,14,,,,,,,,107458,2,4,TRUE,,,
travel,271,867162,0.0-82.0-0.0,,,,,,,,,,,"[{""stimulus"":""run_exp/static/images/task_images/rocket-01.jpg"",""time"":0.7999999970197678},{""stimulus"":""run_exp/static/images/task_images/rocket-02.jpg"",""time"":892.5999999977648},{""stimulus"":""run_exp/static/images/task_images/rocket-03.jpg"",""time"":1780.5999999977648},{""stimulus"":""run_exp/static/images/task_images/rocket-04.jpg"",""time"":2669.2999999970198},{""stimulus"":""run_exp/static/images/task_images/rocket-05.jpg"",""time"":3556.199999999255},{""stimulus"":""run_exp/static/images/task_images/rocket-06.jpg"",""time"":4443.79999999702},{""stimulus"":""run_exp/static/images/task_images/rocket-07.jpg"",""time"":5330.89999999851},{""stimulus"":""run_exp/static/images/task_images/rocket-08.jpg"",""time"":6221.39999999851},{""stimulus"":""run_exp/static/images/task_images/rocket-09.jpg"",""time"":7108}]",[],14,,,,,,,,,,,,,,
alien_welcome,272,872172,0.0-82.0-1.0,,null,run_exp/static/images/task_images/aliens/old_aliens/planet/alien_planet-79.jpg,null,,,,,,,,,,,,79,"16,64,9,67,70,12,28,50,3,54,74,56,20,45,79,13,24,29,19,47,7,40,80,57,71,31,26,63,32,27,44,17,53,42,34,72,11,10,77,39,41,59,68,78,15",,,,,,,,,,
land,273,872681,0.0-82.0-2.0,,null,run_exp/static/images/task_images/land.jpg,null,,,,,,96,,,15,,,,,,,,,,,,,,
dig,274,874693,0.0-82.0-3.0,,,,,,,,,,,"[{""stimulus"":""run_exp/static/images/task_images/dig.jpg"",""time"":0.6999999992549419},{""stimulus"":""run_exp/static/images/task_images/land.jpg"",""time"":672.1999999992549},{""stimulus"":""run_exp/static/images/task_images/dig.jpg"",""time"":1336.6000000014901}]",[],15,,,,,,,,,,,,,,
harvest,275,875702,0.0-82.0-4.0,,null,run_exp/static/images/task_images/gems/96.jpg,null,,,,,,80,,,15,,,,,96,0.83527551,0.833333333,,,,,,,
decision,276,876380,0.0-82.0-5.0,,671,run_exp/static/images/task_images/land.jpg,65,,,,,,80,,,15,,,,,,,,124699,2,0,FALSE,,,
dig,277,878729,0.0-83.0-0.0,,,,,,,,,,,"[{""stimulus"":""run_exp/static/images/task_images/dig.jpg"",""time"":0.6999999992549419},{""stimulus"":""run_exp/static/images/task_images/land.jpg"",""time"":779.6999999992549},{""stimulus"":""run_exp/static/images/task_images/dig.jpg"",""time"":1556.300000000745}]",[],15,,,,,,,,,,,,,,
harvest,278,879735,0.0-83.0-1.0,,null,run_exp/static/images/task_images/gems/80.jpg,null,,,,,,71,,,15,,,,,80,0.882581558,0.8875,,,,,,,
decision,279,880581,0.0-83.0-2.0,,843,run_exp/static/images/task_images/land.jpg,76,,,,,,71,,,15,,,,,,,,128900,2,1,TRUE,,,
travel,280,889751,0.0-84.0-0.0,,,,,,,,,,,"[{""stimulus"":""run_exp/static/images/task_images/rocket-01.jpg"",""time"":0.7000000029802322},{""stimulus"":""run_exp/static/images/task_images/rocket-02.jpg"",""time"":1020.4000000022352},{""stimulus"":""run_exp/static/images/task_images/rocket-03.jpg"",""time"":2038.800000000745},{""stimulus"":""run_exp/static/images/task_images/rocket-04.jpg"",""time"":3054.300000000745},{""stimulus"":""run_exp/static/images/task_images/rocket-05.jpg"",""time"":4072},{""stimulus"":""run_exp/static/images/task_images/rocket-06.jpg"",""time"":5088.60000000149},{""stimulus"":""run_exp/static/images/task_images/rocket-07.jpg"",""time"":6105.300000000745},{""stimulus"":""run_exp/static/images/task_images/rocket-08.jpg"",""time"":7122.20000000298},{""stimulus"":""run_exp/static/images/task_images/rocket-09.jpg"",""time"":8140.60000000149}]",[],15,,,,,,,,,,,,,,
alien_welcome,281,894759,0.0-84.0-1.0,,null,run_exp/static/images/task_images/aliens/old_aliens/planet/alien_planet-13.jpg,null,,,,,,,,,,,,13,"16,64,9,67,70,12,28,50,3,54,74,56,20,45,79,13,24,29,19,47,7,40,80,57,71,31,26,63,32,27,44,17,53,42,34,72,11,10,77,39,41,59,68,78,15",,,,,,,,,,
land,282,895264,0.0-84.0-2.0,,null,run_exp/static/images/task_images/land.jpg,null,,,,,,98,,,16,,,,,,,,,,,,,,
dig,283,897276,0.0-84.0-3.0,,,,,,,,,,,"[{""stimulus"":""run_exp/static/images/task_images/dig.jpg"",""time"":1.4000000022351742},{""stimulus"":""run_exp/static/images/task_images/land.jpg"",""time"":672.1000000014901},{""stimulus"":""run_exp/static/images/task_images/dig.jpg"",""time"":1339.6000000014901}]",[],16,,,,,,,,,,,,,,
harvest,284,898280,0.0-84.0-4.0,,null,run_exp/static/images/task_images/gems/98.jpg,null,,,,,,76,,,16,,,,,98,0.772609885,0.775510204,,,,,,,
decision,285,899349,0.0-84.0-5.0,,1059.4,run_exp/static/images/task_images/land.jpg,65,,,,,,76,,,16,,,,,,,,147668,2,0,FALSE,,,
dig,286,901307,0.0-85.0-0.0,,,,,,,,,,,"[{""stimulus"":""run_exp/static/images/task_images/dig.jpg"",""time"":0.8000000007450581},{""stimulus"":""run_exp/static/images/task_images/land.jpg"",""time"":651.6000000014901},{""stimulus"":""run_exp/static/images/task_images/dig.jpg"",""time"":1294.699999999255}]",[],16,,,,,,,,,,,,,,
harvest,287,902313,0.0-85.0-1.0,,null,run_exp/static/images/task_images/gems/76.jpg,null,,,,,,64,,,16,,,,,76,0.840858922,0.842105263,,,,,,,
decision,288,904023,0.0-85.0-2.0,,1707,run_exp/static/images/task_images/land.jpg,65,,,,,,64,,,16,,,,,,,,152343,2,1,FALSE,,,
dig,289,905334,0.0-86.0-0.0,,,,,,,,,,,"[{""stimulus"":""run_exp/static/images/task_images/dig.jpg"",""time"":0.6999999992549419},{""stimulus"":""run_exp/static/images/task_images/land.jpg"",""time"":435.5},{""stimulus"":""run_exp/static/images/task_images/dig.jpg"",""time"":865.5999999977648}]",[],16,,,,,,,,,,,,,,
harvest,290,906338,0.0-86.0-1.0,,null,run_exp/static/images/task_images/gems/64.jpg,null,,,,,,57,,,16,,,,,64,0.895311617,0.890625,,,,,,,
decision,291,908049,0.0-86.0-2.0,,1706.8,run_exp/static/images/task_images/land.jpg,76,,,,,,57,,,16,,,,,,,,156368,2,2,TRUE,,,
travel,292,916357,0.0-87.0-0.0,,,,,,,,,,,"[{""stimulus"":""run_exp/static/images/task_images/rocket-01.jpg"",""time"":1},{""stimulus"":""run_exp/static/images/task_images/rocket-02.jpg"",""time"":925.1000000014901},{""stimulus"":""run_exp/static/images/task_images/rocket-03.jpg"",""time"":1846},{""stimulus"":""run_exp/static/images/task_images/rocket-04.jpg"",""time"":2767.199999999255},{""stimulus"":""run_exp/static/images/task_images/rocket-05.jpg"",""time"":3689},{""stimulus"":""run_exp/static/images/task_images/rocket-06.jpg"",""time"":4609.699999999255},{""stimulus"":""run_exp/static/images/task_images/rocket-07.jpg"",""time"":5531.699999999255},{""stimulus"":""run_exp/static/images/task_images/rocket-08.jpg"",""time"":6451.199999999255},{""stimulus"":""run_exp/static/images/task_images/rocket-09.jpg"",""time"":7372.699999999255}]",[],16,,,,,,,,,,,,,,
alien_welcome,293,921363,0.0-87.0-1.0,,null,run_exp/static/images/task_images/aliens/old_aliens/planet/alien_planet-24.jpg,null,,,,,,,,,,,,24,"16,64,9,67,70,12,28,50,3,54,74,56,20,45,79,13,24,29,19,47,7,40,80,57,71,31,26,63,32,27,44,17,53,42,34,72,11,10,77,39,41,59,68,78,15",,,,,,,,,,
land,294,921870,0.0-87.0-2.0,,null,run_exp/static/images/task_images/land.jpg,null,,,,,,96,,,17,,,,,,,,,,,,,,
dig,295,923884,0.0-87.0-3.0,,,,,,,,,,,"[{""stimulus"":""run_exp/static/images/task_images/dig.jpg"",""time"":1.0999999977648258},{""stimulus"":""run_exp/static/images/task_images/land.jpg"",""time"":671.1999999992549},{""stimulus"":""run_exp/static/images/task_images/dig.jpg"",""time"":1338.5}]",[],17,,,,,,,,,,,,,,
harvest,296,924890,0.0-87.0-4.0,,null,run_exp/static/images/task_images/gems/96.jpg,null,,,,,,86,,,17,,,,,96,0.896961672,0.895833333,,,,,,,
decision,297,926928,0.0-87.0-5.0,,2031.8,run_exp/static/images/task_images/land.jpg,65,,,,,,86,,,17,,,,,,,,175248,2,0,FALSE,,,
dig,298,927913,0.0-88.0-0.0,,,,,,,,,,,"[{""stimulus"":""run_exp/static/images/task_images/dig.jpg"",""time"":0.7999999970197678},{""stimulus"":""run_exp/static/images/task_images/land.jpg"",""time"":326},{""stimulus"":""run_exp/static/images/task_images/dig.jpg"",""time"":649}]",[],17,,,,,,,,,,,,,,
harvest,299,928920,0.0-88.0-1.0,,null,run_exp/static/images/task_images/gems/86.jpg,null,,,,,,72,,,17,,,,,86,0.831975238,0.837209302,,,,,,,
decision,300,931925,0.0-88.0-2.0,,null,run_exp/static/images/task_images/land.jpg,null,,,,,,72,,,17,,,,,,,,180245,2,1,FALSE,,,
time_out,301,933944,0.0-89.0-0.0,,null,run_exp/static/images/task_images/time_out.jpg,null,,,,,,72,,,,,,,,,,,,,,,,,
decision,302,934666,0.0-89.0-1.0,,714.6,run_exp/static/images/task_images/land.jpg,65,,,,,,72,,,17,,,,,,,,182986,2,1,FALSE,,,
dig,303,936969,0.0-90.0-0.0,,,,,,,,,,,"[{""stimulus"":""run_exp/static/images/task_images/dig.jpg"",""time"":0.6999999992549419},{""stimulus"":""run_exp/static/images/task_images/land.jpg"",""time"":764.5},{""stimulus"":""run_exp/static/images/task_images/dig.jpg"",""time"":1525.5}]",[],17,,,,,,,,,,,,,,
harvest,304,937975,0.0-90.0-1.0,,null,run_exp/static/images/task_images/gems/72.jpg,null,,,,,,60,,,17,,,,,72,0.837103407,0.833333333,,,,,,,
decision,305,938750,0.0-90.0-2.0,,768.4,run_exp/static/images/task_images/land.jpg,65,,,,,,60,,,17,,,,,,,,187071,2,2,FALSE,,,
dig,306,941003,0.0-91.0-0.0,,,,,,,,,,,"[{""stimulus"":""run_exp/static/images/task_images/dig.jpg"",""time"":1},{""stimulus"":""run_exp/static/images/task_images/land.jpg"",""time"":748.3999999985099},{""stimulus"":""run_exp/static/images/task_images/dig.jpg"",""time"":1490.699999999255}]",[],17,,,,,,,,,,,,,,
harvest,307,942008,0.0-91.0-1.0,,null,run_exp/static/images/task_images/gems/60.jpg,null,,,,,,46,,,17,,,,,60,0.773369907,0.766666667,,,,,,,
decision,308,943124,0.0-91.0-2.0,,1112.2,run_exp/static/images/task_images/land.jpg,65,,,,,,46,,,17,,,,,,,,191459,2,3,FALSE,,,
dig,309,945042,0.0-92.0-0.0,,,,,,,,,,,"[{""stimulus"":""run_exp/static/images/task_images/dig.jpg"",""time"":0.6999999992549419},{""stimulus"":""run_exp/static/images/task_images/land.jpg"",""time"":632.6999999992549},{""stimulus"":""run_exp/static/images/task_images/dig.jpg"",""time"":1261.9000000022352}]",[],17,,,,,,,,,,,,,,
harvest,310,946048,0.0-92.0-1.0,,null,run_exp/static/images/task_images/gems/46.jpg,null,,,,,,36,,,17,,,,,46,0.774160479,0.782608696,,,,,,,
decision,311,946755,0.0-92.0-2.0,,703.8,run_exp/static/images/task_images/land.jpg,76,,,,,,36,,,17,,,,,,,,195075,2,4,TRUE,,,
travel,312,956062,0.0-93.0-0.0,,,,,,,,,,,"[{""stimulus"":""run_exp/static/images/task_images/rocket-01.jpg"",""time"":1.1000000014901161},{""stimulus"":""run_exp/static/images/task_images/rocket-02.jpg"",""time"":1037},{""stimulus"":""run_exp/static/images/task_images/rocket-03.jpg"",""time"":2067.89999999851},{""stimulus"":""run_exp/static/images/task_images/rocket-04.jpg"",""time"":3099.300000000745},{""stimulus"":""run_exp/static/images/task_images/rocket-05.jpg"",""time"":4131.800000000745},{""stimulus"":""run_exp/static/images/task_images/rocket-06.jpg"",""time"":5163.199999999255},{""stimulus"":""run_exp/static/images/task_images/rocket-07.jpg"",""time"":6196.300000000745},{""stimulus"":""run_exp/static/images/task_images/rocket-08.jpg"",""time"":7228.39999999851},{""stimulus"":""run_exp/static/images/task_images/rocket-09.jpg"",""time"":8261.199999999255}]",[],17,,,,,,,,,,,,,,
alien_welcome,313,961067,0.0-93.0-1.0,,null,run_exp/static/images/task_images/aliens/old_aliens/planet/alien_planet-29.jpg,null,,,,,,,,,,,,29,"16,64,9,67,70,12,28,50,3,54,74,56,20,45,79,13,24,29,19,47,7,40,80,57,71,31,26,63,32,27,44,17,53,42,34,72,11,10,77,39,41,59,68,78,15",,,,,,,,,,
land,314,961574,0.0-93.0-2.0,,null,run_exp/static/images/task_images/land.jpg,null,,,,,,101,,,18,,,,,,,,,,,,,,
dig,315,963588,0.0-93.0-3.0,,,,,,,,,,,"[{""stimulus"":""run_exp/static/images/task_images/dig.jpg"",""time"":0.7999999970197678},{""stimulus"":""run_exp/static/images/task_images/land.jpg"",""time"":672.6999999992549},{""stimulus"":""run_exp/static/images/task_images/dig.jpg"",""time"":1336.8999999985099}]",[],18,,,,,,,,,,,,,,
harvest,316,964594,0.0-93.0-4.0,,null,run_exp/static/images/task_images/gems/101.jpg,null,,,,,,79,,,18,,,,,101,0.784062733,0.782178218,,,,,,,
decision,317,965018,0.0-93.0-5.0,,414.6,run_exp/static/images/task_images/land.jpg,65,,,,,,79,,,18,,,,,,,,213337,2,0,FALSE,,,
dig,318,967620,0.0-94.0-0.0,,,,,,,,,,,"[{""stimulus"":""run_exp/static/images/task_images/dig.jpg"",""time"":0.8000000007450581},{""stimulus"":""run_exp/static/images/task_images/land.jpg"",""time"":863.6000000014901},{""stimulus"":""run_exp/static/images/task_images/dig.jpg"",""time"":1726.4000000022352}]",[],18,,,,,,,,,,,,,,
harvest,319,968623,0.0-94.0-1.0,,null,run_exp/static/images/task_images/gems/79.jpg,null,,,,,,68,,,18,,,,,79,0.862071199,0.860759494,,,,,,,
decision,320,969983,0.0-94.0-2.0,,1356.4,run_exp/static/images/task_images/land.jpg,65,,,,,,68,,,18,,,,,,,,218303,2,1,FALSE,,,
dig,321,971652,0.0-95.0-0.0,,,,,,,,,,,"[{""stimulus"":""run_exp/static/images/task_images/dig.jpg"",""time"":0.8000000007450581},{""stimulus"":""run_exp/static/images/task_images/land.jpg"",""time"":550.6000000014901},{""stimulus"":""run_exp/static/images/task_images/dig.jpg"",""time"":1099.8999999985099}]",[],18,,,,,,,,,,,,,,
harvest,322,972658,0.0-95.0-1.0,,null,run_exp/static/images/task_images/gems/68.jpg,null,,,,,,61,,,18,,,,,68,0.898619098,0.897058824,,,,,,,
decision,323,974172,0.0-95.0-2.0,,1505.2,run_exp/static/images/task_images/land.jpg,65,,,,,,61,,,18,,,,,,,,222492,2,2,FALSE,,,
dig,324,975687,0.0-96.0-0.0,,,,,,,,,,,"[{""stimulus"":""run_exp/static/images/task_images/dig.jpg"",""time"":1.1000000014901161},{""stimulus"":""run_exp/static/images/task_images/land.jpg"",""time"":503.6000000014901},{""stimulus"":""run_exp/static/images/task_images/dig.jpg"",""time"":1001.6999999992549}]",[],18,,,,,,,,,,,,,,
harvest,325,976693,0.0-96.0-1.0,,null,run_exp/static/images/task_images/gems/61.jpg,null,,,,,,47,,,18,,,,,61,0.770208556,0.770491803,,,,,,,
decision,326,977986,0.0-96.0-2.0,,1290.7,run_exp/static/images/task_images/land.jpg,76,,,,,,47,,,18,,,,,,,,226305,2,3,TRUE,,,
travel,327,986712,0.0-97.0-0.0,,,,,,,,,,,"[{""stimulus"":""run_exp/static/images/task_images/rocket-01.jpg"",""time"":1.6000000014901161},{""stimulus"":""run_exp/static/images/task_images/rocket-02.jpg"",""time"":971.6999999992549},{""stimulus"":""run_exp/static/images/task_images/rocket-03.jpg"",""time"":1940.199999999255},{""stimulus"":""run_exp/static/images/task_images/rocket-04.jpg"",""time"":2905},{""stimulus"":""run_exp/static/images/task_images/rocket-05.jpg"",""time"":3874},{""stimulus"":""run_exp/static/images/task_images/rocket-06.jpg"",""time"":4839},{""stimulus"":""run_exp/static/images/task_images/rocket-07.jpg"",""time"":5806.699999999255},{""stimulus"":""run_exp/static/images/task_images/rocket-08.jpg"",""time"":6774},{""stimulus"":""run_exp/static/images/task_images/rocket-09.jpg"",""time"":7742.199999999255}]",[],18,,,,,,,,,,,,,,
alien_welcome,328,991720,0.0-97.0-1.0,,null,run_exp/static/images/task_images/aliens/old_aliens/planet/alien_planet-19.jpg,null,,,,,,,,,,,,19,"16,64,9,67,70,12,28,50,3,54,74,56,20,45,79,13,24,29,19,47,7,40,80,57,71,31,26,63,32,27,44,17,53,42,34,72,11,10,77,39,41,59,68,78,15",,,,,,,,,,
land,329,992236,0.0-97.0-2.0,,null,run_exp/static/images/task_images/land.jpg,null,,,,,,102,,,19,,,,,,,,,,,,,,
dig,330,994251,0.0-97.0-3.0,,,,,,,,,,,"[{""stimulus"":""run_exp/static/images/task_images/dig.jpg"",""time"":0.8000000007450581},{""stimulus"":""run_exp/static/images/task_images/land.jpg"",""time"":670.8999999985099},{""stimulus"":""run_exp/static/images/task_images/dig.jpg"",""time"":1338.699999999255}]",[],19,,,,,,,,,,,,,,
harvest,331,995259,0.0-97.0-4.0,,null,run_exp/static/images/task_images/gems/102.jpg,null,,,,,,55,,,19,,,,,102,0.540602269,0.539215686,,,,,,,
decision,332,996747,0.0-97.0-5.0,,1482.9,run_exp/static/images/task_images/land.jpg,65,,,,,,55,,,19,,,,,,,,245066,2,0,FALSE,,,
dig,333,998279,0.0-98.0-0.0,,,,,,,,,,,"[{""stimulus"":""run_exp/static/images/task_images/dig.jpg"",""time"":0.8000000007450581},{""stimulus"":""run_exp/static/images/task_images/land.jpg"",""time"":509.6000000014901},{""stimulus"":""run_exp/static/images/task_images/dig.jpg"",""time"":1012.8999999985099}]",[],19,,,,,,,,,,,,,,
harvest,334,999285,0.0-98.0-1.0,,null,run_exp/static/images/task_images/gems/55.jpg,null,,,,,,24,,,19,,,,,55,0.436872706,0.436363636,,,,,,,
decision,335,1000066,0.0-98.0-2.0,,775,run_exp/static/images/task_images/land.jpg,76,,,,,,24,,,19,,,,,,,,248385,2,1,TRUE,,,
travel,336,1009310,0.0-99.0-0.0,,,,,,,,,,,"[{""stimulus"":""run_exp/static/images/task_images/rocket-01.jpg"",""time"":0.6999999992549419},{""stimulus"":""run_exp/static/images/task_images/rocket-02.jpg"",""time"":1030},{""stimulus"":""run_exp/static/images/task_images/rocket-03.jpg"",""time"":2055.099999997765},{""stimulus"":""run_exp/static/images/task_images/rocket-04.jpg"",""time"":3079.5},{""stimulus"":""run_exp/static/images/task_images/rocket-05.jpg"",""time"":4105.699999999255},{""stimulus"":""run_exp/static/images/task_images/rocket-06.jpg"",""time"":5128},{""stimulus"":""run_exp/static/images/task_images/rocket-07.jpg"",""time"":6153.199999999255},{""stimulus"":""run_exp/static/images/task_images/rocket-08.jpg"",""time"":7178.699999999255},{""stimulus"":""run_exp/static/images/task_images/rocket-09.jpg"",""time"":8203.39999999851}]",[],19,,,,,,,,,,,,,,
alien_welcome,337,1014319,0.0-99.0-1.0,,null,run_exp/static/images/task_images/aliens/old_aliens/planet/alien_planet-47.jpg,null,,,,,,,,,,,,47,"16,64,9,67,70,12,28,50,3,54,74,56,20,45,79,13,24,29,19,47,7,40,80,57,71,31,26,63,32,27,44,17,53,42,34,72,11,10,77,39,41,59,68,78,15",,,,,,,,,,
land,338,1014825,0.0-99.0-2.0,,null,run_exp/static/images/task_images/land.jpg,null,,,,,,103,,,20,,,,,,,,,,,,,,
dig,339,1016834,0.0-99.0-3.0,,,,,,,,,,,"[{""stimulus"":""run_exp/static/images/task_images/dig.jpg"",""time"":0.9000000022351742},{""stimulus"":""run_exp/static/images/task_images/land.jpg"",""time"":673.3000000007451},{""stimulus"":""run_exp/static/images/task_images/dig.jpg"",""time"":1337.7000000029802}]",[],20,,,,,,,,,,,,,,
harvest,340,1017841,0.0-99.0-4.0,,null,run_exp/static/images/task_images/gems/103.jpg,null,,,,,,77,,,20,,,,,103,0.748677031,0.747572816,,,,,,,
decision,341,1019027,0.0-99.0-5.0,,1179.5,run_exp/static/images/task_images/land.jpg,65,,,,,,77,,,20,,,,,,,,267347,2,0,FALSE,,,
dig,342,1020868,0.0-100.0-0.0,,,,,,,,,,,"[{""stimulus"":""run_exp/static/images/task_images/dig.jpg"",""time"":0.8000000007450581},{""stimulus"":""run_exp/static/images/task_images/land.jpg"",""time"":610},{""stimulus"":""run_exp/static/images/task_images/dig.jpg"",""time"":1216.6000000014901}]",[],20,,,,,,,,,,,,,,
harvest,343,1021873,0.0-100.0-1.0,,null,run_exp/static/images/task_images/gems/77.jpg,null,,,,,,50,,,20,,,,,77,0.654025182,0.649350649,,,,,,,
decision,344,1024729,0.0-100.0-2.0,,2852.2,run_exp/static/images/task_images/land.jpg,65,,,,,,50,,,20,,,,,,,,273049,2,1,FALSE,,,
dig,345,1024894,0.0-101.0-0.0,,,,,,,,,,,"[{""stimulus"":""run_exp/static/images/task_images/dig.jpg"",""time"":0.7000000029802322},{""stimulus"":""run_exp/static/images/task_images/land.jpg"",""time"":52.600000001490116},{""stimulus"":""run_exp/static/images/task_images/dig.jpg"",""time"":101.80000000074506}]",[],20,,,,,,,,,,,,,,
harvest,346,1025898,0.0-101.0-1.0,,null,run_exp/static/images/task_images/gems/50.jpg,null,,,,,,42,,,20,,,,,50,0.842898526,0.84,,,,,,,
decision,347,1027384,0.0-101.0-2.0,,1482,run_exp/static/images/task_images/land.jpg,76,,,,,,42,,,20,,,,,,,,275704,2,2,TRUE,,,
travel,348,1035917,0.0-102.0-0.0,,,,,,,,,,,"[{""stimulus"":""run_exp/static/images/task_images/rocket-01.jpg"",""time"":0.6999999992549419},{""stimulus"":""run_exp/static/images/task_images/rocket-02.jpg"",""time"":950.7999999970198},{""stimulus"":""run_exp/static/images/task_images/rocket-03.jpg"",""time"":1896.3999999985099},{""stimulus"":""run_exp/static/images/task_images/rocket-04.jpg"",""time"":2841.699999999255},{""stimulus"":""run_exp/static/images/task_images/rocket-05.jpg"",""time"":3786.89999999851},{""stimulus"":""run_exp/static/images/task_images/rocket-06.jpg"",""time"":4734.099999997765},{""stimulus"":""run_exp/static/images/task_images/rocket-07.jpg"",""time"":5680.699999999255},{""stimulus"":""run_exp/static/images/task_images/rocket-08.jpg"",""time"":6626.29999999702},{""stimulus"":""run_exp/static/images/task_images/rocket-09.jpg"",""time"":7572.199999999255}]",[],20,,,,,,,,,,,,,,
alien_welcome,349,1040925,0.0-102.0-1.0,,null,run_exp/static/images/task_images/aliens/old_aliens/planet/alien_planet-7.jpg,null,,,,,,,,,,,,7,"16,64,9,67,70,12,28,50,3,54,74,56,20,45,79,13,24,29,19,47,7,40,80,57,71,31,26,63,32,27,44,17,53,42,34,72,11,10,77,39,41,59,68,78,15",,,,,,,,,,
land,350,1041432,0.0-102.0-2.0,,null,run_exp/static/images/task_images/land.jpg,null,,,,,,94,,,21,,,,,,,,,,,,,,
dig,351,1043442,0.0-102.0-3.0,,,,,,,,,,,"[{""stimulus"":""run_exp/static/images/task_images/dig.jpg"",""time"":1},{""stimulus"":""run_exp/static/images/task_images/land.jpg"",""time"":671.6999999992549},{""stimulus"":""run_exp/static/images/task_images/dig.jpg"",""time"":1337.199999999255}]",[],21,,,,,,,,,,,,,,
harvest,352,1044450,0.0-102.0-4.0,,null,run_exp/static/images/task_images/gems/94.jpg,null,,,,,,74,,,21,,,,,94,0.790756565,0.787234043,,,,,,,
decision,353,1046240,0.0-102.0-5.0,,1782,run_exp/static/images/task_images/land.jpg,65,,,,,,74,,,21,,,,,,,,294560,2,0,FALSE,,,
dig,354,1047478,0.0-103.0-0.0,,,,,,,,,,,"[{""stimulus"":""run_exp/static/images/task_images/dig.jpg"",""time"":0.6000000014901161},{""stimulus"":""run_exp/static/images/task_images/land.jpg"",""time"":409.69999999925494},{""stimulus"":""run_exp/static/images/task_images/dig.jpg"",""time"":815.8000000007451}]",[],21,,,,,,,,,,,,,,
harvest,355,1048485,0.0-103.0-1.0,,null,run_exp/static/images/task_images/gems/74.jpg,null,,,,,,66,,,21,,,,,74,0.885180177,0.891891892,,,,,,,
decision,356,1049199,0.0-103.0-2.0,,708.3,run_exp/static/images/task_images/land.jpg,65,,,,,,66,,,21,,,,,,,,297518,2,1,FALSE,,,
dig,357,1051509,0.0-104.0-0.0,,,,,,,,,,,"[{""stimulus"":""run_exp/static/images/task_images/dig.jpg"",""time"":0.6999999992549419},{""stimulus"":""run_exp/static/images/task_images/land.jpg"",""time"":765.8000000007451},{""stimulus"":""run_exp/static/images/task_images/dig.jpg"",""time"":1529}]",[],21,,,,,,,,,,,,,,
harvest,358,1052515,0.0-104.0-1.0,,null,run_exp/static/images/task_images/gems/66.jpg,null,,,,,,53,,,21,,,,,66,0.797787377,0.803030303,,,,,,,
decision,359,1054507,0.0-104.0-2.0,,1981.9,run_exp/static/images/task_images/land.jpg,76,,,,,,53,,,21,,,,,,,,302827,2,2,TRUE,,,
end_of_block_continue,360,1063694,0.0-105.0-0.0,,null,run_exp/static/audio/clip_32_block_end.m4a,,,,,,null,,,,,,,,,,,,,,,,,,
alien_welcome,361,1068715,0.0-106.0-0.0,,null,run_exp/static/images/task_images/aliens/old_aliens/planet/alien_planet-40.jpg,null,,,,,,,,,,,,40,"16,64,9,67,70,12,28,50,3,54,74,56,20,45,79,13,24,29,19,47,7,40,80,57,71,31,26,63,32,27,44,17,53,42,34,72,11,10,77,39,41,59,68,78,15",,,,,,,,,,
land,362,1069222,0.0-106.0-1.0,,null,run_exp/static/images/task_images/land.jpg,null,,,,,,103,,,22,,,,,,,,,,,,,,
dig,363,1071241,0.0-106.0-2.0,,,,,,,,,,,"[{""stimulus"":""run_exp/static/images/task_images/dig.jpg"",""time"":0.8999999985098839},{""stimulus"":""run_exp/static/images/task_images/land.jpg"",""time"":671.6999999992549},{""stimulus"":""run_exp/static/images/task_images/dig.jpg"",""time"":1337.3999999985099}]",[],22,,,,,,,,,,,,,,
harvest,364,1072247,0.0-106.0-3.0,,null,run_exp/static/images/task_images/gems/103.jpg,null,,,,,,61,,,22,,,,,103,0.592029887,0.59223301,,,,,,,
decision,365,1072803,0.0-106.0-4.0,,549.5,run_exp/static/images/task_images/land.jpg,65,,,,,,61,,,22,,,,,,,,9093,3,0,FALSE,,,
dig,366,1075271,0.0-107.0-0.0,,,,,,,,,,,"[{""stimulus"":""run_exp/static/images/task_images/dig.jpg"",""time"":0.8000000007450581},{""stimulus"":""run_exp/static/images/task_images/land.jpg"",""time"":819.1000000014901},{""stimulus"":""run_exp/static/images/task_images/dig.jpg"",""time"":1635.8999999985099}]",[],22,,,,,,,,,,,,,,
harvest,367,1076279,0.0-107.0-1.0,,null,run_exp/static/images/task_images/gems/61.jpg,null,,,,,,31,,,22,,,,,61,0.500179411,0.508196721,,,,,,,
decision,368,1077048,0.0-107.0-2.0,,763.7,run_exp/static/images/task_images/land.jpg,76,,,,,,31,,,22,,,,,,,,13338,3,1,TRUE,,,
travel,369,1086305,0.0-108.0-0.0,,,,,,,,,,,"[{""stimulus"":""run_exp/static/images/task_images/rocket-01.jpg"",""time"":0.7999999970197678},{""stimulus"":""run_exp/static/images/task_images/rocket-02.jpg"",""time"":1030.3999999985099},{""stimulus"":""run_exp/static/images/task_images/rocket-03.jpg"",""time"":2057.39999999851},{""stimulus"":""run_exp/static/images/task_images/rocket-04.jpg"",""time"":3082.699999999255},{""stimulus"":""run_exp/static/images/task_images/rocket-05.jpg"",""time"":4109.5},{""stimulus"":""run_exp/static/images/task_images/rocket-06.jpg"",""time"":5132.79999999702},{""stimulus"":""run_exp/static/images/task_images/rocket-07.jpg"",""time"":6160.099999997765},{""stimulus"":""run_exp/static/images/task_images/rocket-08.jpg"",""time"":7185.89999999851},{""stimulus"":""run_exp/static/images/task_images/rocket-09.jpg"",""time"":8210.599999997765}]",[],22,,,,,,,,,,,,,,
alien_welcome,370,1091314,0.0-108.0-1.0,,null,run_exp/static/images/task_images/aliens/old_aliens/planet/alien_planet-80.jpg,null,,,,,,,,,,,,80,"16,64,9,67,70,12,28,50,3,54,74,56,20,45,79,13,24,29,19,47,7,40,80,57,71,31,26,63,32,27,44,17,53,42,34,72,11,10,77,39,41,59,68,78,15",,,,,,,,,,
land,371,1091820,0.0-108.0-2.0,,null,run_exp/static/images/task_images/land.jpg,null,,,,,,100,,,23,,,,,,,,,,,,,,
dig,372,1093833,0.0-108.0-3.0,,,,,,,,,,,"[{""stimulus"":""run_exp/static/images/task_images/dig.jpg"",""time"":0.8000000007450581},{""stimulus"":""run_exp/static/images/task_images/land.jpg"",""time"":670.1999999992549},{""stimulus"":""run_exp/static/images/task_images/dig.jpg"",""time"":1338.4000000022352}]",[],23,,,,,,,,,,,,,,
harvest,373,1094838,0.0-108.0-4.0,,null,run_exp/static/images/task_images/gems/100.jpg,null,,,,,,89,,,23,,,,,100,0.886370129,0.89,,,,,,,
decision,374,1097799,0.0-108.0-5.0,,2952.1,run_exp/static/images/task_images/land.jpg,65,,,,,,89,,,23,,,,,,,,34089,3,0,FALSE,,,
dig,375,1097863,0.0-109.0-0.0,,,,,,,,,,,"[{""stimulus"":""run_exp/static/images/task_images/dig.jpg"",""time"":0.8000000007450581},{""stimulus"":""run_exp/static/images/task_images/land.jpg"",""time"":17.399999998509884},{""stimulus"":""run_exp/static/images/task_images/dig.jpg"",""time"":34.399999998509884}]",[],23,,,,,,,,,,,,,,
harvest,376,1098867,0.0-109.0-1.0,,null,run_exp/static/images/task_images/gems/89.jpg,null,,,,,,78,,,23,,,,,89,0.881491298,0.876404494,,,,,,,
decision,377,1101872,0.0-109.0-2.0,,null,run_exp/static/images/task_images/land.jpg,null,,,,,,78,,,23,,,,,,,,38162,3,1,FALSE,,,
time_out,378,1103891,0.0-110.0-0.0,,null,run_exp/static/images/task_images/time_out.jpg,null,,,,,,78,,,,,,,,,,,,,,,,,
decision,379,1104889,0.0-110.0-1.0,,990.2,run_exp/static/images/task_images/land.jpg,76,,,,,,78,,,23,,,,,,,,41178,3,1,TRUE,,,
travel,380,1113919,0.0-111.0-0.0,,,,,,,,,,,"[{""stimulus"":""run_exp/static/images/task_images/rocket-01.jpg"",""time"":0.8000000007450581},{""stimulus"":""run_exp/static/images/task_images/rocket-02.jpg"",""time"":1004.3999999985099},{""stimulus"":""run_exp/static/images/task_images/rocket-03.jpg"",""time"":2006.8999999985099},{""stimulus"":""run_exp/static/images/task_images/rocket-04.jpg"",""time"":3006.60000000149},{""stimulus"":""run_exp/static/images/task_images/rocket-05.jpg"",""time"":4007.300000000745},{""stimulus"":""run_exp/static/images/task_images/rocket-06.jpg"",""time"":5009.39999999851},{""stimulus"":""run_exp/static/images/task_images/rocket-07.jpg"",""time"":6011.10000000149},{""stimulus"":""run_exp/static/images/task_images/rocket-08.jpg"",""time"":7011.10000000149},{""stimulus"":""run_exp/static/images/task_images/rocket-09.jpg"",""time"":8012.199999999255}]",[],23,,,,,,,,,,,,,,
alien_welcome,381,1118927,0.0-111.0-1.0,,null,run_exp/static/images/task_images/aliens/old_aliens/planet/alien_planet-57.jpg,null,,,,,,,,,,,,57,"16,64,9,67,70,12,28,50,3,54,74,56,20,45,79,13,24,29,19,47,7,40,80,57,71,31,26,63,32,27,44,17,53,42,34,72,11,10,77,39,41,59,68,78,15",,,,,,,,,,
land,382,1119436,0.0-111.0-2.0,,null,run_exp/static/images/task_images/land.jpg,null,,,,,,102,,,24,,,,,,,,,,,,,,
dig,383,1121448,0.0-111.0-3.0,,,,,,,,,,,"[{""stimulus"":""run_exp/static/images/task_images/dig.jpg"",""time"":0.7999999970197678},{""stimulus"":""run_exp/static/images/task_images/land.jpg"",""time"":672},{""stimulus"":""run_exp/static/images/task_images/dig.jpg"",""time"":1338.699999999255}]",[],24,,,,,,,,,,,,,,
harvest,384,1122455,0.0-111.0-4.0,,null,run_exp/static/images/task_images/gems/102.jpg,null,,,,,,53,,,24,,,,,102,0.517763084,0.519607843,,,,,,,
decision,385,1125092,0.0-111.0-5.0,,2628.9,run_exp/static/images/task_images/land.jpg,65,,,,,,53,,,24,,,,,,,,61382,3,0,FALSE,,,
dig,386,1125483,0.0-112.0-0.0,,,,,,,,,,,"[{""stimulus"":""run_exp/static/images/task_images/dig.jpg"",""time"":0.8000000007450581},{""stimulus"":""run_exp/static/images/task_images/land.jpg"",""time"":128.40000000223517},{""stimulus"":""run_exp/static/images/task_images/dig.jpg"",""time"":250}]",[],24,,,,,,,,,,,,,,
harvest,387,1126492,0.0-112.0-1.0,,null,run_exp/static/images/task_images/gems/53.jpg,null,,,,,,27,,,24,,,,,53,0.516701806,0.509433962,,,,,,,
decision,388,1129408,0.0-112.0-2.0,,2912.1,run_exp/static/images/task_images/land.jpg,65,,,,,,27,,,24,,,,,,,,65698,3,1,FALSE,,,
dig,389,1129518,0.0-113.0-0.0,,,,,,,,,,,"[{""stimulus"":""run_exp/static/images/task_images/dig.jpg"",""time"":0.8000000007450581},{""stimulus"":""run_exp/static/images/task_images/land.jpg"",""time"":31.800000000745058},{""stimulus"":""run_exp/static/images/task_images/dig.jpg"",""time"":61.100000001490116}]",[],24,,,,,,,,,,,,,,
harvest,390,1130522,0.0-113.0-1.0,,null,run_exp/static/images/task_images/gems/27.jpg,null,,,,,,13,,,24,,,,,27,0.499023961,0.481481481,,,,,,,
decision,391,1133529,0.0-113.0-2.0,,null,run_exp/static/images/task_images/land.jpg,null,,,,,,13,,,24,,,,,,,,69819,3,2,FALSE,,,
time_out,392,1135546,0.0-114.0-0.0,,null,run_exp/static/images/task_images/time_out.jpg,null,,,,,,13,,,,,,,,,,,,,,,,,
decision,393,1135671,0.0-114.0-1.0,,116.9,run_exp/static/images/task_images/land.jpg,65,,,,,,13,,,24,,,,,,,,71961,3,2,FALSE,,,
dig,394,1138574,0.0-115.0-0.0,,,,,,,,,,,"[{""stimulus"":""run_exp/static/images/task_images/dig.jpg"",""time"":0.8000000007450581},{""stimulus"":""run_exp/static/images/task_images/land.jpg"",""time"":965},{""stimulus"":""run_exp/static/images/task_images/dig.jpg"",""time"":1925.699999999255}]",[],24,,,,,,,,,,,,,,
harvest,395,1139580,0.0-115.0-1.0,,null,run_exp/static/images/task_images/gems/13.jpg,null,,,,,,6,,,24,,,,,13,0.49841396,0.461538462,,,,,,,
decision,396,1140245,0.0-115.0-2.0,,660.6,run_exp/static/images/task_images/land.jpg,76,,,,,,6,,,24,,,,,,,,76535,3,3,TRUE,,,
