trial_type,trial_index,time_elapsed,internal_node_id,interactions,blur_events,focus_events,fullscreenenter_events,fullscreenexit_events,success,rt,stimulus,key_press,prompt,subject_id,participant_id,age,gender,button_pressed,next_reward,animation_sequence,responses,planet,curr_prac_trial,n_prac_rounds,alien,aliens,reward_received,decay_rate_actual,decay_rate_exp,time_in_block,block_num,prt,last_trial_on_planet,button_html,bonus,num_failures
pavlovia,0,7,0.0-0.0,"""event"",""trial"",""time""
""fullscreenenter"",""1"",""1775""
","
","
","""event"",""trial"",""time""
""fullscreenenter"",""1"",""1775""
","
",,,,,,,,,,,,,,,,,,,,,,,,,,,,
fullscreen,1,2766,0.0-1.0,"""event"",""trial"",""time""
""fullscreenenter"",""1"",""1775""
","
","
","""event"",""trial"",""time""
""fullscreenenter"",""1"",""1775""
","
",TRUE,,,,,,,,,,,,,,,,,,,,,,,,,,,
instruc_welcome,2,12772,0.0-2.0,"""event"",""trial"",""time""
""fullscreenenter"",""1"",""1775""
","
","
","""event"",""trial"",""time""
""fullscreenenter"",""1"",""1775""
","
",,null,run_exp/static/audio/clip_1_welcome.m4a,null,"<p>Howdy! In this experiment, you’ll be an explorer traveling through space to collect space treasure.</p><p>Your mission is to collect as much treasure as possible.</p><br><br><p><img src='run_exp/static/images/task_images/opening_img-01.jpg' height='300' width='auto'></p>",8100,392,20.05,Female,,,,,,,,,,,,,,,,,,,
audio-keyboard-response,3,29561,0.0-3.0,"""event"",""trial"",""time""
""fullscreenenter"",""1"",""1775""
","
","
","""event"",""trial"",""time""
""fullscreenenter"",""1"",""1775""
","
",,null,run_exp/static/audio/clip_2_move.m4a,null,,,,,,,,,,,,,,,,,,,,,,,,
welcome_dec,4,30471,0.0-4.0,"""event"",""trial"",""time""
""fullscreenenter"",""1"",""1775""
","
","
","""event"",""trial"",""time""
""fullscreenenter"",""1"",""1775""
","
",,906.7,"<p>Howdy! In this experiment, you’ll be an explorer traveling through space to collect space treasure.</p><p>Your mission is to collect as much treasure as possible.</p><br><br><p><img src='run_exp/static/images/task_images/opening_img-01.jpg' height='300' width='auto'></p>",,,,,,,1,,,,,,,,,,,,,,,,,,
html-keyboard-response,5,33081,0.0-5.0,"""event"",""trial"",""time""
""fullscreenenter"",""1"",""1775""
","
","
","""event"",""trial"",""time""
""fullscreenenter"",""1"",""1775""
","
",,2608.3,"<p>Howdy! In this experiment, you’ll be an explorer traveling through space to collect space treasure.</p><p>Your mission is to collect as much treasure as possible.</p><br><br><p><img src='run_exp/static/images/task_images/opening_img-01.jpg' height='300' width='auto'></p><button class=""jspsych-html-btn-unchosen""><img src=""run_exp/static/images/task_images/planet-01.jpg"" height=""50""></button><button class=""jspsych-html-btn-chosen""><img src=""run_exp/static/images/task_images/planet-02.jpg"" height=""50""></button><p><b>[press the space bar to lock in your answer]<b><br></p>",32,,,,,,,,,,,,,,,,,,,,,,,,
instruc_goal,6,43321,0.0-6.0-0.0,"""event"",""trial"",""time""
""fullscreenenter"",""1"",""1775""
","
","
","""event"",""trial"",""time""
""fullscreenenter"",""1"",""1775""
","
",,null,run_exp/static/audio/clip_3_goal.m4a,null,"<p> As a space explorer, you’ll visit different planets to dig for space treasure, these pink gems.</p> <p> The more treasure you dig up, the more bonus money you’ll win! </p><br><br><p><img src='run_exp/static/images/task_images/pink_gem.jpg' height='300' width='auto'></p>",,,,,,,,,,,,,,,,,,,,,,,
instruc_goal,7,48496,0.0-6.0-1.0,"""event"",""trial"",""time""
""fullscreenenter"",""1"",""1775""
","
","
","""event"",""trial"",""time""
""fullscreenenter"",""1"",""1775""
","
",,5172.7,"<p> As a space explorer, you’ll visit different planets to dig for space treasure, these pink gems.</p> <p> The more treasure you dig up, the more bonus money you’ll win! </p><br><br><p><img src='run_exp/static/images/task_images/pink_gem.jpg' height='300' width='auto'></p>",,,,,,,1,,,,,,,,,,,,,,,,,,
html-keyboard-response,8,49051,0.0-6.0-2.0,"""event"",""trial"",""time""
""fullscreenenter"",""1"",""1775""
","
","
","""event"",""trial"",""time""
""fullscreenenter"",""1"",""1775""
","
",,552.5,"<p> As a space explorer, you’ll visit different planets to dig for space treasure, these pink gems.</p> <p> The more treasure you dig up, the more bonus money you’ll win! </p><br><br><p><img src='run_exp/static/images/task_images/pink_gem.jpg' height='300' width='auto'></p><button class=""jspsych-html-btn-unchosen""><img src=""run_exp/static/images/task_images/planet-01.jpg"" height=""50""></button><button class=""jspsych-html-btn-chosen""><img src=""run_exp/static/images/task_images/planet-02.jpg"" height=""50""></button><p><b>[press the space bar to lock in your answer]<b><br></p>",32,,,,,,,,,,,,,,,,,,,,,,,,
instruc_dig,9,65251,0.0-7.0-0.0,"""event"",""trial"",""time""
""fullscreenenter"",""1"",""1775""
","
","
","""event"",""trial"",""time""
""fullscreenenter"",""1"",""1775""
","
",,null,run_exp/static/audio/clip_4_dig.m4a,null,,,,,,,100,,,,,,,,,,,,,,,,,
instruc_dig_try,10,65704,0.0-7.0-1.0,"""event"",""trial"",""time""
""fullscreenenter"",""1"",""1775""
","
","
","""event"",""trial"",""time""
""fullscreenenter"",""1"",""1775""
","
",,451.3,"<p> When you’ve arrived at a new planet, you will dig once. </p> <p>Then, you get to decide if you want to stay on the planet and dig again or travel to a new planet and dig there.</p> <p> To stay and dig, press the letter <strong>‘A’</strong> on your keyboard. Try pressing it now! </p><p><img src='run_exp/static/images/task_images/land.jpg'  height='700' width='auto'></p>",65,"<p> When you’ve arrived at a new planet, you will dig once. </p> <p>Then, you get to decide if you want to stay on the planet and dig again or travel to a new planet and dig there.</p> <p> To stay and dig, press the letter <strong>‘A’</strong> on your keyboard. Try pressing it now! </p><p><img src='run_exp/static/images/task_images/land.jpg'  height='700' width='auto'></p>",,,,,,100,,,,,,,,,,,,,,,,,
dig_prac,11,67714,0.0-7.0-2.0,"""event"",""trial"",""time""
""fullscreenenter"",""1"",""1775""
","
","
","""event"",""trial"",""time""
""fullscreenenter"",""1"",""1775""
","
",,,,,,,,,,,,"[{""stimulus"":""run_exp/static/images/task_images/dig.jpg"",""time"":0.09999999403953552},{""stimulus"":""run_exp/static/images/task_images/land.jpg"",""time"":668.7999999970198},{""stimulus"":""run_exp/static/images/task_images/dig.jpg"",""time"":1341.7999999970198}]",[],,,,,,,,,,,,,,,
instruc_travel,12,104141,0.0-7.0-3.0,"""event"",""trial"",""time""
""fullscreenenter"",""1"",""1775""
","
","
","""event"",""trial"",""time""
""fullscreenenter"",""1"",""1775""
","
",,null,run_exp/static/audio/clip_5_travel.m4a,null,"<p>Every time you dig up gems, there are less gems on the planet, so the more you dig on a planet the fewer gems you’ll get with each dig.</p><p>When gems are running low, you may want to travel to a new planet. </p> <p>  Planets are very far apart in this galaxy, so it will take some time to travel between them. </p> <br><p>There are lots and lots of planets for you to visit, so you won’t be able to return to any planets you’ve seen before. </p><br><p>To leave this planet and travel to a new one, press the letter <strong>‘L’</strong> on your keyboard. Try pressing it now! </p><p><img src='run_exp/static/images/task_images/rocket-01.jpg'  height='600' width='auto'></p>",,,,,,,,,,,,,,,,,,,,,,,
instruc_travel_try,13,105767,0.0-7.0-4.0,"""event"",""trial"",""time""
""fullscreenenter"",""1"",""1775""
","
","
","""event"",""trial"",""time""
""fullscreenenter"",""1"",""1775""
","
",,1624.9,"<p>Every time you dig up gems, there are less gems on the planet, so the more you dig on a planet the fewer gems you’ll get with each dig.</p><p>When gems are running low, you may want to travel to a new planet. </p> <p>  Planets are very far apart in this galaxy, so it will take some time to travel between them. </p> <br><p>There are lots and lots of planets for you to visit, so you won’t be able to return to any planets you’ve seen before. </p><br><p>To leave this planet and travel to a new one, press the letter <strong>‘L’</strong> on your keyboard. Try pressing it now! </p><p><img src='run_exp/static/images/task_images/rocket-01.jpg'  height='600' width='auto'></p>",76,"<p>Every time you dig up gems, there are less gems on the planet, so the more you dig on a planet the fewer gems you’ll get with each dig.</p><p>When gems are running low, you may want to travel to a new planet. </p> <p>  Planets are very far apart in this galaxy, so it will take some time to travel between them. </p> <br><p>There are lots and lots of planets for you to visit, so you won’t be able to return to any planets you’ve seen before. </p><br><p>To leave this planet and travel to a new one, press the letter <strong>‘L’</strong> on your keyboard. Try pressing it now! </p><p><img src='run_exp/static/images/task_images/rocket-01.jpg'  height='600' width='auto'></p>",,,,,,,,,,,,,,,,,,,,,,,
travel_prac,14,115770,0.0-7.0-5.0,"""event"",""trial"",""time""
""fullscreenenter"",""1"",""1775""
","
","
","""event"",""trial"",""time""
""fullscreenenter"",""1"",""1775""
","
",,,,,,,,,,,,"[{""stimulus"":""run_exp/static/images/task_images/rocket-01.jpg"",""time"":0.29999999701976776},{""stimulus"":""run_exp/static/images/task_images/rocket-02.jpg"",""time"":1114.6000000089407},{""stimulus"":""run_exp/static/images/task_images/rocket-03.jpg"",""time"":2227.4000000059605},{""stimulus"":""run_exp/static/images/task_images/rocket-04.jpg"",""time"":3338.2999999970198},{""stimulus"":""run_exp/static/images/task_images/rocket-05.jpg"",""time"":4450.9000000059605},{""stimulus"":""run_exp/static/images/task_images/rocket-06.jpg"",""time"":5562.5},{""stimulus"":""run_exp/static/images/task_images/rocket-07.jpg"",""time"":6674.9000000059605},{""stimulus"":""run_exp/static/images/task_images/rocket-08.jpg"",""time"":7786.5},{""stimulus"":""run_exp/static/images/task_images/rocket-09.jpg"",""time"":8890.90000000596}]",[],0,,,,,,,,,,,,,,
instruc_alien_greet,15,143131,0.0-7.0-6.0,"""event"",""trial"",""time""
""fullscreenenter"",""1"",""1775""
","
","
","""event"",""trial"",""time""
""fullscreenenter"",""1"",""1775""
","
",,null,run_exp/static/audio/clip_6_alien.m4a,null,"<p>When you arrive at a new planet, the alien who owns the treasure mine on that planet will greet you!</p><p>The better an alien takes care of their mine the easier it is to dig for gems. Some aliens take better care of their mine than others. So, you won’t get exactly the same amount of gems on each planet.</p><p>What the alien looks like does not tell you anything about how many gems there are on the planet.</p><br><p><img src=""run_exp/static/images/task_images/aliens/instructions_aliens/planet/alien_planet-1.jpg""  height=""600"" width=""auto""></p>",,,,,,,,,,,,,,,,,,,,,,,
instruc_alien_greet,16,151008,0.0-7.0-7.0,"""event"",""trial"",""time""
""fullscreenenter"",""1"",""1775""
","
","
","""event"",""trial"",""time""
""fullscreenenter"",""1"",""1775""
","
",,7875.1,"<p>When you arrive at a new planet, the alien who owns the treasure mine on that planet will greet you!</p><p>The better an alien takes care of their mine the easier it is to dig for gems. Some aliens take better care of their mine than others. So, you won’t get exactly the same amount of gems on each planet.</p><p>What the alien looks like does not tell you anything about how many gems there are on the planet.</p><br><p><img src=""run_exp/static/images/task_images/aliens/instructions_aliens/planet/alien_planet-1.jpg""  height=""600"" width=""auto""></p>",,,,,,,1,,,,,,,,,,,,,,,,,,
html-keyboard-response,17,152192,0.0-7.0-8.0,"""event"",""trial"",""time""
""fullscreenenter"",""1"",""1775""
","
","
","""event"",""trial"",""time""
""fullscreenenter"",""1"",""1775""
","
",,1181.8,"<p>When you arrive at a new planet, the alien who owns the treasure mine on that planet will greet you!</p><p>The better an alien takes care of their mine the easier it is to dig for gems. Some aliens take better care of their mine than others. So, you won’t get exactly the same amount of gems on each planet.</p><p>What the alien looks like does not tell you anything about how many gems there are on the planet.</p><br><p><img src=""run_exp/static/images/task_images/aliens/instructions_aliens/planet/alien_planet-1.jpg""  height=""600"" width=""auto""></p><button class=""jspsych-html-btn-unchosen""><img src=""run_exp/static/images/task_images/planet-01.jpg"" height=""50""></button><button class=""jspsych-html-btn-chosen""><img src=""run_exp/static/images/task_images/planet-02.jpg"" height=""50""></button><p><b>[press the space bar to lock in your answer]<b><br></p>",32,,,,,,,,,,,,,,,,,,,,,,,,
time_out,18,163471,0.0-8.0-0.0,"""event"",""trial"",""time""
""fullscreenenter"",""1"",""1775""
","
","
","""event"",""trial"",""time""
""fullscreenenter"",""1"",""1775""
","
",,null,run_exp/static/audio/clip_7_timeout.m4a,null,"<p>If you don't make your choice fast enough, you’ll have to wait a few seconds before you can make another one.</p><p>You can’t dig for more gems or travel to new planets. You just have to sit and wait.</p><br><p><img src='run_exp/static/images/task_images/time_out.jpg'  height='600' width='auto'></p>",,,,,,,,,,,,,,,,,,,,,,,
time_out,19,171724,0.0-8.0-1.0,"""event"",""trial"",""time""
""fullscreenenter"",""1"",""1775""
","
","
","""event"",""trial"",""time""
""fullscreenenter"",""1"",""1775""
","
",,8250.9,"<p>If you don't make your choice fast enough, you’ll have to wait a few seconds before you can make another one.</p><p>You can’t dig for more gems or travel to new planets. You just have to sit and wait.</p><br><p><img src='run_exp/static/images/task_images/time_out.jpg'  height='600' width='auto'></p>",,,,,,,1,,,,,,,,,,,,,,,,,,
html-keyboard-response,20,171882,0.0-8.0-2.0,"""event"",""trial"",""time""
""fullscreenenter"",""1"",""1775""
","
","
","""event"",""trial"",""time""
""fullscreenenter"",""1"",""1775""
","
",,156.1,"<p>If you don't make your choice fast enough, you’ll have to wait a few seconds before you can make another one.</p><p>You can’t dig for more gems or travel to new planets. You just have to sit and wait.</p><br><p><img src='run_exp/static/images/task_images/time_out.jpg'  height='600' width='auto'></p><button class=""jspsych-html-btn-unchosen""><img src=""run_exp/static/images/task_images/planet-01.jpg"" height=""50""></button><button class=""jspsych-html-btn-chosen""><img src=""run_exp/static/images/task_images/planet-02.jpg"" height=""50""></button><p><b>[press the space bar to lock in your answer]<b><br></p>",32,,,,,,,,,,,,,,,,,,,,,,,,
instruc_break,21,187741,0.0-9.0-0.0,"""event"",""trial"",""time""
""fullscreenenter"",""1"",""1775""
","
","
","""event"",""trial"",""time""
""fullscreenenter"",""1"",""1775""
","
",,null,run_exp/static/audio/clip_8_break.m4a,null,"<p> After digging and traveling for a while, you’ll be able to take a break at home base. </p><p>The game will last 20 minutes no matter what.</p><p>You will visit home base every 5 minutes, so, you will visit home base three times during the game.</p><br><p><img src='run_exp/static/images/task_images/home_base.jpg' height='600' width='auto'></p>",,,,,,,,,,,,,,,,,,,,,,,
instruc_break,22,188024,0.0-9.0-1.0,"""event"",""trial"",""time""
""fullscreenenter"",""1"",""1775""
","
","
","""event"",""trial"",""time""
""fullscreenenter"",""1"",""1775""
","
",,281.2,"<p> After digging and traveling for a while, you’ll be able to take a break at home base. </p><p>The game will last 20 minutes no matter what.</p><p>You will visit home base every 5 minutes, so, you will visit home base three times during the game.</p><br><p><img src='run_exp/static/images/task_images/home_base.jpg' height='600' width='auto'></p>",,,,,,,1,,,,,,,,,,,,,,,,,,
html-keyboard-response,23,188364,0.0-9.0-2.0,"""event"",""trial"",""time""
""fullscreenenter"",""1"",""1775""
","
","
","""event"",""trial"",""time""
""fullscreenenter"",""1"",""1775""
","
",,338.6,"<p> After digging and traveling for a while, you’ll be able to take a break at home base. </p><p>The game will last 20 minutes no matter what.</p><p>You will visit home base every 5 minutes, so, you will visit home base three times during the game.</p><br><p><img src='run_exp/static/images/task_images/home_base.jpg' height='600' width='auto'></p><button class=""jspsych-html-btn-unchosen""><img src=""run_exp/static/images/task_images/planet-01.jpg"" height=""50""></button><button class=""jspsych-html-btn-chosen""><img src=""run_exp/static/images/task_images/planet-02.jpg"" height=""50""></button><p><b>[press the space bar to lock in your answer]<b><br></p>",32,,,,,,,,,,,,,,,,,,,,,,,,
instruc_prac_game,24,198671,0.0-10.0-0.0,"""event"",""trial"",""time""
""fullscreenenter"",""1"",""1775""
","
","
","""event"",""trial"",""time""
""fullscreenenter"",""1"",""1775""
","
",,null,run_exp/static/audio/clip_9_practice.m4a,null,"<p> Are you ready to play a practice game? </p> <p>In this practice game, you'll be digging up barrels of gems. But, in the real game, you'll be digging up the gems themselves. </p>",,,,,,,,,,,,,,,,,,,,,,,
html-button-response,25,200246,0.0-10.0-1.0,"""event"",""trial"",""time""
""fullscreenenter"",""1"",""1775""
","
","
","""event"",""trial"",""time""
""fullscreenenter"",""1"",""1775""
","
",,1573.8,"<p> Are you ready to play a practice game? </p> <p>In this practice game, you'll be digging up barrels of gems. But, in the real game, you'll be digging up the gems themselves. </p>",,,,,,,0,,,,,,,,,,,,,,,,,,
alien_welcome_prac,26,205250,0.0-11.0-0.0,"""event"",""trial"",""time""
""fullscreenenter"",""1"",""1775""
","
","
","""event"",""trial"",""time""
""fullscreenenter"",""1"",""1775""
","
",,null,run_exp/static/images/task_images/aliens/practice_aliens/planet/alien_planet-5.jpg,null,,,,,,,,,,,,,,,,,,,,,,,,
land_prac,27,205755,0.0-11.0-1.0,"""event"",""trial"",""time""
""fullscreenenter"",""1"",""1775""
","
","
","""event"",""trial"",""time""
""fullscreenenter"",""1"",""1775""
","
",,null,run_exp/static/images/task_images/land.jpg,null,,,,,,,105,,,0,,,,,,,,,,,,,,
dig_prac,28,207763,0.0-11.0-2.0,"""event"",""trial"",""time""
""fullscreenenter"",""1"",""1775""
","
","
","""event"",""trial"",""time""
""fullscreenenter"",""1"",""1775""
","
",,,,,,,,,,,,"[{""stimulus"":""run_exp/static/images/task_images/dig.jpg"",""time"":0.4000000059604645},{""stimulus"":""run_exp/static/images/task_images/land.jpg"",""time"":671},{""stimulus"":""run_exp/static/images/task_images/dig.jpg"",""time"":1335.6000000089407}]",[],,,,,,,,,,,,,,,
harvest_prac,29,208771,0.0-11.0-3.0,"""event"",""trial"",""time""
""fullscreenenter"",""1"",""1775""
","
","
","""event"",""trial"",""time""
""fullscreenenter"",""1"",""1775""
","
",,null,run_exp/static/images/task_images/barrel_text.jpg,null,,,,,,,,,,,,,,,,,,,,,,,,
decision_prac,30,210963,0.0-11.0-4.0,"""event"",""trial"",""time""
""fullscreenenter"",""1"",""1775""
","
","
","""event"",""trial"",""time""
""fullscreenenter"",""1"",""1775""
","
",,2190.8,run_exp/static/images/task_images/land.jpg,65,,,,,,,,,,,1,,,,,,,,,,,,,
dig_prac,31,212970,0.0-12.0-0.0,"""event"",""trial"",""time""
""fullscreenenter"",""1"",""1775""
","
","
","""event"",""trial"",""time""
""fullscreenenter"",""1"",""1775""
","
",,,,,,,,,,,,"[{""stimulus"":""run_exp/static/images/task_images/dig.jpg"",""time"":0.09999999403953552},{""stimulus"":""run_exp/static/images/task_images/land.jpg"",""time"":679.2000000029802},{""stimulus"":""run_exp/static/images/task_images/dig.jpg"",""time"":1339.5}]",[],,,,,,,,,,,,,,,
harvest_prac,32,213979,0.0-12.0-1.0,"""event"",""trial"",""time""
""fullscreenenter"",""1"",""1775""
","
","
","""event"",""trial"",""time""
""fullscreenenter"",""1"",""1775""
","
",,null,run_exp/static/images/task_images/barrel_text.jpg,null,,,,,,,,,,,,,,,,,,,,,,,,
decision_prac,33,214456,0.0-12.0-2.0,"""event"",""trial"",""time""
""fullscreenenter"",""1"",""1775""
","
","
","""event"",""trial"",""time""
""fullscreenenter"",""1"",""1775""
","
",,476.2,run_exp/static/images/task_images/land.jpg,76,,,,,,,,,,,2,,,,,,,,,,,,,
travel,34,223986,0.0-13.0-0.0,"""event"",""trial"",""time""
""fullscreenenter"",""1"",""1775""
","
","
","""event"",""trial"",""time""
""fullscreenenter"",""1"",""1775""
","
",,,,,,,,,,,,"[{""stimulus"":""run_exp/static/images/task_images/rocket-01.jpg"",""time"":0.09999999403953552},{""stimulus"":""run_exp/static/images/task_images/rocket-02.jpg"",""time"":1063.4000000059605},{""stimulus"":""run_exp/static/images/task_images/rocket-03.jpg"",""time"":2119.7999999970198},{""stimulus"":""run_exp/static/images/task_images/rocket-04.jpg"",""time"":3187.5},{""stimulus"":""run_exp/static/images/task_images/rocket-05.jpg"",""time"":4240.5},{""stimulus"":""run_exp/static/images/task_images/rocket-06.jpg"",""time"":5295.29999999702},{""stimulus"":""run_exp/static/images/task_images/rocket-07.jpg"",""time"":6351.79999999702},{""stimulus"":""run_exp/static/images/task_images/rocket-08.jpg"",""time"":7418},{""stimulus"":""run_exp/static/images/task_images/rocket-09.jpg"",""time"":8472}]",[],0,,,,,,,,,,,,,,
alien_welcome_prac,35,228994,0.0-13.0-1.0,"""event"",""trial"",""time""
""fullscreenenter"",""1"",""1775""
","
","
","""event"",""trial"",""time""
""fullscreenenter"",""1"",""1775""
","
",,null,run_exp/static/images/task_images/aliens/practice_aliens/planet/alien_planet-4.jpg,null,,,,,,,,,,,,,,,,,,,,,,,,
land_prac,36,229499,0.0-13.0-2.0,"""event"",""trial"",""time""
""fullscreenenter"",""1"",""1775""
","
","
","""event"",""trial"",""time""
""fullscreenenter"",""1"",""1775""
","
",,null,run_exp/static/images/task_images/land.jpg,null,,,,,,,99,,,0,,,,,,,,,,,,,,
dig_prac,37,231505,0.0-13.0-3.0,"""event"",""trial"",""time""
""fullscreenenter"",""1"",""1775""
","
","
","""event"",""trial"",""time""
""fullscreenenter"",""1"",""1775""
","
",,,,,,,,,,,,"[{""stimulus"":""run_exp/static/images/task_images/dig.jpg"",""time"":0.29999999701976776},{""stimulus"":""run_exp/static/images/task_images/land.jpg"",""time"":672.2000000029802},{""stimulus"":""run_exp/static/images/task_images/dig.jpg"",""time"":1341.2999999970198}]",[],,,,,,,,,,,,,,,
harvest_prac,38,232515,0.0-13.0-4.0,"""event"",""trial"",""time""
""fullscreenenter"",""1"",""1775""
","
","
","""event"",""trial"",""time""
""fullscreenenter"",""1"",""1775""
","
",,null,run_exp/static/images/task_images/barrel_text.jpg,null,,,,,,,,,,,,,,,,,,,,,,,,
decision_prac,39,233003,0.0-13.0-5.0,"""event"",""trial"",""time""
""fullscreenenter"",""1"",""1775""
","
","
","""event"",""trial"",""time""
""fullscreenenter"",""1"",""1775""
","
",,487.7,run_exp/static/images/task_images/land.jpg,65,,,,,,,,,,,3,,,,,,,,,,,,,
dig_prac,40,235010,0.0-14.0-0.0,"""event"",""trial"",""time""
""fullscreenenter"",""1"",""1775""
","
","
","""event"",""trial"",""time""
""fullscreenenter"",""1"",""1775""
","
",,,,,,,,,,,,"[{""stimulus"":""run_exp/static/images/task_images/dig.jpg"",""time"":0.09999999403953552},{""stimulus"":""run_exp/static/images/task_images/land.jpg"",""time"":668.9000000059605},{""stimulus"":""run_exp/static/images/task_images/dig.jpg"",""time"":1343.9000000059605}]",[],,,,,,,,,,,,,,,
harvest_prac,41,236019,0.0-14.0-1.0,"""event"",""trial"",""time""
""fullscreenenter"",""1"",""1775""
","
","
","""event"",""trial"",""time""
""fullscreenenter"",""1"",""1775""
","
",,null,run_exp/static/images/task_images/barrel_text.jpg,null,,,,,,,,,,,,,,,,,,,,,,,,
decision_prac,42,236355,0.0-14.0-2.0,"""event"",""trial"",""time""
""fullscreenenter"",""1"",""1775""
","
","
","""event"",""trial"",""time""
""fullscreenenter"",""1"",""1775""
","
",,335.4,run_exp/static/images/task_images/land.jpg,65,,,,,,,,,,,4,,,,,,,,,,,,,
dig_prac,43,238363,0.0-15.0-0.0,"""event"",""trial"",""time""
""fullscreenenter"",""1"",""1775""
","
","
","""event"",""trial"",""time""
""fullscreenenter"",""1"",""1775""
","
",,,,,,,,,,,,"[{""stimulus"":""run_exp/static/images/task_images/dig.jpg"",""time"":0.20000000298023224},{""stimulus"":""run_exp/static/images/task_images/land.jpg"",""time"":677.1000000089407},{""stimulus"":""run_exp/static/images/task_images/dig.jpg"",""time"":1339.2000000029802}]",[],,,,,,,,,,,,,,,
harvest_prac,44,239370,0.0-15.0-1.0,"""event"",""trial"",""time""
""fullscreenenter"",""1"",""1775""
","
","
","""event"",""trial"",""time""
""fullscreenenter"",""1"",""1775""
","
",,null,run_exp/static/images/task_images/barrel_text.jpg,null,,,,,,,,,,,,,,,,,,,,,,,,
decision_prac,45,239753,0.0-15.0-2.0,"""event"",""trial"",""time""
""fullscreenenter"",""1"",""1775""
","
","
","""event"",""trial"",""time""
""fullscreenenter"",""1"",""1775""
","
",,381.2,run_exp/static/images/task_images/land.jpg,65,,,,,,,,,,,,1,,,,,,,,,,,,
quiz_instruc,46,242514,0.0-16.0-0.0,"""event"",""trial"",""time""
""fullscreenenter"",""1"",""1775""
","
","
","""event"",""trial"",""time""
""fullscreenenter"",""1"",""1775""
","
",,2758.7,run_exp/static/audio/clip_10_quiz.m4a,,,,,,,0,,,,,,,,,,,,,,,,,,
instruc_repeat,47,285450,0.0-16.0-1.0,"""event"",""trial"",""time""
""fullscreenenter"",""1"",""1775""
","
","
","""event"",""trial"",""time""
""fullscreenenter"",""1"",""1775""
","
",,null,"<p> Are you ready to play a practice game? </p> <p>In this practice game, you'll be digging up barrels of gems. But, in the real game, you'll be digging up the gems themselves. </p>",null,"<p>In this game, your goal is to collect as many gems as you can. That’s how you will win bonus money. </p> <p>The entire game will last 20 minutes no matter how many gems you collect or how many planets you visit. </p><p>To stay on a planet and dig again, press the letter A on your keyboard. To leave for a new planet, press the letter L.</p><p>The more you dig on a planet, the fewer gems you’ll get with each dig which is why you might consider leaving for a new planet. </p><p>When you arrive at a new planet, you’ll be greeted by an alien. What the alien looks like does not tell you anything about how much treasure is on the planet. </p>",,,,,,,,,,,,,,,,,,,,,,,
instruc_repeat_continue,48,342524,0.0-16.0-2.0,"""event"",""trial"",""time""
""fullscreenenter"",""1"",""1775""
","
","
","""event"",""trial"",""time""
""fullscreenenter"",""1"",""1775""
","
",,57072.1,"<p> Are you ready to play a practice game? </p> <p>In this practice game, you'll be digging up barrels of gems. But, in the real game, you'll be digging up the gems themselves. </p>",,,,,,,0,,,,,,,,,,,,,,,,,,
quiz_q_1_ask,49,346012,0.0-16.0-3.0,"""event"",""trial"",""time""
""fullscreenenter"",""1"",""1775""
","
","
","""event"",""trial"",""time""
""fullscreenenter"",""1"",""1775""
","
",,3485.9,run_exp/static/audio/clip_11_q1_ask.m4a,,,,,,,2,,,,,,,,,,,,,,,,,,
quiz_q_1_fb_correct,50,350038,0.0-17.0-0.0,"""event"",""trial"",""time""
""fullscreenenter"",""1"",""1775""
","
","
","""event"",""trial"",""time""
""fullscreenenter"",""1"",""1775""
","
",,null,run_exp/static/audio/clip_12_q1_correct.m4a,null,<p>That’s correct. You win extra money by collecting more gems.</p>,,,,,,,,,,,,,,,,,,,,,,,
quiz_q_2_ask,51,353896,0.0-17.0-1.0,"""event"",""trial"",""time""
""fullscreenenter"",""1"",""1775""
","
","
","""event"",""trial"",""time""
""fullscreenenter"",""1"",""1775""
","
",,3855.4,run_exp/static/audio/clip_14_q2_ask.m4a,,,,,,,1,,,,,,,,,,,,,,,,,,
quiz_q_2_fb_correct,52,358058,0.0-18.0-0.0,"""event"",""trial"",""time""
""fullscreenenter"",""1"",""1775""
","
","
","""event"",""trial"",""time""
""fullscreenenter"",""1"",""1775""
","
",,null,run_exp/static/audio/clip_15_q2_correct.m4a,null,<p>That’s correct. The experiment is 20 minutes no matter what.</p>,,,,,,,,,,,,,,,,,,,,,,,
quiz_q_3_ask,53,366253,0.0-18.0-1.0,"""event"",""trial"",""time""
""fullscreenenter"",""1"",""1775""
","
","
","""event"",""trial"",""time""
""fullscreenenter"",""1"",""1775""
","
",,8193.1,run_exp/static/audio/clip_17_q3_ask.m4a,,,,,,,1,,,,,,,,,,,,,,,,,,
quiz_q_3_fb_correct,54,370408,0.0-19.0-0.0,"""event"",""trial"",""time""
""fullscreenenter"",""1"",""1775""
","
","
","""event"",""trial"",""time""
""fullscreenenter"",""1"",""1775""
","
",,null,run_exp/static/audio/clip_18_q3_correct.m4a,null,<p> That’s correct. You press the letter L to travel to a new planet.</p>,,,,,,,,,,,,,,,,,,,,,,,
quiz_q_4_ask,55,374300,0.0-19.0-1.0,"""event"",""trial"",""time""
""fullscreenenter"",""1"",""1775""
","
","
","""event"",""trial"",""time""
""fullscreenenter"",""1"",""1775""
","
",,3890.7,run_exp/static/audio/clip_20_q4_ask.m4a,,,,,,,0,,,,,,,,,,,,,,,,,,
quiz_q_4_fb_correct,56,379798,0.0-20.0-0.0,"""event"",""trial"",""time""
""fullscreenenter"",""1"",""1775""
","
","
","""event"",""trial"",""time""
""fullscreenenter"",""1"",""1775""
","
",,null,run_exp/static/audio/clip_21_q4_correct.m4a,null,<p> That’s correct. The more you dig on a planet the fewer gems you’ll get with each dig. </p>,,,,,,,,,,,,,,,,,,,,,,,
quiz_q_5_ask,57,386629,0.0-20.0-1.0,"""event"",""trial"",""time""
""fullscreenenter"",""1"",""1775""
","
","
","""event"",""trial"",""time""
""fullscreenenter"",""1"",""1775""
","
",,6828.9,run_exp/static/audio/clip_23_q5_ask.m4a,,,,,,,0,,,,,,,,,,,,,,,,,,
quiz_q_5_fb_incorrect,58,392448,0.0-21.0-0.0,"""event"",""trial"",""time""
""fullscreenenter"",""1"",""1775""
","
","
","""event"",""trial"",""time""
""fullscreenenter"",""1"",""1775""
","
",,null,run_exp/static/audio/clip_25_q5_incorrect.m4a,null,<p>That’s incorrect. The alien tells you nothing about how much treasure is on the planet.</p>,,,,,,,,,,,,,,,,,,,,,,,
quiz_incorrect,59,398168,0.0-22.0-0.0,"""event"",""trial"",""time""
""fullscreenenter"",""1"",""1775""
","
","
","""event"",""trial"",""time""
""fullscreenenter"",""1"",""1775""
","
",,null,run_exp/static/audio/clip_27_incorrect_quiz.m4a,null,,,,,,,,,,,,,,,,,,,,,,,,
quiz_incorrect_continue,60,400932,0.0-22.0-1.0,"""event"",""trial"",""time""
""fullscreenenter"",""1"",""1775""
","
","
","""event"",""trial"",""time""
""fullscreenenter"",""1"",""1775""
","
",,2762.1,"<p>Oops, you missed some questions.</p><p>Now that you’ve heard the correct answers. Try the quiz again!</p>",,,,,,,0,,,,,,,,,,,,,,,,,,
quiz_q_1_ask,61,407039,0.0-22.0-2.0,"""event"",""trial"",""time""
""fullscreenenter"",""1"",""1775""
","
","
","""event"",""trial"",""time""
""fullscreenenter"",""1"",""1775""
","
",,6105.7,run_exp/static/audio/clip_11_q1_ask.m4a,,,,,,,2,,,,,,,,,,,,,,,,,,
quiz_q_1_fb_correct,62,411068,0.0-23.0-0.0,"""event"",""trial"",""time""
""fullscreenenter"",""1"",""1775""
","
","
","""event"",""trial"",""time""
""fullscreenenter"",""1"",""1775""
","
",,null,run_exp/static/audio/clip_12_q1_correct.m4a,null,<p>That’s correct. You win extra money by collecting more gems.</p>,,,,,,,,,,,,,,,,,,,,,,,
quiz_q_2_ask,63,415605,0.0-23.0-1.0,"""event"",""trial"",""time""
""fullscreenenter"",""1"",""1775""
","
","
","""event"",""trial"",""time""
""fullscreenenter"",""1"",""1775""
","
",,4534.9,run_exp/static/audio/clip_14_q2_ask.m4a,,,,,,,1,,,,,,,,,,,,,,,,,,
quiz_q_2_fb_correct,64,419778,0.0-24.0-0.0,"""event"",""trial"",""time""
""fullscreenenter"",""1"",""1775""
","
","
","""event"",""trial"",""time""
""fullscreenenter"",""1"",""1775""
","
",,null,run_exp/static/audio/clip_15_q2_correct.m4a,null,<p>That’s correct. The experiment is 20 minutes no matter what.</p>,,,,,,,,,,,,,,,,,,,,,,,
quiz_q_3_ask,65,424289,0.0-24.0-1.0,"""event"",""trial"",""time""
""fullscreenenter"",""1"",""1775""
","
","
","""event"",""trial"",""time""
""fullscreenenter"",""1"",""1775""
","
",,4509.2,run_exp/static/audio/clip_17_q3_ask.m4a,,,,,,,1,,,,,,,,,,,,,,,,,,
quiz_q_3_fb_correct,66,428438,0.0-25.0-0.0,"""event"",""trial"",""time""
""fullscreenenter"",""1"",""1775""
","
","
","""event"",""trial"",""time""
""fullscreenenter"",""1"",""1775""
","
",,null,run_exp/static/audio/clip_18_q3_correct.m4a,null,<p> That’s correct. You press the letter L to travel to a new planet.</p>,,,,,,,,,,,,,,,,,,,,,,,
quiz_q_4_ask,67,433103,0.0-25.0-1.0,"""event"",""trial"",""time""
""fullscreenenter"",""1"",""1775""
","
","
","""event"",""trial"",""time""
""fullscreenenter"",""1"",""1775""
","
",,4662.9,run_exp/static/audio/clip_20_q4_ask.m4a,,,,,,,0,,,,,,,,,,,,,,,,,,
quiz_q_4_fb_correct,68,438588,0.0-26.0-0.0,"""event"",""trial"",""time""
""fullscreenenter"",""1"",""1775""
","
","
","""event"",""trial"",""time""
""fullscreenenter"",""1"",""1775""
","
",,null,run_exp/static/audio/clip_21_q4_correct.m4a,null,<p> That’s correct. The more you dig on a planet the fewer gems you’ll get with each dig. </p>,,,,,,,,,,,,,,,,,,,,,,,
quiz_q_5_ask,69,441016,0.0-26.0-1.0,"""event"",""trial"",""time""
""fullscreenenter"",""1"",""1775""
","
","
","""event"",""trial"",""time""
""fullscreenenter"",""1"",""1775""
","
",,2426.7,run_exp/static/audio/clip_23_q5_ask.m4a,,,,,,,1,,,,,,,,,,,,,,,,,,
quiz_q_5_fb_correct,70,446188,0.0-27.0-0.0,"""event"",""trial"",""time""
""fullscreenenter"",""1"",""1775""
","
","
","""event"",""trial"",""time""
""fullscreenenter"",""1"",""1775""
","
",,null,run_exp/static/audio/clip_24_q5_correct.m4a,null,<p> That’s correct. The alien tells you nothing about how much treasure is on the planet.</p>,,,,,,,,,,,,,,,,,,,,,,,
quiz_correct,71,449808,0.0-28.0-0.0,"""event"",""trial"",""time""
""fullscreenenter"",""1"",""1775""
","
","
","""event"",""trial"",""time""
""fullscreenenter"",""1"",""1775""
","
",,null,run_exp/static/audio/clip_26_correct_quiz.m4a,null,,,,,,,,,,,,,,,,,,,,,,,,
quiz_correct_continue,72,467301,0.0-28.0-1.0,"""event"",""trial"",""time""
""fullscreenenter"",""1"",""1775""
","
","
","""event"",""trial"",""time""
""fullscreenenter"",""1"",""1775""
","
",,17491.6,<p>Good job! You're now ready to move on to the real game!</p>,,,,,,,0,,,,,,,,,,,,,,,,,,
audio-keyboard-response,73,477688,0.0-28.0-2.0,"""event"",""trial"",""time""
""fullscreenenter"",""1"",""1775""
","
","
","""event"",""trial"",""time""
""fullscreenenter"",""1"",""1775""
","
",,null,run_exp/static/audio/clip_28_real_game.m4a,null,,,,,,,,,,,,,,,,,,,,,,,,
instruc_begin_exp_contine,74,479480,0.0-28.0-3.0,"""event"",""trial"",""time""
""fullscreenenter"",""1"",""1775""
","
","
","""event"",""trial"",""time""
""fullscreenenter"",""1"",""1775""
","
",,1790.1,"<p>Now that you know how  to dig for space treasure and travel to new planets,you can start exploring! </p><p>Do you want to go over the instructions again or get started with the real game?</p>",,,,,,,1,,,,,,1,,,,,,,,,,,,
alien_welcome,75,484490,0.0-29.0-0.0,"""event"",""trial"",""time""
""fullscreenenter"",""1"",""1775""
","
","
","""event"",""trial"",""time""
""fullscreenenter"",""1"",""1775""
","
",,null,run_exp/static/images/task_images/aliens/old_aliens/planet/alien_planet-34.jpg,null,,,,,,,,,,,,,34,"34,2,36,70,3,41,73,37,44,8,71,21,25,46,60,55,22,15,7,35,62,72,52,30,39,14,23,57,31,51,17,42,67,29,20,26,11,54,48,56,19,68,47,80,4",,,,,,,,,,
land,76,484993,0.0-29.0-1.0,"""event"",""trial"",""time""
""fullscreenenter"",""1"",""1775""
","
","
","""event"",""trial"",""time""
""fullscreenenter"",""1"",""1775""
","
",,null,run_exp/static/images/task_images/land.jpg,null,,,,,,,92,,,1,,,,,,,,,,,,,,
dig,77,487002,0.0-29.0-2.0,"""event"",""trial"",""time""
""fullscreenenter"",""1"",""1775""
","
","
","""event"",""trial"",""time""
""fullscreenenter"",""1"",""1775""
","
",,,,,,,,,,,,"[{""stimulus"":""run_exp/static/images/task_images/dig.jpg"",""time"":0.5},{""stimulus"":""run_exp/static/images/task_images/land.jpg"",""time"":670.8999999910593},{""stimulus"":""run_exp/static/images/task_images/dig.jpg"",""time"":1343.0999999940395}]",[],1,,,,,,,,,,,,,,
harvest,78,488013,0.0-29.0-3.0,"""event"",""trial"",""time""
""fullscreenenter"",""1"",""1775""
","
","
","""event"",""trial"",""time""
""fullscreenenter"",""1"",""1775""
","
",,null,run_exp/static/images/task_images/gems/92.jpg,null,,,,,,,22,,,1,,,,,92,0.243198388,0.239130435,,,,,,,
decision,79,488619,0.0-29.0-4.0,"""event"",""trial"",""time""
""fullscreenenter"",""1"",""1775""
","
","
","""event"",""trial"",""time""
""fullscreenenter"",""1"",""1775""
","
",,603.4,run_exp/static/images/task_images/land.jpg,65,,,,,,,22,,,1,,,,,,,,9138,1,0,FALSE,,,
dig,80,491024,0.0-30.0-0.0,"""event"",""trial"",""time""
""fullscreenenter"",""1"",""1775""
","
","
","""event"",""trial"",""time""
""fullscreenenter"",""1"",""1775""
","
",,,,,,,,,,,,"[{""stimulus"":""run_exp/static/images/task_images/dig.jpg"",""time"":0.10000000894069672},{""stimulus"":""run_exp/static/images/task_images/land.jpg"",""time"":804.5},{""stimulus"":""run_exp/static/images/task_images/dig.jpg"",""time"":1602.4000000059605}]",[],1,,,,,,,,,,,,,,
harvest,81,492036,0.0-30.0-1.0,"""event"",""trial"",""time""
""fullscreenenter"",""1"",""1775""
","
","
","""event"",""trial"",""time""
""fullscreenenter"",""1"",""1775""
","
",,null,run_exp/static/images/task_images/gems/22.jpg,null,,,,,,,4,,,1,,,,,22,0.198382316,0.181818182,,,,,,,
decision,82,492503,0.0-30.0-2.0,"""event"",""trial"",""time""
""fullscreenenter"",""1"",""1775""
","
","
","""event"",""trial"",""time""
""fullscreenenter"",""1"",""1775""
","
",,464.5,run_exp/static/images/task_images/land.jpg,65,,,,,,,4,,,1,,,,,,,,13022,1,1,FALSE,,,
dig,83,495050,0.0-31.0-0.0,"""event"",""trial"",""time""
""fullscreenenter"",""1"",""1775""
","
","
","""event"",""trial"",""time""
""fullscreenenter"",""1"",""1775""
","
",,,,,,,,,,,,"[{""stimulus"":""run_exp/static/images/task_images/dig.jpg"",""time"":0.20000000298023224},{""stimulus"":""run_exp/static/images/task_images/land.jpg"",""time"":849.6000000089407},{""stimulus"":""run_exp/static/images/task_images/dig.jpg"",""time"":1696}]",[],1,,,,,,,,,,,,,,
harvest,84,496057,0.0-31.0-1.0,"""event"",""trial"",""time""
""fullscreenenter"",""1"",""1775""
","
","
","""event"",""trial"",""time""
""fullscreenenter"",""1"",""1775""
","
",,null,run_exp/static/images/task_images/gems/4.jpg,null,,,,,,,1,,,1,,,,,4,0.128632056,0.25,,,,,,,
decision,85,496106,0.0-31.0-2.0,"""event"",""trial"",""time""
""fullscreenenter"",""1"",""1775""
","
","
","""event"",""trial"",""time""
""fullscreenenter"",""1"",""1775""
","
",,48.2,run_exp/static/images/task_images/land.jpg,76,,,,,,,1,,,1,,,,,,,,16625,1,2,TRUE,,,
travel,86,506058,0.0-32.0-0.0,"""event"",""trial"",""time""
""fullscreenenter"",""1"",""1775""
","
","
","""event"",""trial"",""time""
""fullscreenenter"",""1"",""1775""
","
",,,,,,,,,,,,"[{""stimulus"":""run_exp/static/images/task_images/rocket-01.jpg"",""time"":0.10000000894069672},{""stimulus"":""run_exp/static/images/task_images/rocket-02.jpg"",""time"":1109.7999999970198},{""stimulus"":""run_exp/static/images/task_images/rocket-03.jpg"",""time"":2213.4000000059605},{""stimulus"":""run_exp/static/images/task_images/rocket-04.jpg"",""time"":3323.6000000089407},{""stimulus"":""run_exp/static/images/task_images/rocket-05.jpg"",""time"":4429.70000000298},{""stimulus"":""run_exp/static/images/task_images/rocket-06.jpg"",""time"":5531.9000000059605},{""stimulus"":""run_exp/static/images/task_images/rocket-07.jpg"",""time"":6637.5},{""stimulus"":""run_exp/static/images/task_images/rocket-08.jpg"",""time"":7739.9000000059605},{""stimulus"":""run_exp/static/images/task_images/rocket-09.jpg"",""time"":8845.5}]",[],1,,,,,,,,,,,,,,
alien_welcome,87,511069,0.0-32.0-1.0,"""event"",""trial"",""time""
""fullscreenenter"",""1"",""1775""
","
","
","""event"",""trial"",""time""
""fullscreenenter"",""1"",""1775""
","
",,null,run_exp/static/images/task_images/aliens/old_aliens/planet/alien_planet-2.jpg,null,,,,,,,,,,,,,2,"34,2,36,70,3,41,73,37,44,8,71,21,25,46,60,55,22,15,7,35,62,72,52,30,39,14,23,57,31,51,17,42,67,29,20,26,11,54,48,56,19,68,47,80,4",,,,,,,,,,
land,88,511577,0.0-32.0-2.0,"""event"",""trial"",""time""
""fullscreenenter"",""1"",""1775""
","
","
","""event"",""trial"",""time""
""fullscreenenter"",""1"",""1775""
","
",,null,run_exp/static/images/task_images/land.jpg,null,,,,,,,101,,,2,,,,,,,,,,,,,,
dig,89,513586,0.0-32.0-3.0,"""event"",""trial"",""time""
""fullscreenenter"",""1"",""1775""
","
","
","""event"",""trial"",""time""
""fullscreenenter"",""1"",""1775""
","
",,,,,,,,,,,,"[{""stimulus"":""run_exp/static/images/task_images/dig.jpg"",""time"":0.3999999910593033},{""stimulus"":""run_exp/static/images/task_images/land.jpg"",""time"":669.7999999970198},{""stimulus"":""run_exp/static/images/task_images/dig.jpg"",""time"":1343}]",[],2,,,,,,,,,,,,,,
harvest,90,514592,0.0-32.0-4.0,"""event"",""trial"",""time""
""fullscreenenter"",""1"",""1775""
","
","
","""event"",""trial"",""time""
""fullscreenenter"",""1"",""1775""
","
",,null,run_exp/static/images/task_images/gems/101.jpg,null,,,,,,,17,,,2,,,,,101,0.167574272,0.168316832,,,,,,,
decision,91,515209,0.0-32.0-5.0,"""event"",""trial"",""time""
""fullscreenenter"",""1"",""1775""
","
","
","""event"",""trial"",""time""
""fullscreenenter"",""1"",""1775""
","
",,615.1,run_exp/static/images/task_images/land.jpg,65,,,,,,,17,,,2,,,,,,,,35728,1,0,FALSE,,,
dig,92,517601,0.0-33.0-0.0,"""event"",""trial"",""time""
""fullscreenenter"",""1"",""1775""
","
","
","""event"",""trial"",""time""
""fullscreenenter"",""1"",""1775""
","
",,,,,,,,,,,,"[{""stimulus"":""run_exp/static/images/task_images/dig.jpg"",""time"":0.29999999701976776},{""stimulus"":""run_exp/static/images/task_images/land.jpg"",""time"":797.0999999940395},{""stimulus"":""run_exp/static/images/task_images/dig.jpg"",""time"":1601.7999999970198}]",[],2,,,,,,,,,,,,,,
harvest,93,518610,0.0-33.0-1.0,"""event"",""trial"",""time""
""fullscreenenter"",""1"",""1775""
","
","
","""event"",""trial"",""time""
""fullscreenenter"",""1"",""1775""
","
",,null,run_exp/static/images/task_images/gems/17.jpg,null,,,,,,,3,,,2,,,,,17,0.164754035,0.176470588,,,,,,,
decision,94,519102,0.0-33.0-2.0,"""event"",""trial"",""time""
""fullscreenenter"",""1"",""1775""
","
","
","""event"",""trial"",""time""
""fullscreenenter"",""1"",""1775""
","
",,490.3,run_exp/static/images/task_images/land.jpg,65,,,,,,,3,,,2,,,,,,,,39621,1,1,FALSE,,,
dig,95,521618,0.0-34.0-0.0,"""event"",""trial"",""time""
""fullscreenenter"",""1"",""1775""
","
","
","""event"",""trial"",""time""
""fullscreenenter"",""1"",""1775""
","
",,,,,,,,,,,,"[{""stimulus"":""run_exp/static/images/task_images/dig.jpg"",""time"":0.09999999403953552},{""stimulus"":""run_exp/static/images/task_images/land.jpg"",""time"":841.7999999970198},{""stimulus"":""run_exp/static/images/task_images/dig.jpg"",""time"":1684.0999999940395}]",[],2,,,,,,,,,,,,,,
harvest,96,522628,0.0-34.0-1.0,"""event"",""trial"",""time""
""fullscreenenter"",""1"",""1775""
","
","
","""event"",""trial"",""time""
""fullscreenenter"",""1"",""1775""
","
",,null,run_exp/static/images/task_images/gems/3.jpg,null,,,,,,,1,,,2,,,,,3,0.175160795,0.333333333,,,,,,,
decision,97,522908,0.0-34.0-2.0,"""event"",""trial"",""time""
""fullscreenenter"",""1"",""1775""
","
","
","""event"",""trial"",""time""
""fullscreenenter"",""1"",""1775""
","
",,279,run_exp/static/images/task_images/land.jpg,76,,,,,,,1,,,2,,,,,,,,43427,1,2,TRUE,,,
travel,98,532632,0.0-35.0-0.0,"""event"",""trial"",""time""
""fullscreenenter"",""1"",""1775""
","
","
","""event"",""trial"",""time""
""fullscreenenter"",""1"",""1775""
","
",,,,,,,,,,,,"[{""stimulus"":""run_exp/static/images/task_images/rocket-01.jpg"",""time"":0.20000000298023224},{""stimulus"":""run_exp/static/images/task_images/rocket-02.jpg"",""time"":1081.5},{""stimulus"":""run_exp/static/images/task_images/rocket-03.jpg"",""time"":2161.7999999970198},{""stimulus"":""run_exp/static/images/task_images/rocket-04.jpg"",""time"":3247.5},{""stimulus"":""run_exp/static/images/task_images/rocket-05.jpg"",""time"":4323.29999999702},{""stimulus"":""run_exp/static/images/task_images/rocket-06.jpg"",""time"":5402.0999999940395},{""stimulus"":""run_exp/static/images/task_images/rocket-07.jpg"",""time"":6481.79999999702},{""stimulus"":""run_exp/static/images/task_images/rocket-08.jpg"",""time"":7563.70000000298},{""stimulus"":""run_exp/static/images/task_images/rocket-09.jpg"",""time"":8643}]",[],2,,,,,,,,,,,,,,
alien_welcome,99,537641,0.0-35.0-1.0,"""event"",""trial"",""time""
""fullscreenenter"",""1"",""1775""
","
","
","""event"",""trial"",""time""
""fullscreenenter"",""1"",""1775""
","
",,null,run_exp/static/images/task_images/aliens/old_aliens/planet/alien_planet-36.jpg,null,,,,,,,,,,,,,36,"34,2,36,70,3,41,73,37,44,8,71,21,25,46,60,55,22,15,7,35,62,72,52,30,39,14,23,57,31,51,17,42,67,29,20,26,11,54,48,56,19,68,47,80,4",,,,,,,,,,
land,100,538146,0.0-35.0-2.0,"""event"",""trial"",""time""
""fullscreenenter"",""1"",""1775""
","
","
","""event"",""trial"",""time""
""fullscreenenter"",""1"",""1775""
","
",,null,run_exp/static/images/task_images/land.jpg,null,,,,,,,103,,,3,,,,,,,,,,,,,,
dig,101,540154,0.0-35.0-3.0,"""event"",""trial"",""time""
""fullscreenenter"",""1"",""1775""
","
","
","""event"",""trial"",""time""
""fullscreenenter"",""1"",""1775""
","
",,,,,,,,,,,,"[{""stimulus"":""run_exp/static/images/task_images/dig.jpg"",""time"":0.4000000059604645},{""stimulus"":""run_exp/static/images/task_images/land.jpg"",""time"":670.4000000059605},{""stimulus"":""run_exp/static/images/task_images/dig.jpg"",""time"":1341.9000000059605}]",[],3,,,,,,,,,,,,,,
harvest,102,541162,0.0-35.0-4.0,"""event"",""trial"",""time""
""fullscreenenter"",""1"",""1775""
","
","
","""event"",""trial"",""time""
""fullscreenenter"",""1"",""1775""
","
",,null,run_exp/static/images/task_images/gems/103.jpg,null,,,,,,,53,,,3,,,,,103,0.517113018,0.514563107,,,,,,,
decision,103,541681,0.0-35.0-5.0,"""event"",""trial"",""time""
""fullscreenenter"",""1"",""1775""
","
","
","""event"",""trial"",""time""
""fullscreenenter"",""1"",""1775""
","
",,517.6,run_exp/static/images/task_images/land.jpg,65,,,,,,,53,,,3,,,,,,,,62200,1,0,FALSE,,,
dig,104,544169,0.0-36.0-0.0,"""event"",""trial"",""time""
""fullscreenenter"",""1"",""1775""
","
","
","""event"",""trial"",""time""
""fullscreenenter"",""1"",""1775""
","
",,,,,,,,,,,,"[{""stimulus"":""run_exp/static/images/task_images/dig.jpg"",""time"":0},{""stimulus"":""run_exp/static/images/task_images/land.jpg"",""time"":830},{""stimulus"":""run_exp/static/images/task_images/dig.jpg"",""time"":1664.4000000059605}]",[],3,,,,,,,,,,,,,,
harvest,105,545177,0.0-36.0-1.0,"""event"",""trial"",""time""
""fullscreenenter"",""1"",""1775""
","
","
","""event"",""trial"",""time""
""fullscreenenter"",""1"",""1775""
","
",,null,run_exp/static/images/task_images/gems/53.jpg,null,,,,,,,22,,,3,,,,,53,0.420979968,0.41509434,,,,,,,
decision,106,545562,0.0-36.0-2.0,"""event"",""trial"",""time""
""fullscreenenter"",""1"",""1775""
","
","
","""event"",""trial"",""time""
""fullscreenenter"",""1"",""1775""
","
",,383.1,run_exp/static/images/task_images/land.jpg,65,,,,,,,22,,,3,,,,,,,,66081,1,1,FALSE,,,
dig,107,548184,0.0-37.0-0.0,"""event"",""trial"",""time""
""fullscreenenter"",""1"",""1775""
","
","
","""event"",""trial"",""time""
""fullscreenenter"",""1"",""1775""
","
",,,,,,,,,,,,"[{""stimulus"":""run_exp/static/images/task_images/dig.jpg"",""time"":0.10000000894069672},{""stimulus"":""run_exp/static/images/task_images/land.jpg"",""time"":877.3000000119209},{""stimulus"":""run_exp/static/images/task_images/dig.jpg"",""time"":1750}]",[],3,,,,,,,,,,,,,,
harvest,108,549193,0.0-37.0-1.0,"""event"",""trial"",""time""
""fullscreenenter"",""1"",""1775""
","
","
","""event"",""trial"",""time""
""fullscreenenter"",""1"",""1775""
","
",,null,run_exp/static/images/task_images/gems/22.jpg,null,,,,,,,11,,,3,,,,,22,0.491976045,0.5,,,,,,,
decision,109,549404,0.0-37.0-2.0,"""event"",""trial"",""time""
""fullscreenenter"",""1"",""1775""
","
","
","""event"",""trial"",""time""
""fullscreenenter"",""1"",""1775""
","
",,209.5,run_exp/static/images/task_images/land.jpg,65,,,,,,,11,,,3,,,,,,,,69923,1,2,FALSE,,,
dig,110,552202,0.0-38.0-0.0,"""event"",""trial"",""time""
""fullscreenenter"",""1"",""1775""
","
","
","""event"",""trial"",""time""
""fullscreenenter"",""1"",""1775""
","
",,,,,,,,,,,,"[{""stimulus"":""run_exp/static/images/task_images/dig.jpg"",""time"":0.09999999403953552},{""stimulus"":""run_exp/static/images/task_images/land.jpg"",""time"":938.0999999940395},{""stimulus"":""run_exp/static/images/task_images/dig.jpg"",""time"":1867.7000000029802}]",[],3,,,,,,,,,,,,,,
harvest,111,553209,0.0-38.0-1.0,"""event"",""trial"",""time""
""fullscreenenter"",""1"",""1775""
","
","
","""event"",""trial"",""time""
""fullscreenenter"",""1"",""1775""
","
",,null,run_exp/static/images/task_images/gems/11.jpg,null,,,,,,,6,,,3,,,,,11,0.565306934,0.545454545,,,,,,,
decision,112,553437,0.0-38.0-2.0,"""event"",""trial"",""time""
""fullscreenenter"",""1"",""1775""
","
","
","""event"",""trial"",""time""
""fullscreenenter"",""1"",""1775""
","
",,226.6,run_exp/static/images/task_images/land.jpg,65,,,,,,,6,,,3,,,,,,,,73956,1,3,FALSE,,,
dig,113,556217,0.0-39.0-0.0,"""event"",""trial"",""time""
""fullscreenenter"",""1"",""1775""
","
","
","""event"",""trial"",""time""
""fullscreenenter"",""1"",""1775""
","
",,,,,,,,,,,,"[{""stimulus"":""run_exp/static/images/task_images/dig.jpg"",""time"":0.20000000298023224},{""stimulus"":""run_exp/static/images/task_images/land.jpg"",""time"":928.8000000119209},{""stimulus"":""run_exp/static/images/task_images/dig.jpg"",""time"":1857.4000000059605}]",[],3,,,,,,,,,,,,,,
harvest,114,557225,0.0-39.0-1.0,"""event"",""trial"",""time""
""fullscreenenter"",""1"",""1775""
","
","
","""event"",""trial"",""time""
""fullscreenenter"",""1"",""1775""
","
",,null,run_exp/static/images/task_images/gems/6.jpg,null,,,,,,,3,,,3,,,,,6,0.513455239,0.5,,,,,,,
decision,115,557328,0.0-39.0-2.0,"""event"",""trial"",""time""
""fullscreenenter"",""1"",""1775""
","
","
","""event"",""trial"",""time""
""fullscreenenter"",""1"",""1775""
","
",,101,run_exp/static/images/task_images/land.jpg,76,,,,,,,3,,,3,,,,,,,,77847,1,4,TRUE,,,
travel,116,567225,0.0-40.0-0.0,"""event"",""trial"",""time""
""fullscreenenter"",""1"",""1775""
","
","
","""event"",""trial"",""time""
""fullscreenenter"",""1"",""1775""
","
",,,,,,,,,,,,"[{""stimulus"":""run_exp/static/images/task_images/rocket-01.jpg"",""time"":0.09999999403953552},{""stimulus"":""run_exp/static/images/task_images/rocket-02.jpg"",""time"":1101.8999999910593},{""stimulus"":""run_exp/static/images/task_images/rocket-03.jpg"",""time"":2207},{""stimulus"":""run_exp/static/images/task_images/rocket-04.jpg"",""time"":3303.2999999970198},{""stimulus"":""run_exp/static/images/task_images/rocket-05.jpg"",""time"":4398.0999999940395},{""stimulus"":""run_exp/static/images/task_images/rocket-06.jpg"",""time"":5503.29999999702},{""stimulus"":""run_exp/static/images/task_images/rocket-07.jpg"",""time"":6598},{""stimulus"":""run_exp/static/images/task_images/rocket-08.jpg"",""time"":7702.79999999702},{""stimulus"":""run_exp/static/images/task_images/rocket-09.jpg"",""time"":8802.79999999702}]",[],3,,,,,,,,,,,,,,
alien_welcome,117,572233,0.0-40.0-1.0,"""event"",""trial"",""time""
""fullscreenenter"",""1"",""1775""
","
","
","""event"",""trial"",""time""
""fullscreenenter"",""1"",""1775""
","
",,null,run_exp/static/images/task_images/aliens/old_aliens/planet/alien_planet-70.jpg,null,,,,,,,,,,,,,70,"34,2,36,70,3,41,73,37,44,8,71,21,25,46,60,55,22,15,7,35,62,72,52,30,39,14,23,57,31,51,17,42,67,29,20,26,11,54,48,56,19,68,47,80,4",,,,,,,,,,
land,118,572736,0.0-40.0-2.0,"""event"",""trial"",""time""
""fullscreenenter"",""1"",""1775""
","
","
","""event"",""trial"",""time""
""fullscreenenter"",""1"",""1775""
","
",,null,run_exp/static/images/task_images/land.jpg,null,,,,,,,97,,,4,,,,,,,,,,,,,,
dig,119,574744,0.0-40.0-3.0,"""event"",""trial"",""time""
""fullscreenenter"",""1"",""1775""
","
","
","""event"",""trial"",""time""
""fullscreenenter"",""1"",""1775""
","
",,,,,,,,,,,,"[{""stimulus"":""run_exp/static/images/task_images/dig.jpg"",""time"":0.20000000298023224},{""stimulus"":""run_exp/static/images/task_images/land.jpg"",""time"":672.8000000119209},{""stimulus"":""run_exp/static/images/task_images/dig.jpg"",""time"":1336.2000000029802}]",[],4,,,,,,,,,,,,,,
harvest,120,575754,0.0-40.0-4.0,"""event"",""trial"",""time""
""fullscreenenter"",""1"",""1775""
","
","
","""event"",""trial"",""time""
""fullscreenenter"",""1"",""1775""
","
",,null,run_exp/static/images/task_images/gems/97.jpg,null,,,,,,,50,,,4,,,,,97,0.511109919,0.515463918,,,,,,,
decision,121,576216,0.0-40.0-5.0,"""event"",""trial"",""time""
""fullscreenenter"",""1"",""1775""
","
","
","""event"",""trial"",""time""
""fullscreenenter"",""1"",""1775""
","
",,460.4,run_exp/static/images/task_images/land.jpg,65,,,,,,,50,,,4,,,,,,,,96735,1,0,FALSE,,,
dig,122,578761,0.0-41.0-0.0,"""event"",""trial"",""time""
""fullscreenenter"",""1"",""1775""
","
","
","""event"",""trial"",""time""
""fullscreenenter"",""1"",""1775""
","
",,,,,,,,,,,,"[{""stimulus"":""run_exp/static/images/task_images/dig.jpg"",""time"":0.09999999403953552},{""stimulus"":""run_exp/static/images/task_images/land.jpg"",""time"":855.0999999940395},{""stimulus"":""run_exp/static/images/task_images/dig.jpg"",""time"":1697.0999999940395}]",[],4,,,,,,,,,,,,,,
harvest,123,579768,0.0-41.0-1.0,"""event"",""trial"",""time""
""fullscreenenter"",""1"",""1775""
","
","
","""event"",""trial"",""time""
""fullscreenenter"",""1"",""1775""
","
",,null,run_exp/static/images/task_images/gems/50.jpg,null,,,,,,,28,,,4,,,,,50,0.564840648,0.56,,,,,,,
decision,124,580078,0.0-41.0-2.0,"""event"",""trial"",""time""
""fullscreenenter"",""1"",""1775""
","
","
","""event"",""trial"",""time""
""fullscreenenter"",""1"",""1775""
","
",,308.3,run_exp/static/images/task_images/land.jpg,65,,,,,,,28,,,4,,,,,,,,100597,1,1,FALSE,,,
dig,125,582778,0.0-42.0-0.0,"""event"",""trial"",""time""
""fullscreenenter"",""1"",""1775""
","
","
","""event"",""trial"",""time""
""fullscreenenter"",""1"",""1775""
","
",,,,,,,,,,,,"[{""stimulus"":""run_exp/static/images/task_images/dig.jpg"",""time"":0.20000000298023224},{""stimulus"":""run_exp/static/images/task_images/land.jpg"",""time"":905.1000000089407},{""stimulus"":""run_exp/static/images/task_images/dig.jpg"",""time"":1801.1000000089407}]",[],4,,,,,,,,,,,,,,
harvest,126,583784,0.0-42.0-1.0,"""event"",""trial"",""time""
""fullscreenenter"",""1"",""1775""
","
","
","""event"",""trial"",""time""
""fullscreenenter"",""1"",""1775""
","
",,null,run_exp/static/images/task_images/gems/28.jpg,null,,,,,,,14,,,4,,,,,28,0.512238964,0.5,,,,,,,
decision,127,583795,0.0-42.0-2.0,"""event"",""trial"",""time""
""fullscreenenter"",""1"",""1775""
","
","
","""event"",""trial"",""time""
""fullscreenenter"",""1"",""1775""
","
",,10,run_exp/static/images/task_images/land.jpg,76,,,,,,,14,,,4,,,,,,,,104314,1,2,TRUE,,,
travel,128,593793,0.0-43.0-0.0,"""event"",""trial"",""time""
""fullscreenenter"",""1"",""1775""
","
","
","""event"",""trial"",""time""
""fullscreenenter"",""1"",""1775""
","
",,,,,,,,,,,,"[{""stimulus"":""run_exp/static/images/task_images/rocket-01.jpg"",""time"":0.09999999403953552},{""stimulus"":""run_exp/static/images/task_images/rocket-02.jpg"",""time"":1114.9000000059605},{""stimulus"":""run_exp/static/images/task_images/rocket-03.jpg"",""time"":2227.2999999970198},{""stimulus"":""run_exp/static/images/task_images/rocket-04.jpg"",""time"":3340.2000000029802},{""stimulus"":""run_exp/static/images/task_images/rocket-05.jpg"",""time"":4444.4000000059605},{""stimulus"":""run_exp/static/images/task_images/rocket-06.jpg"",""time"":5556.4000000059605},{""stimulus"":""run_exp/static/images/task_images/rocket-07.jpg"",""time"":6668.29999999702},{""stimulus"":""run_exp/static/images/task_images/rocket-08.jpg"",""time"":7779.9000000059605},{""stimulus"":""run_exp/static/images/task_images/rocket-09.jpg"",""time"":8883.70000000298}]",[],4,,,,,,,,,,,,,,
alien_welcome,129,598801,0.0-43.0-1.0,"""event"",""trial"",""time""
""fullscreenenter"",""1"",""1775""
","
","
","""event"",""trial"",""time""
""fullscreenenter"",""1"",""1775""
","
",,null,run_exp/static/images/task_images/aliens/old_aliens/planet/alien_planet-3.jpg,null,,,,,,,,,,,,,3,"34,2,36,70,3,41,73,37,44,8,71,21,25,46,60,55,22,15,7,35,62,72,52,30,39,14,23,57,31,51,17,42,67,29,20,26,11,54,48,56,19,68,47,80,4",,,,,,,,,,
land,130,599305,0.0-43.0-2.0,"""event"",""trial"",""time""
""fullscreenenter"",""1"",""1775""
","
","
","""event"",""trial"",""time""
""fullscreenenter"",""1"",""1775""
","
",,null,run_exp/static/images/task_images/land.jpg,null,,,,,,,99,,,5,,,,,,,,,,,,,,
dig,131,601313,0.0-43.0-3.0,"""event"",""trial"",""time""
""fullscreenenter"",""1"",""1775""
","
","
","""event"",""trial"",""time""
""fullscreenenter"",""1"",""1775""
","
",,,,,,,,,,,,"[{""stimulus"":""run_exp/static/images/task_images/dig.jpg"",""time"":0.29999999701976776},{""stimulus"":""run_exp/static/images/task_images/land.jpg"",""time"":670.5},{""stimulus"":""run_exp/static/images/task_images/dig.jpg"",""time"":1342.0999999940395}]",[],5,,,,,,,,,,,,,,
harvest,132,602321,0.0-43.0-4.0,"""event"",""trial"",""time""
""fullscreenenter"",""1"",""1775""
","
","
","""event"",""trial"",""time""
""fullscreenenter"",""1"",""1775""
","
",,null,run_exp/static/images/task_images/gems/99.jpg,null,,,,,,,46,,,5,,,,,99,0.467478506,0.464646465,,,,,,,
decision,133,602644,0.0-43.0-5.0,"""event"",""trial"",""time""
""fullscreenenter"",""1"",""1775""
","
","
","""event"",""trial"",""time""
""fullscreenenter"",""1"",""1775""
","
",,320.6,run_exp/static/images/task_images/land.jpg,65,,,,,,,46,,,5,,,,,,,,123163,1,0,FALSE,,,
dig,134,605329,0.0-44.0-0.0,"""event"",""trial"",""time""
""fullscreenenter"",""1"",""1775""
","
","
","""event"",""trial"",""time""
""fullscreenenter"",""1"",""1775""
","
",,,,,,,,,,,,"[{""stimulus"":""run_exp/static/images/task_images/dig.jpg"",""time"":0.20000000298023224},{""stimulus"":""run_exp/static/images/task_images/land.jpg"",""time"":898},{""stimulus"":""run_exp/static/images/task_images/dig.jpg"",""time"":1795.7999999970198}]",[],5,,,,,,,,,,,,,,
harvest,135,606337,0.0-44.0-1.0,"""event"",""trial"",""time""
""fullscreenenter"",""1"",""1775""
","
","
","""event"",""trial"",""time""
""fullscreenenter"",""1"",""1775""
","
",,null,run_exp/static/images/task_images/gems/46.jpg,null,,,,,,,22,,,5,,,,,46,0.468848155,0.47826087,,,,,,,
decision,136,606444,0.0-44.0-2.0,"""event"",""trial"",""time""
""fullscreenenter"",""1"",""1775""
","
","
","""event"",""trial"",""time""
""fullscreenenter"",""1"",""1775""
","
",,105.8,run_exp/static/images/task_images/land.jpg,65,,,,,,,22,,,5,,,,,,,,126963,1,1,FALSE,,,
dig,137,609345,0.0-45.0-0.0,"""event"",""trial"",""time""
""fullscreenenter"",""1"",""1775""
","
","
","""event"",""trial"",""time""
""fullscreenenter"",""1"",""1775""
","
",,,,,,,,,,,,"[{""stimulus"":""run_exp/static/images/task_images/dig.jpg"",""time"":0.10000000894069672},{""stimulus"":""run_exp/static/images/task_images/land.jpg"",""time"":970.3000000119209},{""stimulus"":""run_exp/static/images/task_images/dig.jpg"",""time"":1930.800000011921}]",[],5,,,,,,,,,,,,,,
harvest,138,610353,0.0-45.0-1.0,"""event"",""trial"",""time""
""fullscreenenter"",""1"",""1775""
","
","
","""event"",""trial"",""time""
""fullscreenenter"",""1"",""1775""
","
",,null,run_exp/static/images/task_images/gems/22.jpg,null,,,,,,,11,,,5,,,,,22,0.516923936,0.5,,,,,,,
decision,139,610490,0.0-45.0-2.0,"""event"",""trial"",""time""
""fullscreenenter"",""1"",""1775""
","
","
","""event"",""trial"",""time""
""fullscreenenter"",""1"",""1775""
","
",,135.7,run_exp/static/images/task_images/land.jpg,76,,,,,,,11,,,5,,,,,,,,131009,1,2,TRUE,,,
travel,140,620362,0.0-46.0-0.0,"""event"",""trial"",""time""
""fullscreenenter"",""1"",""1775""
","
","
","""event"",""trial"",""time""
""fullscreenenter"",""1"",""1775""
","
",,,,,,,,,,,,"[{""stimulus"":""run_exp/static/images/task_images/rocket-01.jpg"",""time"":0.30000001192092896},{""stimulus"":""run_exp/static/images/task_images/rocket-02.jpg"",""time"":1099.9000000059605},{""stimulus"":""run_exp/static/images/task_images/rocket-03.jpg"",""time"":2195.7000000029802},{""stimulus"":""run_exp/static/images/task_images/rocket-04.jpg"",""time"":3294.800000011921},{""stimulus"":""run_exp/static/images/task_images/rocket-05.jpg"",""time"":4387.70000000298},{""stimulus"":""run_exp/static/images/task_images/rocket-06.jpg"",""time"":5484.70000000298},{""stimulus"":""run_exp/static/images/task_images/rocket-07.jpg"",""time"":6580.9000000059605},{""stimulus"":""run_exp/static/images/task_images/rocket-08.jpg"",""time"":7677.5},{""stimulus"":""run_exp/static/images/task_images/rocket-09.jpg"",""time"":8773.20000000298}]",[],5,,,,,,,,,,,,,,
alien_welcome,141,625369,0.0-46.0-1.0,"""event"",""trial"",""time""
""fullscreenenter"",""1"",""1775""
","
","
","""event"",""trial"",""time""
""fullscreenenter"",""1"",""1775""
","
",,null,run_exp/static/images/task_images/aliens/old_aliens/planet/alien_planet-41.jpg,null,,,,,,,,,,,,,41,"34,2,36,70,3,41,73,37,44,8,71,21,25,46,60,55,22,15,7,35,62,72,52,30,39,14,23,57,31,51,17,42,67,29,20,26,11,54,48,56,19,68,47,80,4",,,,,,,,,,
land,142,625873,0.0-46.0-2.0,"""event"",""trial"",""time""
""fullscreenenter"",""1"",""1775""
","
","
","""event"",""trial"",""time""
""fullscreenenter"",""1"",""1775""
","
",,null,run_exp/static/images/task_images/land.jpg,null,,,,,,,94,,,6,,,,,,,,,,,,,,
dig,143,627885,0.0-46.0-3.0,"""event"",""trial"",""time""
""fullscreenenter"",""1"",""1775""
","
","
","""event"",""trial"",""time""
""fullscreenenter"",""1"",""1775""
","
",,,,,,,,,,,,"[{""stimulus"":""run_exp/static/images/task_images/dig.jpg"",""time"":0.5},{""stimulus"":""run_exp/static/images/task_images/land.jpg"",""time"":670.2000000029802},{""stimulus"":""run_exp/static/images/task_images/dig.jpg"",""time"":1336.7000000029802}]",[],6,,,,,,,,,,,,,,
harvest,144,628893,0.0-46.0-4.0,"""event"",""trial"",""time""
""fullscreenenter"",""1"",""1775""
","
","
","""event"",""trial"",""time""
""fullscreenenter"",""1"",""1775""
","
",,null,run_exp/static/images/task_images/gems/94.jpg,null,,,,,,,81,,,6,,,,,94,0.862566734,0.861702128,,,,,,,
decision,145,629360,0.0-46.0-5.0,"""event"",""trial"",""time""
""fullscreenenter"",""1"",""1775""
","
","
","""event"",""trial"",""time""
""fullscreenenter"",""1"",""1775""
","
",,465.2,run_exp/static/images/task_images/land.jpg,65,,,,,,,81,,,6,,,,,,,,149879,1,0,FALSE,,,
dig,146,631897,0.0-47.0-0.0,"""event"",""trial"",""time""
""fullscreenenter"",""1"",""1775""
","
","
","""event"",""trial"",""time""
""fullscreenenter"",""1"",""1775""
","
",,,,,,,,,,,,"[{""stimulus"":""run_exp/static/images/task_images/dig.jpg"",""time"":0.09999999403953552},{""stimulus"":""run_exp/static/images/task_images/land.jpg"",""time"":845.8999999910593},{""stimulus"":""run_exp/static/images/task_images/dig.jpg"",""time"":1695.5}]",[],6,,,,,,,,,,,,,,
harvest,147,632905,0.0-47.0-1.0,"""event"",""trial"",""time""
""fullscreenenter"",""1"",""1775""
","
","
","""event"",""trial"",""time""
""fullscreenenter"",""1"",""1775""
","
",,null,run_exp/static/images/task_images/gems/81.jpg,null,,,,,,,60,,,6,,,,,81,0.746176968,0.740740741,,,,,,,
decision,148,633246,0.0-47.0-2.0,"""event"",""trial"",""time""
""fullscreenenter"",""1"",""1775""
","
","
","""event"",""trial"",""time""
""fullscreenenter"",""1"",""1775""
","
",,338.8,run_exp/static/images/task_images/land.jpg,65,,,,,,,60,,,6,,,,,,,,153765,1,1,FALSE,,,
dig,149,635913,0.0-48.0-0.0,"""event"",""trial"",""time""
""fullscreenenter"",""1"",""1775""
","
","
","""event"",""trial"",""time""
""fullscreenenter"",""1"",""1775""
","
",,,,,,,,,,,,"[{""stimulus"":""run_exp/static/images/task_images/dig.jpg"",""time"":0.09999999403953552},{""stimulus"":""run_exp/static/images/task_images/land.jpg"",""time"":896.7999999970198},{""stimulus"":""run_exp/static/images/task_images/dig.jpg"",""time"":1776.7000000029802}]",[],6,,,,,,,,,,,,,,
harvest,150,636921,0.0-48.0-1.0,"""event"",""trial"",""time""
""fullscreenenter"",""1"",""1775""
","
","
","""event"",""trial"",""time""
""fullscreenenter"",""1"",""1775""
","
",,null,run_exp/static/images/task_images/gems/60.jpg,null,,,,,,,47,,,6,,,,,60,0.775822241,0.783333333,,,,,,,
decision,151,637173,0.0-48.0-2.0,"""event"",""trial"",""time""
""fullscreenenter"",""1"",""1775""
","
","
","""event"",""trial"",""time""
""fullscreenenter"",""1"",""1775""
","
",,251.1,run_exp/static/images/task_images/land.jpg,65,,,,,,,47,,,6,,,,,,,,157692,1,2,FALSE,,,
dig,152,639929,0.0-49.0-0.0,"""event"",""trial"",""time""
""fullscreenenter"",""1"",""1775""
","
","
","""event"",""trial"",""time""
""fullscreenenter"",""1"",""1775""
","
",,,,,,,,,,,,"[{""stimulus"":""run_exp/static/images/task_images/dig.jpg"",""time"":0.09999999403953552},{""stimulus"":""run_exp/static/images/task_images/land.jpg"",""time"":921.2999999970198},{""stimulus"":""run_exp/static/images/task_images/dig.jpg"",""time"":1841.0999999940395}]",[],6,,,,,,,,,,,,,,
harvest,153,640937,0.0-49.0-1.0,"""event"",""trial"",""time""
""fullscreenenter"",""1"",""1775""
","
","
","""event"",""trial"",""time""
""fullscreenenter"",""1"",""1775""
","
",,null,run_exp/static/images/task_images/gems/47.jpg,null,,,,,,,36,,,6,,,,,47,0.770976555,0.765957447,,,,,,,
decision,154,641203,0.0-49.0-2.0,"""event"",""trial"",""time""
""fullscreenenter"",""1"",""1775""
","
","
","""event"",""trial"",""time""
""fullscreenenter"",""1"",""1775""
","
",,264.9,run_exp/static/images/task_images/land.jpg,65,,,,,,,36,,,6,,,,,,,,161722,1,3,FALSE,,,
dig,155,643945,0.0-50.0-0.0,"""event"",""trial"",""time""
""fullscreenenter"",""1"",""1775""
","
","
","""event"",""trial"",""time""
""fullscreenenter"",""1"",""1775""
","
",,,,,,,,,,,,"[{""stimulus"":""run_exp/static/images/task_images/dig.jpg"",""time"":0.20000000298023224},{""stimulus"":""run_exp/static/images/task_images/land.jpg"",""time"":917.1000000089407},{""stimulus"":""run_exp/static/images/task_images/dig.jpg"",""time"":1827.5}]",[],6,,,,,,,,,,,,,,
harvest,156,644953,0.0-50.0-1.0,"""event"",""trial"",""time""
""fullscreenenter"",""1"",""1775""
","
","
","""event"",""trial"",""time""
""fullscreenenter"",""1"",""1775""
","
",,null,run_exp/static/images/task_images/gems/36.jpg,null,,,,,,,31,,,6,,,,,36,0.850245607,0.861111111,,,,,,,
decision,157,645559,0.0-50.0-2.0,"""event"",""trial"",""time""
""fullscreenenter"",""1"",""1775""
","
","
","""event"",""trial"",""time""
""fullscreenenter"",""1"",""1775""
","
",,605.3,run_exp/static/images/task_images/land.jpg,65,,,,,,,31,,,6,,,,,,,,166078,1,4,FALSE,,,
dig,158,647960,0.0-51.0-0.0,"""event"",""trial"",""time""
""fullscreenenter"",""1"",""1775""
","
","
","""event"",""trial"",""time""
""fullscreenenter"",""1"",""1775""
","
",,,,,,,,,,,,"[{""stimulus"":""run_exp/static/images/task_images/dig.jpg"",""time"":0.10000000894069672},{""stimulus"":""run_exp/static/images/task_images/land.jpg"",""time"":798.9000000059605},{""stimulus"":""run_exp/static/images/task_images/dig.jpg"",""time"":1599.4000000059605}]",[],6,,,,,,,,,,,,,,
harvest,159,648969,0.0-51.0-1.0,"""event"",""trial"",""time""
""fullscreenenter"",""1"",""1775""
","
","
","""event"",""trial"",""time""
""fullscreenenter"",""1"",""1775""
","
",,null,run_exp/static/images/task_images/gems/31.jpg,null,,,,,,,26,,,6,,,,,31,0.840499933,0.838709677,,,,,,,
decision,160,649357,0.0-51.0-2.0,"""event"",""trial"",""time""
""fullscreenenter"",""1"",""1775""
","
","
","""event"",""trial"",""time""
""fullscreenenter"",""1"",""1775""
","
",,385.8,run_exp/static/images/task_images/land.jpg,65,,,,,,,26,,,6,,,,,,,,169876,1,5,FALSE,,,
dig,161,651977,0.0-52.0-0.0,"""event"",""trial"",""time""
""fullscreenenter"",""1"",""1775""
","
","
","""event"",""trial"",""time""
""fullscreenenter"",""1"",""1775""
","
",,,,,,,,,,,,"[{""stimulus"":""run_exp/static/images/task_images/dig.jpg"",""time"":0.09999999403953552},{""stimulus"":""run_exp/static/images/task_images/land.jpg"",""time"":872.9000000059605},{""stimulus"":""run_exp/static/images/task_images/dig.jpg"",""time"":1749.5999999940395}]",[],6,,,,,,,,,,,,,,
harvest,162,652985,0.0-52.0-1.0,"""event"",""trial"",""time""
""fullscreenenter"",""1"",""1775""
","
","
","""event"",""trial"",""time""
""fullscreenenter"",""1"",""1775""
","
",,null,run_exp/static/images/task_images/gems/26.jpg,null,,,,,,,20,,,6,,,,,26,0.786297226,0.769230769,,,,,,,
decision,163,653334,0.0-52.0-2.0,"""event"",""trial"",""time""
""fullscreenenter"",""1"",""1775""
","
","
","""event"",""trial"",""time""
""fullscreenenter"",""1"",""1775""
","
",,348.1,run_exp/static/images/task_images/land.jpg,65,,,,,,,20,,,6,,,,,,,,173853,1,6,FALSE,,,
dig,164,655992,0.0-53.0-0.0,"""event"",""trial"",""time""
""fullscreenenter"",""1"",""1775""
","
","
","""event"",""trial"",""time""
""fullscreenenter"",""1"",""1775""
","
",,,,,,,,,,,,"[{""stimulus"":""run_exp/static/images/task_images/dig.jpg"",""time"":0.20000000298023224},{""stimulus"":""run_exp/static/images/task_images/land.jpg"",""time"":888.0999999940395},{""stimulus"":""run_exp/static/images/task_images/dig.jpg"",""time"":1776.2000000029802}]",[],6,,,,,,,,,,,,,,
harvest,165,657000,0.0-53.0-1.0,"""event"",""trial"",""time""
""fullscreenenter"",""1"",""1775""
","
","
","""event"",""trial"",""time""
""fullscreenenter"",""1"",""1775""
","
",,null,run_exp/static/images/task_images/gems/20.jpg,null,,,,,,,15,,,6,,,,,20,0.730601822,0.75,,,,,,,
decision,166,657303,0.0-53.0-2.0,"""event"",""trial"",""time""
""fullscreenenter"",""1"",""1775""
","
","
","""event"",""trial"",""time""
""fullscreenenter"",""1"",""1775""
","
",,301.2,run_exp/static/images/task_images/land.jpg,65,,,,,,,15,,,6,,,,,,,,177822,1,7,FALSE,,,
dig,167,660008,0.0-54.0-0.0,"""event"",""trial"",""time""
""fullscreenenter"",""1"",""1775""
","
","
","""event"",""trial"",""time""
""fullscreenenter"",""1"",""1775""
","
",,,,,,,,,,,,"[{""stimulus"":""run_exp/static/images/task_images/dig.jpg"",""time"":0.10000000894069672},{""stimulus"":""run_exp/static/images/task_images/land.jpg"",""time"":906.9000000059605},{""stimulus"":""run_exp/static/images/task_images/dig.jpg"",""time"":1809.7999999970198}]",[],6,,,,,,,,,,,,,,
harvest,168,661020,0.0-54.0-1.0,"""event"",""trial"",""time""
""fullscreenenter"",""1"",""1775""
","
","
","""event"",""trial"",""time""
""fullscreenenter"",""1"",""1775""
","
",,null,run_exp/static/images/task_images/gems/15.jpg,null,,,,,,,11,,,6,,,,,15,0.735687587,0.733333333,,,,,,,
decision,169,661436,0.0-54.0-2.0,"""event"",""trial"",""time""
""fullscreenenter"",""1"",""1775""
","
","
","""event"",""trial"",""time""
""fullscreenenter"",""1"",""1775""
","
",,414.3,run_exp/static/images/task_images/land.jpg,76,,,,,,,11,,,6,,,,,,,,181955,1,8,TRUE,,,
travel,170,671033,0.0-55.0-0.0,"""event"",""trial"",""time""
""fullscreenenter"",""1"",""1775""
","
","
","""event"",""trial"",""time""
""fullscreenenter"",""1"",""1775""
","
",,,,,,,,,,,,"[{""stimulus"":""run_exp/static/images/task_images/rocket-01.jpg"",""time"":0.20000000298023224},{""stimulus"":""run_exp/static/images/task_images/rocket-02.jpg"",""time"":1074.7999999970198},{""stimulus"":""run_exp/static/images/task_images/rocket-03.jpg"",""time"":2138.2999999970198},{""stimulus"":""run_exp/static/images/task_images/rocket-04.jpg"",""time"":3202.1000000089407},{""stimulus"":""run_exp/static/images/task_images/rocket-05.jpg"",""time"":4265.29999999702},{""stimulus"":""run_exp/static/images/task_images/rocket-06.jpg"",""time"":5329},{""stimulus"":""run_exp/static/images/task_images/rocket-07.jpg"",""time"":6394.600000008941},{""stimulus"":""run_exp/static/images/task_images/rocket-08.jpg"",""time"":7458.600000008941},{""stimulus"":""run_exp/static/images/task_images/rocket-09.jpg"",""time"":8529.20000000298}]",[],6,,,,,,,,,,,,,,
alien_welcome,171,676041,0.0-55.0-1.0,"""event"",""trial"",""time""
""fullscreenenter"",""1"",""1775""
","
","
","""event"",""trial"",""time""
""fullscreenenter"",""1"",""1775""
","
",,null,run_exp/static/images/task_images/aliens/old_aliens/planet/alien_planet-73.jpg,null,,,,,,,,,,,,,73,"34,2,36,70,3,41,73,37,44,8,71,21,25,46,60,55,22,15,7,35,62,72,52,30,39,14,23,57,31,51,17,42,67,29,20,26,11,54,48,56,19,68,47,80,4",,,,,,,,,,
land,172,676545,0.0-55.0-2.0,"""event"",""trial"",""time""
""fullscreenenter"",""1"",""1775""
","
","
","""event"",""trial"",""time""
""fullscreenenter"",""1"",""1775""
","
",,null,run_exp/static/images/task_images/land.jpg,null,,,,,,,97,,,7,,,,,,,,,,,,,,
dig,173,678552,0.0-55.0-3.0,"""event"",""trial"",""time""
""fullscreenenter"",""1"",""1775""
","
","
","""event"",""trial"",""time""
""fullscreenenter"",""1"",""1775""
","
",,,,,,,,,,,,"[{""stimulus"":""run_exp/static/images/task_images/dig.jpg"",""time"":0.3999999910593033},{""stimulus"":""run_exp/static/images/task_images/land.jpg"",""time"":669.7999999970198},{""stimulus"":""run_exp/static/images/task_images/dig.jpg"",""time"":1340.5}]",[],7,,,,,,,,,,,,,,
harvest,174,679561,0.0-55.0-4.0,"""event"",""trial"",""time""
""fullscreenenter"",""1"",""1775""
","
","
","""event"",""trial"",""time""
""fullscreenenter"",""1"",""1775""
","
",,null,run_exp/static/images/task_images/gems/97.jpg,null,,,,,,,72,,,7,,,,,97,0.74142565,0.742268041,,,,,,,
decision,175,680143,0.0-55.0-5.0,"""event"",""trial"",""time""
""fullscreenenter"",""1"",""1775""
","
","
","""event"",""trial"",""time""
""fullscreenenter"",""1"",""1775""
","
",,580.7,run_exp/static/images/task_images/land.jpg,65,,,,,,,72,,,7,,,,,,,,200662,1,0,FALSE,,,
dig,176,682568,0.0-56.0-0.0,"""event"",""trial"",""time""
""fullscreenenter"",""1"",""1775""
","
","
","""event"",""trial"",""time""
""fullscreenenter"",""1"",""1775""
","
",,,,,,,,,,,,"[{""stimulus"":""run_exp/static/images/task_images/dig.jpg"",""time"":0.20000000298023224},{""stimulus"":""run_exp/static/images/task_images/land.jpg"",""time"":814.9000000059605},{""stimulus"":""run_exp/static/images/task_images/dig.jpg"",""time"":1616.2999999970198}]",[],7,,,,,,,,,,,,,,
harvest,177,683577,0.0-56.0-1.0,"""event"",""trial"",""time""
""fullscreenenter"",""1"",""1775""
","
","
","""event"",""trial"",""time""
""fullscreenenter"",""1"",""1775""
","
",,null,run_exp/static/images/task_images/gems/72.jpg,null,,,,,,,60,,,7,,,,,72,0.828067433,0.833333333,,,,,,,
decision,178,684012,0.0-56.0-2.0,"""event"",""trial"",""time""
""fullscreenenter"",""1"",""1775""
","
","
","""event"",""trial"",""time""
""fullscreenenter"",""1"",""1775""
","
",,433.4,run_exp/static/images/task_images/land.jpg,65,,,,,,,60,,,7,,,,,,,,204531,1,1,FALSE,,,
dig,179,686584,0.0-57.0-0.0,"""event"",""trial"",""time""
""fullscreenenter"",""1"",""1775""
","
","
","""event"",""trial"",""time""
""fullscreenenter"",""1"",""1775""
","
",,,,,,,,,,,,"[{""stimulus"":""run_exp/static/images/task_images/dig.jpg"",""time"":0.10000000894069672},{""stimulus"":""run_exp/static/images/task_images/land.jpg"",""time"":858.8000000119209},{""stimulus"":""run_exp/static/images/task_images/dig.jpg"",""time"":1715.4000000059605}]",[],7,,,,,,,,,,,,,,
harvest,180,687593,0.0-57.0-1.0,"""event"",""trial"",""time""
""fullscreenenter"",""1"",""1775""
","
","
","""event"",""trial"",""time""
""fullscreenenter"",""1"",""1775""
","
",,null,run_exp/static/images/task_images/gems/60.jpg,null,,,,,,,53,,,7,,,,,60,0.884896927,0.883333333,,,,,,,
decision,181,688210,0.0-57.0-2.0,"""event"",""trial"",""time""
""fullscreenenter"",""1"",""1775""
","
","
","""event"",""trial"",""time""
""fullscreenenter"",""1"",""1775""
","
",,615.4,run_exp/static/images/task_images/land.jpg,65,,,,,,,53,,,7,,,,,,,,208730,1,2,FALSE,,,
dig,182,690601,0.0-58.0-0.0,"""event"",""trial"",""time""
""fullscreenenter"",""1"",""1775""
","
","
","""event"",""trial"",""time""
""fullscreenenter"",""1"",""1775""
","
",,,,,,,,,,,,"[{""stimulus"":""run_exp/static/images/task_images/dig.jpg"",""time"":0.09999999403953552},{""stimulus"":""run_exp/static/images/task_images/land.jpg"",""time"":804},{""stimulus"":""run_exp/static/images/task_images/dig.jpg"",""time"":1596.5}]",[],7,,,,,,,,,,,,,,
harvest,183,691609,0.0-58.0-1.0,"""event"",""trial"",""time""
""fullscreenenter"",""1"",""1775""
","
","
","""event"",""trial"",""time""
""fullscreenenter"",""1"",""1775""
","
",,null,run_exp/static/images/task_images/gems/53.jpg,null,,,,,,,44,,,7,,,,,53,0.834229282,0.830188679,,,,,,,
decision,184,693204,0.0-58.0-2.0,"""event"",""trial"",""time""
""fullscreenenter"",""1"",""1775""
","
","
","""event"",""trial"",""time""
""fullscreenenter"",""1"",""1775""
","
",,1593.6,run_exp/static/images/task_images/land.jpg,65,,,,,,,44,,,7,,,,,,,,213723,1,3,FALSE,,,
dig,185,694617,0.0-59.0-0.0,"""event"",""trial"",""time""
""fullscreenenter"",""1"",""1775""
","
","
","""event"",""trial"",""time""
""fullscreenenter"",""1"",""1775""
","
",,,,,,,,,,,,"[{""stimulus"":""run_exp/static/images/task_images/dig.jpg"",""time"":0.10000000894069672},{""stimulus"":""run_exp/static/images/task_images/land.jpg"",""time"":475.29999999701977},{""stimulus"":""run_exp/static/images/task_images/dig.jpg"",""time"":939}]",[],7,,,,,,,,,,,,,,
harvest,186,695625,0.0-59.0-1.0,"""event"",""trial"",""time""
""fullscreenenter"",""1"",""1775""
","
","
","""event"",""trial"",""time""
""fullscreenenter"",""1"",""1775""
","
",,null,run_exp/static/images/task_images/gems/44.jpg,null,,,,,,,33,,,7,,,,,44,0.739691671,0.75,,,,,,,
decision,187,696017,0.0-59.0-2.0,"""event"",""trial"",""time""
""fullscreenenter"",""1"",""1775""
","
","
","""event"",""trial"",""time""
""fullscreenenter"",""1"",""1775""
","
",,391.1,run_exp/static/images/task_images/land.jpg,65,,,,,,,33,,,7,,,,,,,,216536,1,4,FALSE,,,
dig,188,698633,0.0-60.0-0.0,"""event"",""trial"",""time""
""fullscreenenter"",""1"",""1775""
","
","
","""event"",""trial"",""time""
""fullscreenenter"",""1"",""1775""
","
",,,,,,,,,,,,"[{""stimulus"":""run_exp/static/images/task_images/dig.jpg"",""time"":0.20000000298023224},{""stimulus"":""run_exp/static/images/task_images/land.jpg"",""time"":876.7999999970198},{""stimulus"":""run_exp/static/images/task_images/dig.jpg"",""time"":1740.5}]",[],7,,,,,,,,,,,,,,
harvest,189,699641,0.0-60.0-1.0,"""event"",""trial"",""time""
""fullscreenenter"",""1"",""1775""
","
","
","""event"",""trial"",""time""
""fullscreenenter"",""1"",""1775""
","
",,null,run_exp/static/images/task_images/gems/33.jpg,null,,,,,,,27,,,7,,,,,33,0.810215369,0.818181818,,,,,,,
decision,190,699967,0.0-60.0-2.0,"""event"",""trial"",""time""
""fullscreenenter"",""1"",""1775""
","
","
","""event"",""trial"",""time""
""fullscreenenter"",""1"",""1775""
","
",,324.1,run_exp/static/images/task_images/land.jpg,65,,,,,,,27,,,7,,,,,,,,220486,1,5,FALSE,,,
dig,191,702650,0.0-61.0-0.0,"""event"",""trial"",""time""
""fullscreenenter"",""1"",""1775""
","
","
","""event"",""trial"",""time""
""fullscreenenter"",""1"",""1775""
","
",,,,,,,,,,,,"[{""stimulus"":""run_exp/static/images/task_images/dig.jpg"",""time"":0.20000000298023224},{""stimulus"":""run_exp/static/images/task_images/land.jpg"",""time"":895.9000000059605},{""stimulus"":""run_exp/static/images/task_images/dig.jpg"",""time"":1791.5999999940395}]",[],7,,,,,,,,,,,,,,
harvest,192,703657,0.0-61.0-1.0,"""event"",""trial"",""time""
""fullscreenenter"",""1"",""1775""
","
","
","""event"",""trial"",""time""
""fullscreenenter"",""1"",""1775""
","
",,null,run_exp/static/images/task_images/gems/27.jpg,null,,,,,,,20,,,7,,,,,27,0.75643901,0.740740741,,,,,,,
decision,193,703912,0.0-61.0-2.0,"""event"",""trial"",""time""
""fullscreenenter"",""1"",""1775""
","
","
","""event"",""trial"",""time""
""fullscreenenter"",""1"",""1775""
","
",,253.2,run_exp/static/images/task_images/land.jpg,65,,,,,,,20,,,7,,,,,,,,224431,1,6,FALSE,,,
dig,194,706663,0.0-62.0-0.0,"""event"",""trial"",""time""
""fullscreenenter"",""1"",""1775""
","
","
","""event"",""trial"",""time""
""fullscreenenter"",""1"",""1775""
","
",,,,,,,,,,,,"[{""stimulus"":""run_exp/static/images/task_images/dig.jpg"",""time"":0.20000000298023224},{""stimulus"":""run_exp/static/images/task_images/land.jpg"",""time"":917.5999999940395},{""stimulus"":""run_exp/static/images/task_images/dig.jpg"",""time"":1838.2999999970198}]",[],7,,,,,,,,,,,,,,
harvest,195,707672,0.0-62.0-1.0,"""event"",""trial"",""time""
""fullscreenenter"",""1"",""1775""
","
","
","""event"",""trial"",""time""
""fullscreenenter"",""1"",""1775""
","
",,null,run_exp/static/images/task_images/gems/20.jpg,null,,,,,,,16,,,7,,,,,20,0.813181512,0.8,,,,,,,
decision,196,708009,0.0-62.0-2.0,"""event"",""trial"",""time""
""fullscreenenter"",""1"",""1775""
","
","
","""event"",""trial"",""time""
""fullscreenenter"",""1"",""1775""
","
",,334.9,run_exp/static/images/task_images/land.jpg,76,,,,,,,16,,,7,,,,,,,,228528,1,7,TRUE,,,
travel,197,717672,0.0-63.0-0.0,"""event"",""trial"",""time""
""fullscreenenter"",""1"",""1775""
","
","
","""event"",""trial"",""time""
""fullscreenenter"",""1"",""1775""
","
",,,,,,,,,,,,"[{""stimulus"":""run_exp/static/images/task_images/rocket-01.jpg"",""time"":0.09999999403953552},{""stimulus"":""run_exp/static/images/task_images/rocket-02.jpg"",""time"":1076.5999999940395},{""stimulus"":""run_exp/static/images/task_images/rocket-03.jpg"",""time"":2149.3999999910593},{""stimulus"":""run_exp/static/images/task_images/rocket-04.jpg"",""time"":3221.8999999910593},{""stimulus"":""run_exp/static/images/task_images/rocket-05.jpg"",""time"":4300.699999988079},{""stimulus"":""run_exp/static/images/task_images/rocket-06.jpg"",""time"":5372.29999999702},{""stimulus"":""run_exp/static/images/task_images/rocket-07.jpg"",""time"":6445.899999991059},{""stimulus"":""run_exp/static/images/task_images/rocket-08.jpg"",""time"":7517.899999991059},{""stimulus"":""run_exp/static/images/task_images/rocket-09.jpg"",""time"":8589.79999999702}]",[],7,,,,,,,,,,,,,,
alien_welcome,198,722680,0.0-63.0-1.0,"""event"",""trial"",""time""
""fullscreenenter"",""1"",""1775""
","
","
","""event"",""trial"",""time""
""fullscreenenter"",""1"",""1775""
","
",,null,run_exp/static/images/task_images/aliens/old_aliens/planet/alien_planet-37.jpg,null,,,,,,,,,,,,,37,"34,2,36,70,3,41,73,37,44,8,71,21,25,46,60,55,22,15,7,35,62,72,52,30,39,14,23,57,31,51,17,42,67,29,20,26,11,54,48,56,19,68,47,80,4",,,,,,,,,,
land,199,723185,0.0-63.0-2.0,"""event"",""trial"",""time""
""fullscreenenter"",""1"",""1775""
","
","
","""event"",""trial"",""time""
""fullscreenenter"",""1"",""1775""
","
",,null,run_exp/static/images/task_images/land.jpg,null,,,,,,,94,,,8,,,,,,,,,,,,,,
dig,200,725192,0.0-63.0-3.0,"""event"",""trial"",""time""
""fullscreenenter"",""1"",""1775""
","
","
","""event"",""trial"",""time""
""fullscreenenter"",""1"",""1775""
","
",,,,,,,,,,,,"[{""stimulus"":""run_exp/static/images/task_images/dig.jpg"",""time"":0.29999999701976776},{""stimulus"":""run_exp/static/images/task_images/land.jpg"",""time"":670.5999999940395},{""stimulus"":""run_exp/static/images/task_images/dig.jpg"",""time"":1342.5}]",[],8,,,,,,,,,,,,,,
harvest,201,726200,0.0-63.0-4.0,"""event"",""trial"",""time""
""fullscreenenter"",""1"",""1775""
","
","
","""event"",""trial"",""time""
""fullscreenenter"",""1"",""1775""
","
",,null,run_exp/static/images/task_images/gems/94.jpg,null,,,,,,,75,,,8,,,,,94,0.795562404,0.79787234,,,,,,,
decision,202,729209,0.0-63.0-5.0,"""event"",""trial"",""time""
""fullscreenenter"",""1"",""1775""
","
","
","""event"",""trial"",""time""
""fullscreenenter"",""1"",""1775""
","
",,null,run_exp/static/images/task_images/land.jpg,null,,,,,,,75,,,8,,,,,,,,249728,1,0,FALSE,,,
time_out,203,731217,0.0-64.0-0.0,"""event"",""trial"",""time""
""fullscreenenter"",""1"",""1775""
","
","
","""event"",""trial"",""time""
""fullscreenenter"",""1"",""1775""
","
",,null,run_exp/static/images/task_images/time_out.jpg,null,,,,,,,75,,,,,,,,,,,,,,,,,
decision,204,731331,0.0-64.0-1.0,"""event"",""trial"",""time""
""fullscreenenter"",""1"",""1775""
","
","
","""event"",""trial"",""time""
""fullscreenenter"",""1"",""1775""
","
",,112.6,run_exp/static/images/task_images/land.jpg,65,,,,,,,75,,,8,,,,,,,,251850,1,0,FALSE,,,
dig,205,734225,0.0-65.0-0.0,"""event"",""trial"",""time""
""fullscreenenter"",""1"",""1775""
","
","
","""event"",""trial"",""time""
""fullscreenenter"",""1"",""1775""
","
",,,,,,,,,,,,"[{""stimulus"":""run_exp/static/images/task_images/dig.jpg"",""time"":0.10000000894069672},{""stimulus"":""run_exp/static/images/task_images/land.jpg"",""time"":970.2000000029802},{""stimulus"":""run_exp/static/images/task_images/dig.jpg"",""time"":1931.6000000089407}]",[],8,,,,,,,,,,,,,,
harvest,206,735233,0.0-65.0-1.0,"""event"",""trial"",""time""
""fullscreenenter"",""1"",""1775""
","
","
","""event"",""trial"",""time""
""fullscreenenter"",""1"",""1775""
","
",,null,run_exp/static/images/task_images/gems/75.jpg,null,,,,,,,67,,,8,,,,,75,0.89580434,0.893333333,,,,,,,
decision,207,735696,0.0-65.0-2.0,"""event"",""trial"",""time""
""fullscreenenter"",""1"",""1775""
","
","
","""event"",""trial"",""time""
""fullscreenenter"",""1"",""1775""
","
",,462.1,run_exp/static/images/task_images/land.jpg,65,,,,,,,67,,,8,,,,,,,,256215,1,1,FALSE,,,
dig,208,738241,0.0-66.0-0.0,"""event"",""trial"",""time""
""fullscreenenter"",""1"",""1775""
","
","
","""event"",""trial"",""time""
""fullscreenenter"",""1"",""1775""
","
",,,,,,,,,,,,"[{""stimulus"":""run_exp/static/images/task_images/dig.jpg"",""time"":0.20000000298023224},{""stimulus"":""run_exp/static/images/task_images/land.jpg"",""time"":853.9000000059605},{""stimulus"":""run_exp/static/images/task_images/dig.jpg"",""time"":1692.7000000029802}]",[],8,,,,,,,,,,,,,,
harvest,209,739248,0.0-66.0-1.0,"""event"",""trial"",""time""
""fullscreenenter"",""1"",""1775""
","
","
","""event"",""trial"",""time""
""fullscreenenter"",""1"",""1775""
","
",,null,run_exp/static/images/task_images/gems/67.jpg,null,,,,,,,48,,,8,,,,,67,0.716066453,0.71641791,,,,,,,
decision,210,739848,0.0-66.0-2.0,"""event"",""trial"",""time""
""fullscreenenter"",""1"",""1775""
","
","
","""event"",""trial"",""time""
""fullscreenenter"",""1"",""1775""
","
",,599,run_exp/static/images/task_images/land.jpg,65,,,,,,,48,,,8,,,,,,,,260367,1,2,FALSE,,,
dig,211,742256,0.0-67.0-0.0,"""event"",""trial"",""time""
""fullscreenenter"",""1"",""1775""
","
","
","""event"",""trial"",""time""
""fullscreenenter"",""1"",""1775""
","
",,,,,,,,,,,,"[{""stimulus"":""run_exp/static/images/task_images/dig.jpg"",""time"":0.10000000894069672},{""stimulus"":""run_exp/static/images/task_images/land.jpg"",""time"":808.1000000089407},{""stimulus"":""run_exp/static/images/task_images/dig.jpg"",""time"":1606.5}]",[],8,,,,,,,,,,,,,,
harvest,212,743264,0.0-67.0-1.0,"""event"",""trial"",""time""
""fullscreenenter"",""1"",""1775""
","
","
","""event"",""trial"",""time""
""fullscreenenter"",""1"",""1775""
","
",,null,run_exp/static/images/task_images/gems/48.jpg,null,,,,,,,41,,,8,,,,,48,0.847162236,0.854166667,,,,,,,
decision,213,743676,0.0-67.0-2.0,"""event"",""trial"",""time""
""fullscreenenter"",""1"",""1775""
","
","
","""event"",""trial"",""time""
""fullscreenenter"",""1"",""1775""
","
",,410.2,run_exp/static/images/task_images/land.jpg,65,,,,,,,41,,,8,,,,,,,,264195,1,3,FALSE,,,
dig,214,746273,0.0-68.0-0.0,"""event"",""trial"",""time""
""fullscreenenter"",""1"",""1775""
","
","
","""event"",""trial"",""time""
""fullscreenenter"",""1"",""1775""
","
",,,,,,,,,,,,"[{""stimulus"":""run_exp/static/images/task_images/dig.jpg"",""time"":0.10000000894069672},{""stimulus"":""run_exp/static/images/task_images/land.jpg"",""time"":866.2999999970198},{""stimulus"":""run_exp/static/images/task_images/dig.jpg"",""time"":1728.9000000059605}]",[],8,,,,,,,,,,,,,,
harvest,215,747281,0.0-68.0-1.0,"""event"",""trial"",""time""
""fullscreenenter"",""1"",""1775""
","
","
","""event"",""trial"",""time""
""fullscreenenter"",""1"",""1775""
","
",,null,run_exp/static/images/task_images/gems/41.jpg,null,,,,,,,33,,,8,,,,,41,0.814442007,0.804878049,,,,,,,
decision,216,748813,0.0-68.0-2.0,"""event"",""trial"",""time""
""fullscreenenter"",""1"",""1775""
","
","
","""event"",""trial"",""time""
""fullscreenenter"",""1"",""1775""
","
",,1530.6,run_exp/static/images/task_images/land.jpg,65,,,,,,,33,,,8,,,,,,,,269332,1,4,FALSE,,,
dig,217,750288,0.0-69.0-0.0,"""event"",""trial"",""time""
""fullscreenenter"",""1"",""1775""
","
","
","""event"",""trial"",""time""
""fullscreenenter"",""1"",""1775""
","
",,,,,,,,,,,,"[{""stimulus"":""run_exp/static/images/task_images/dig.jpg"",""time"":0.10000000894069672},{""stimulus"":""run_exp/static/images/task_images/land.jpg"",""time"":497.20000000298023},{""stimulus"":""run_exp/static/images/task_images/dig.jpg"",""time"":984.4000000059605}]",[],8,,,,,,,,,,,,,,
harvest,218,751297,0.0-69.0-1.0,"""event"",""trial"",""time""
""fullscreenenter"",""1"",""1775""
","
","
","""event"",""trial"",""time""
""fullscreenenter"",""1"",""1775""
","
",,null,run_exp/static/images/task_images/gems/33.jpg,null,,,,,,,27,,,8,,,,,33,0.814612924,0.818181818,,,,,,,
decision,219,751752,0.0-69.0-2.0,"""event"",""trial"",""time""
""fullscreenenter"",""1"",""1775""
","
","
","""event"",""trial"",""time""
""fullscreenenter"",""1"",""1775""
","
",,453.3,run_exp/static/images/task_images/land.jpg,76,,,,,,,27,,,8,,,,,,,,272271,1,5,TRUE,,,
travel,220,761305,0.0-70.0-0.0,"""event"",""trial"",""time""
""fullscreenenter"",""1"",""1775""
","
","
","""event"",""trial"",""time""
""fullscreenenter"",""1"",""1775""
","
",,,,,,,,,,,,"[{""stimulus"":""run_exp/static/images/task_images/rocket-01.jpg"",""time"":0.10000000894069672},{""stimulus"":""run_exp/static/images/task_images/rocket-02.jpg"",""time"":1061.7000000029802},{""stimulus"":""run_exp/static/images/task_images/rocket-03.jpg"",""time"":2125.9000000059605},{""stimulus"":""run_exp/static/images/task_images/rocket-04.jpg"",""time"":3189.6000000089407},{""stimulus"":""run_exp/static/images/task_images/rocket-05.jpg"",""time"":4249.600000008941},{""stimulus"":""run_exp/static/images/task_images/rocket-06.jpg"",""time"":5309.5},{""stimulus"":""run_exp/static/images/task_images/rocket-07.jpg"",""time"":6367.5},{""stimulus"":""run_exp/static/images/task_images/rocket-08.jpg"",""time"":7429.9000000059605},{""stimulus"":""run_exp/static/images/task_images/rocket-09.jpg"",""time"":8484.70000000298}]",[],8,,,,,,,,,,,,,,
alien_welcome,221,766314,0.0-70.0-1.0,"""event"",""trial"",""time""
""fullscreenenter"",""1"",""1775""
","
","
","""event"",""trial"",""time""
""fullscreenenter"",""1"",""1775""
","
",,null,run_exp/static/images/task_images/aliens/old_aliens/planet/alien_planet-44.jpg,null,,,,,,,,,,,,,44,"34,2,36,70,3,41,73,37,44,8,71,21,25,46,60,55,22,15,7,35,62,72,52,30,39,14,23,57,31,51,17,42,67,29,20,26,11,54,48,56,19,68,47,80,4",,,,,,,,,,
land,222,766825,0.0-70.0-2.0,"""event"",""trial"",""time""
""fullscreenenter"",""1"",""1775""
","
","
","""event"",""trial"",""time""
""fullscreenenter"",""1"",""1775""
","
",,null,run_exp/static/images/task_images/land.jpg,null,,,,,,,98,,,9,,,,,,,,,,,,,,
dig,223,768836,0.0-70.0-3.0,"""event"",""trial"",""time""
""fullscreenenter"",""1"",""1775""
","
","
","""event"",""trial"",""time""
""fullscreenenter"",""1"",""1775""
","
",,,,,,,,,,,,"[{""stimulus"":""run_exp/static/images/task_images/dig.jpg"",""time"":0.4000000059604645},{""stimulus"":""run_exp/static/images/task_images/land.jpg"",""time"":670},{""stimulus"":""run_exp/static/images/task_images/dig.jpg"",""time"":1341.0999999940395}]",[],9,,,,,,,,,,,,,,
harvest,224,769840,0.0-70.0-4.0,"""event"",""trial"",""time""
""fullscreenenter"",""1"",""1775""
","
","
","""event"",""trial"",""time""
""fullscreenenter"",""1"",""1775""
","
",,null,run_exp/static/images/task_images/gems/98.jpg,null,,,,,,,21,,,9,,,,,98,0.214274512,0.214285714,,,,,,,
decision,225,770662,0.0-70.0-5.0,"""event"",""trial"",""time""
""fullscreenenter"",""1"",""1775""
","
","
","""event"",""trial"",""time""
""fullscreenenter"",""1"",""1775""
","
",,820.8,run_exp/static/images/task_images/land.jpg,65,,,,,,,21,,,9,,,,,,,,291181,1,0,FALSE,,,
dig,226,772851,0.0-71.0-0.0,"""event"",""trial"",""time""
""fullscreenenter"",""1"",""1775""
","
","
","""event"",""trial"",""time""
""fullscreenenter"",""1"",""1775""
","
",,,,,,,,,,,,"[{""stimulus"":""run_exp/static/images/task_images/dig.jpg"",""time"":0.19999998807907104},{""stimulus"":""run_exp/static/images/task_images/land.jpg"",""time"":735.5},{""stimulus"":""run_exp/static/images/task_images/dig.jpg"",""time"":1458}]",[],9,,,,,,,,,,,,,,
harvest,227,773857,0.0-71.0-1.0,"""event"",""trial"",""time""
""fullscreenenter"",""1"",""1775""
","
","
","""event"",""trial"",""time""
""fullscreenenter"",""1"",""1775""
","
",,null,run_exp/static/images/task_images/gems/21.jpg,null,,,,,,,4,,,9,,,,,21,0.171546382,0.19047619,,,,,,,
decision,228,774293,0.0-71.0-2.0,"""event"",""trial"",""time""
""fullscreenenter"",""1"",""1775""
","
","
","""event"",""trial"",""time""
""fullscreenenter"",""1"",""1775""
","
",,434.8,run_exp/static/images/task_images/land.jpg,76,,,,,,,4,,,9,,,,,,,,294812,1,1,TRUE,,,
travel,229,783856,0.0-72.0-0.0,"""event"",""trial"",""time""
""fullscreenenter"",""1"",""1775""
","
","
","""event"",""trial"",""time""
""fullscreenenter"",""1"",""1775""
","
",,,,,,,,,,,,"[{""stimulus"":""run_exp/static/images/task_images/rocket-01.jpg"",""time"":0.19999998807907104},{""stimulus"":""run_exp/static/images/task_images/rocket-02.jpg"",""time"":1063.699999988079},{""stimulus"":""run_exp/static/images/task_images/rocket-03.jpg"",""time"":2129.2999999970198},{""stimulus"":""run_exp/static/images/task_images/rocket-04.jpg"",""time"":3192.5999999940395},{""stimulus"":""run_exp/static/images/task_images/rocket-05.jpg"",""time"":4260.5},{""stimulus"":""run_exp/static/images/task_images/rocket-06.jpg"",""time"":5312.0999999940395},{""stimulus"":""run_exp/static/images/task_images/rocket-07.jpg"",""time"":6375.5999999940395},{""stimulus"":""run_exp/static/images/task_images/rocket-08.jpg"",""time"":7440.899999991059},{""stimulus"":""run_exp/static/images/task_images/rocket-09.jpg"",""time"":8503.5}]",[],9,,,,,,,,,,,,,,
alien_welcome,230,788865,0.0-72.0-1.0,"""event"",""trial"",""time""
""fullscreenenter"",""1"",""1775""
","
","
","""event"",""trial"",""time""
""fullscreenenter"",""1"",""1775""
","
",,null,run_exp/static/images/task_images/aliens/old_aliens/planet/alien_planet-8.jpg,null,,,,,,,,,,,,,8,"34,2,36,70,3,41,73,37,44,8,71,21,25,46,60,55,22,15,7,35,62,72,52,30,39,14,23,57,31,51,17,42,67,29,20,26,11,54,48,56,19,68,47,80,4",,,,,,,,,,
land,231,789369,0.0-72.0-2.0,"""event"",""trial"",""time""
""fullscreenenter"",""1"",""1775""
","
","
","""event"",""trial"",""time""
""fullscreenenter"",""1"",""1775""
","
",,null,run_exp/static/images/task_images/land.jpg,null,,,,,,,100,,,10,,,,,,,,,,,,,,
dig,232,791377,0.0-72.0-3.0,"""event"",""trial"",""time""
""fullscreenenter"",""1"",""1775""
","
","
","""event"",""trial"",""time""
""fullscreenenter"",""1"",""1775""
","
",,,,,,,,,,,,"[{""stimulus"":""run_exp/static/images/task_images/dig.jpg"",""time"":0.4000000059604645},{""stimulus"":""run_exp/static/images/task_images/land.jpg"",""time"":670.5999999940395},{""stimulus"":""run_exp/static/images/task_images/dig.jpg"",""time"":1341.9000000059605}]",[],10,,,,,,,,,,,,,,
harvest,233,792384,0.0-72.0-4.0,"""event"",""trial"",""time""
""fullscreenenter"",""1"",""1775""
","
","
","""event"",""trial"",""time""
""fullscreenenter"",""1"",""1775""
","
",,null,run_exp/static/images/task_images/gems/100.jpg,null,,,,,,,21,,,10,,,,,100,0.207047185,0.21,,,,,,,
decision,234,792782,0.0-72.0-5.0,"""event"",""trial"",""time""
""fullscreenenter"",""1"",""1775""
","
","
","""event"",""trial"",""time""
""fullscreenenter"",""1"",""1775""
","
",,396.9,run_exp/static/images/task_images/land.jpg,65,,,,,,,21,,,10,,,,,,,,313301,1,0,TRUE,,,
end_of_block_continue,235,798266,0.0-73.0-0.0,"""event"",""trial"",""time""
""fullscreenenter"",""1"",""1775""
","
","
","""event"",""trial"",""time""
""fullscreenenter"",""1"",""1775""
","
",,5481.4,run_exp/static/audio/clip_32_block_end.m4a,,,,,,,0,,,,,,,,,,,,,,,,,,
alien_welcome,236,803272,0.0-74.0-0.0,"""event"",""trial"",""time""
""fullscreenenter"",""1"",""1775""
","
","
","""event"",""trial"",""time""
""fullscreenenter"",""1"",""1775""
","
",,null,run_exp/static/images/task_images/aliens/old_aliens/planet/alien_planet-71.jpg,null,,,,,,,,,,,,,71,"34,2,36,70,3,41,73,37,44,8,71,21,25,46,60,55,22,15,7,35,62,72,52,30,39,14,23,57,31,51,17,42,67,29,20,26,11,54,48,56,19,68,47,80,4",,,,,,,,,,
land,237,803777,0.0-74.0-1.0,"""event"",""trial"",""time""
""fullscreenenter"",""1"",""1775""
","
","
","""event"",""trial"",""time""
""fullscreenenter"",""1"",""1775""
","
",,null,run_exp/static/images/task_images/land.jpg,null,,,,,,,87,,,11,,,,,,,,,,,,,,
dig,238,805785,0.0-74.0-2.0,"""event"",""trial"",""time""
""fullscreenenter"",""1"",""1775""
","
","
","""event"",""trial"",""time""
""fullscreenenter"",""1"",""1775""
","
",,,,,,,,,,,,"[{""stimulus"":""run_exp/static/images/task_images/dig.jpg"",""time"":0.3999999910593033},{""stimulus"":""run_exp/static/images/task_images/land.jpg"",""time"":670.5},{""stimulus"":""run_exp/static/images/task_images/dig.jpg"",""time"":1341.7999999970198}]",[],11,,,,,,,,,,,,,,
harvest,239,806793,0.0-74.0-3.0,"""event"",""trial"",""time""
""fullscreenenter"",""1"",""1775""
","
","
","""event"",""trial"",""time""
""fullscreenenter"",""1"",""1775""
","
",,null,run_exp/static/images/task_images/gems/87.jpg,null,,,,,,,20,,,11,,,,,87,0.224240561,0.229885057,,,,,,,
decision,240,807393,0.0-74.0-4.0,"""event"",""trial"",""time""
""fullscreenenter"",""1"",""1775""
","
","
","""event"",""trial"",""time""
""fullscreenenter"",""1"",""1775""
","
",,598.5,run_exp/static/images/task_images/land.jpg,65,,,,,,,20,,,11,,,,,,,,9125,2,0,FALSE,,,
dig,241,809800,0.0-75.0-0.0,"""event"",""trial"",""time""
""fullscreenenter"",""1"",""1775""
","
","
","""event"",""trial"",""time""
""fullscreenenter"",""1"",""1775""
","
",,,,,,,,,,,,"[{""stimulus"":""run_exp/static/images/task_images/dig.jpg"",""time"":0.09999999403953552},{""stimulus"":""run_exp/static/images/task_images/land.jpg"",""time"":805.0999999940395},{""stimulus"":""run_exp/static/images/task_images/dig.jpg"",""time"":1604}]",[],11,,,,,,,,,,,,,,
harvest,242,810808,0.0-75.0-1.0,"""event"",""trial"",""time""
""fullscreenenter"",""1"",""1775""
","
","
","""event"",""trial"",""time""
""fullscreenenter"",""1"",""1775""
","
",,null,run_exp/static/images/task_images/gems/20.jpg,null,,,,,,,3,,,11,,,,,20,0.138844668,0.15,,,,,,,
decision,243,811151,0.0-75.0-2.0,"""event"",""trial"",""time""
""fullscreenenter"",""1"",""1775""
","
","
","""event"",""trial"",""time""
""fullscreenenter"",""1"",""1775""
","
",,340.8,run_exp/static/images/task_images/land.jpg,76,,,,,,,3,,,11,,,,,,,,12883,2,1,TRUE,,,
travel,244,820816,0.0-76.0-0.0,"""event"",""trial"",""time""
""fullscreenenter"",""1"",""1775""
","
","
","""event"",""trial"",""time""
""fullscreenenter"",""1"",""1775""
","
",,,,,,,,,,,,"[{""stimulus"":""run_exp/static/images/task_images/rocket-01.jpg"",""time"":0.19999998807907104},{""stimulus"":""run_exp/static/images/task_images/rocket-02.jpg"",""time"":1079.2999999970198},{""stimulus"":""run_exp/static/images/task_images/rocket-03.jpg"",""time"":2150.8999999910593},{""stimulus"":""run_exp/static/images/task_images/rocket-04.jpg"",""time"":3221.8999999910593},{""stimulus"":""run_exp/static/images/task_images/rocket-05.jpg"",""time"":4295},{""stimulus"":""run_exp/static/images/task_images/rocket-06.jpg"",""time"":5373.79999999702},{""stimulus"":""run_exp/static/images/task_images/rocket-07.jpg"",""time"":6447.29999999702},{""stimulus"":""run_exp/static/images/task_images/rocket-08.jpg"",""time"":7518.399999991059},{""stimulus"":""run_exp/static/images/task_images/rocket-09.jpg"",""time"":8591.199999988079}]",[],11,,,,,,,,,,,,,,
alien_welcome,245,825825,0.0-76.0-1.0,"""event"",""trial"",""time""
""fullscreenenter"",""1"",""1775""
","
","
","""event"",""trial"",""time""
""fullscreenenter"",""1"",""1775""
","
",,null,run_exp/static/images/task_images/aliens/old_aliens/planet/alien_planet-21.jpg,null,,,,,,,,,,,,,21,"34,2,36,70,3,41,73,37,44,8,71,21,25,46,60,55,22,15,7,35,62,72,52,30,39,14,23,57,31,51,17,42,67,29,20,26,11,54,48,56,19,68,47,80,4",,,,,,,,,,
land,246,826328,0.0-76.0-2.0,"""event"",""trial"",""time""
""fullscreenenter"",""1"",""1775""
","
","
","""event"",""trial"",""time""
""fullscreenenter"",""1"",""1775""
","
",,null,run_exp/static/images/task_images/land.jpg,null,,,,,,,107,,,12,,,,,,,,,,,,,,
dig,247,828336,0.0-76.0-3.0,"""event"",""trial"",""time""
""fullscreenenter"",""1"",""1775""
","
","
