trial_type,trial_index,time_elapsed,internal_node_id,success,rt,stimulus,key_press,prompt,subject_id,age,gender,button_pressed,next_reward,animation_sequence,responses,planet,curr_prac_trial,n_prac_rounds,alien,aliens,reward_received,decay_rate_actual,decay_rate_exp,time_in_block,block_num,prt,last_trial_on_planet,button_html,bonus,num_failures
pavlovia,0,5,0.0-0.0,,,,,,,,,,,,,,,,,,,,,,,,,,,
fullscreen,1,31681,0.0-1.0,TRUE,,,,,,,,,,,,,,,,,,,,,,,,,,
instruc_welcome,2,41418,0.0-2.0,,null,run_exp/static/audio/clip_1_welcome.m4a,null,"<p>Howdy! In this experiment, you’ll be an explorer traveling through space to collect space treasure.</p><p>Your mission is to collect as much treasure as possible.</p><br><br><p><img src='run_exp/static/images/task_images/opening_img-01.jpg' height='300' width='auto'></p>",yLNyOKoVGca8bOH_a5Ke5UddwllDBGZ_MLRP_08SVcK695DdDpWu,8.29,male,,,,,,,,,,,,,,,,,,,
audio-keyboard-response,3,57992,0.0-3.0,,null,run_exp/static/audio/clip_2_move.m4a,null,,,,,,,,,,,,,,,,,,,,,,,
welcome_dec,4,66214,0.0-4.0,,8219.7,"<p>Howdy! In this experiment, you’ll be an explorer traveling through space to collect space treasure.</p><p>Your mission is to collect as much treasure as possible.</p><br><br><p><img src='run_exp/static/images/task_images/opening_img-01.jpg' height='300' width='auto'></p>",,,,,,1,,,,,,,,,,,,,,,,,,
html-keyboard-response,5,66652,0.0-5.0,,436.22,"<p>Howdy! In this experiment, you’ll be an explorer traveling through space to collect space treasure.</p><p>Your mission is to collect as much treasure as possible.</p><br><br><p><img src='run_exp/static/images/task_images/opening_img-01.jpg' height='300' width='auto'></p><button class=""jspsych-html-btn-unchosen""><img src=""run_exp/static/images/task_images/planet-01.jpg"" height=""50""></button><button class=""jspsych-html-btn-chosen""><img src=""run_exp/static/images/task_images/planet-02.jpg"" height=""50""></button><p><b>[press the space bar to lock in your answer]<b><br></p>",32,,,,,,,,,,,,,,,,,,,,,,,
instruc_goal,6,76702,0.0-6.0-0.0,,null,run_exp/static/audio/clip_3_goal.m4a,null,"<p> As a space explorer, you’ll visit different planets to dig for space treasure, these pink gems.</p> <p> The more treasure you dig up, the more bonus money you’ll win! </p><br><br><p><img src='run_exp/static/images/task_images/pink_gem.jpg' height='300' width='auto'></p>",,,,,,,,,,,,,,,,,,,,,,
instruc_goal,7,78570,0.0-6.0-1.0,,1866.74,"<p> As a space explorer, you’ll visit different planets to dig for space treasure, these pink gems.</p> <p> The more treasure you dig up, the more bonus money you’ll win! </p><br><br><p><img src='run_exp/static/images/task_images/pink_gem.jpg' height='300' width='auto'></p>",,,,,,1,,,,,,,,,,,,,,,,,,
html-keyboard-response,8,79555,0.0-6.0-2.0,,983.695,"<p> As a space explorer, you’ll visit different planets to dig for space treasure, these pink gems.</p> <p> The more treasure you dig up, the more bonus money you’ll win! </p><br><br><p><img src='run_exp/static/images/task_images/pink_gem.jpg' height='300' width='auto'></p><button class=""jspsych-html-btn-unchosen""><img src=""run_exp/static/images/task_images/planet-01.jpg"" height=""50""></button><button class=""jspsych-html-btn-chosen""><img src=""run_exp/static/images/task_images/planet-02.jpg"" height=""50""></button><p><b>[press the space bar to lock in your answer]<b><br></p>",32,,,,,,,,,,,,,,,,,,,,,,,
instruc_dig,9,95561,0.0-7.0-0.0,,null,run_exp/static/audio/clip_4_dig.m4a,null,,,,,,100,,,,,,,,,,,,,,,,,
instruc_dig_try,10,97439,0.0-7.0-1.0,,1876.385,"<p> When you’ve arrived at a new planet, you will dig once. </p> <p>Then, you get to decide if you want to stay on the planet and dig again or travel to a new planet and dig there.</p> <p> To stay and dig, press the letter <strong>‘A’</strong> on your keyboard. Try pressing it now! </p><p><img src='run_exp/static/images/task_images/land.jpg'  height='700' width='auto'></p>",65,"<p> When you’ve arrived at a new planet, you will dig once. </p> <p>Then, you get to decide if you want to stay on the planet and dig again or travel to a new planet and dig there.</p> <p> To stay and dig, press the letter <strong>‘A’</strong> on your keyboard. Try pressing it now! </p><p><img src='run_exp/static/images/task_images/land.jpg'  height='700' width='auto'></p>",,,,,100,,,,,,,,,,,,,,,,,
dig_prac,11,99453,0.0-7.0-2.0,,,,,,,,,,,"[{""stimulus"":""run_exp/static/images/task_images/dig.jpg"",""time"":0.2800000074785203},{""stimulus"":""run_exp/static/images/task_images/land.jpg"",""time"":669.3999999843072},{""stimulus"":""run_exp/static/images/task_images/dig.jpg"",""time"":1351.1799999978393}]",[],,,,,,,,,,,,,,,
instruc_travel,12,135689,0.0-7.0-3.0,,null,run_exp/static/audio/clip_5_travel.m4a,null,"<p>Every time you dig up gems, there are less gems on the planet, so the more you dig on a planet the fewer gems you’ll get with each dig.</p><p>When gems are running low, you may want to travel to a new planet. </p> <p>  Planets are very far apart in this galaxy, so it will take some time to travel between them. </p> <br><p>There are lots and lots of planets for you to visit, so you won’t be able to return to any planets you’ve seen before. </p><br><p>To leave this planet and travel to a new one, press the letter <strong>‘L’</strong> on your keyboard. Try pressing it now! </p><p><img src='run_exp/static/images/task_images/rocket-01.jpg'  height='600' width='auto'></p>",,,,,,,,,,,,,,,,,,,,,,
instruc_travel_try,13,136594,0.0-7.0-4.0,,903.725,"<p>Every time you dig up gems, there are less gems on the planet, so the more you dig on a planet the fewer gems you’ll get with each dig.</p><p>When gems are running low, you may want to travel to a new planet. </p> <p>  Planets are very far apart in this galaxy, so it will take some time to travel between them. </p> <br><p>There are lots and lots of planets for you to visit, so you won’t be able to return to any planets you’ve seen before. </p><br><p>To leave this planet and travel to a new one, press the letter <strong>‘L’</strong> on your keyboard. Try pressing it now! </p><p><img src='run_exp/static/images/task_images/rocket-01.jpg'  height='600' width='auto'></p>",76,"<p>Every time you dig up gems, there are less gems on the planet, so the more you dig on a planet the fewer gems you’ll get with each dig.</p><p>When gems are running low, you may want to travel to a new planet. </p> <p>  Planets are very far apart in this galaxy, so it will take some time to travel between them. </p> <br><p>There are lots and lots of planets for you to visit, so you won’t be able to return to any planets you’ve seen before. </p><br><p>To leave this planet and travel to a new one, press the letter <strong>‘L’</strong> on your keyboard. Try pressing it now! </p><p><img src='run_exp/static/images/task_images/rocket-01.jpg'  height='600' width='auto'></p>",,,,,,,,,,,,,,,,,,,,,,
travel_prac,14,146600,0.0-7.0-5.0,,,,,,,,,,,"[{""stimulus"":""run_exp/static/images/task_images/rocket-01.jpg"",""time"":0.2049999893642962},{""stimulus"":""run_exp/static/images/task_images/rocket-02.jpg"",""time"":1129.9650000000838},{""stimulus"":""run_exp/static/images/task_images/rocket-03.jpg"",""time"":2224.70500000054},{""stimulus"":""run_exp/static/images/task_images/rocket-04.jpg"",""time"":3348.729999997886},{""stimulus"":""run_exp/static/images/task_images/rocket-05.jpg"",""time"":4446.705000009388},{""stimulus"":""run_exp/static/images/task_images/rocket-06.jpg"",""time"":5572.004999994533},{""stimulus"":""run_exp/static/images/task_images/rocket-07.jpg"",""time"":6686.489999992773},{""stimulus"":""run_exp/static/images/task_images/rocket-08.jpg"",""time"":7795.985000004293},{""stimulus"":""run_exp/static/images/task_images/rocket-09.jpg"",""time"":8894.815000006929}]",[],0,,,,,,,,,,,,,,
instruc_alien_greet,15,173779,0.0-7.0-6.0,,null,run_exp/static/audio/clip_6_alien.m4a,null,"<p>When you arrive at a new planet, the alien who owns the treasure mine on that planet will greet you!</p><p>The better an alien takes care of their mine the easier it is to dig for gems. Some aliens take better care of their mine than others. So, you won’t get exactly the same amount of gems on each planet.</p><p>What the alien looks like does not tell you anything about how many gems there are on the planet.</p><br><p><img src=""run_exp/static/images/task_images/aliens/instructions_aliens/planet/alien_planet-1.jpg""  height=""600"" width=""auto""></p>",,,,,,,,,,,,,,,,,,,,,,
instruc_alien_greet,16,182958,0.0-7.0-7.0,,9176.63,"<p>When you arrive at a new planet, the alien who owns the treasure mine on that planet will greet you!</p><p>The better an alien takes care of their mine the easier it is to dig for gems. Some aliens take better care of their mine than others. So, you won’t get exactly the same amount of gems on each planet.</p><p>What the alien looks like does not tell you anything about how many gems there are on the planet.</p><br><p><img src=""run_exp/static/images/task_images/aliens/instructions_aliens/planet/alien_planet-1.jpg""  height=""600"" width=""auto""></p>",,,,,,1,,,,,,,,,,,,,,,,,,
html-keyboard-response,17,183757,0.0-7.0-8.0,,797.63,"<p>When you arrive at a new planet, the alien who owns the treasure mine on that planet will greet you!</p><p>The better an alien takes care of their mine the easier it is to dig for gems. Some aliens take better care of their mine than others. So, you won’t get exactly the same amount of gems on each planet.</p><p>What the alien looks like does not tell you anything about how many gems there are on the planet.</p><br><p><img src=""run_exp/static/images/task_images/aliens/instructions_aliens/planet/alien_planet-1.jpg""  height=""600"" width=""auto""></p><button class=""jspsych-html-btn-unchosen""><img src=""run_exp/static/images/task_images/planet-01.jpg"" height=""50""></button><button class=""jspsych-html-btn-chosen""><img src=""run_exp/static/images/task_images/planet-02.jpg"" height=""50""></button><p><b>[press the space bar to lock in your answer]<b><br></p>",32,,,,,,,,,,,,,,,,,,,,,,,
time_out,18,194835,0.0-8.0-0.0,,null,run_exp/static/audio/clip_7_timeout.m4a,null,"<p>If you don't make your choice fast enough, you’ll have to wait a few seconds before you can make another one.</p><p>You can’t dig for more gems or travel to new planets. You just have to sit and wait.</p><br><p><img src='run_exp/static/images/task_images/time_out.jpg'  height='600' width='auto'></p>",,,,,,,,,,,,,,,,,,,,,,
time_out,19,203486,0.0-8.0-1.0,,8648.76,"<p>If you don't make your choice fast enough, you’ll have to wait a few seconds before you can make another one.</p><p>You can’t dig for more gems or travel to new planets. You just have to sit and wait.</p><br><p><img src='run_exp/static/images/task_images/time_out.jpg'  height='600' width='auto'></p>",,,,,,1,,,,,,,,,,,,,,,,,,
html-keyboard-response,20,204370,0.0-8.0-2.0,,882.95,"<p>If you don't make your choice fast enough, you’ll have to wait a few seconds before you can make another one.</p><p>You can’t dig for more gems or travel to new planets. You just have to sit and wait.</p><br><p><img src='run_exp/static/images/task_images/time_out.jpg'  height='600' width='auto'></p><button class=""jspsych-html-btn-unchosen""><img src=""run_exp/static/images/task_images/planet-01.jpg"" height=""50""></button><button class=""jspsych-html-btn-chosen""><img src=""run_exp/static/images/task_images/planet-02.jpg"" height=""50""></button><p><b>[press the space bar to lock in your answer]<b><br></p>",32,,,,,,,,,,,,,,,,,,,,,,,
instruc_break,21,220051,0.0-9.0-0.0,,null,run_exp/static/audio/clip_8_break.m4a,null,"<p> After digging and traveling for a while, you’ll be able to take a break at home base. </p><p>The game will last 20 minutes no matter what.</p><p>You will visit home base every 5 minutes, so, you will visit home base three times during the game.</p><br><p><img src='run_exp/static/images/task_images/home_base.jpg' height='600' width='auto'></p>",,,,,,,,,,,,,,,,,,,,,,
instruc_break,22,222831,0.0-9.0-1.0,,2778.4,"<p> After digging and traveling for a while, you’ll be able to take a break at home base. </p><p>The game will last 20 minutes no matter what.</p><p>You will visit home base every 5 minutes, so, you will visit home base three times during the game.</p><br><p><img src='run_exp/static/images/task_images/home_base.jpg' height='600' width='auto'></p>",,,,,,1,,,,,,,,,,,,,,,,,,
html-keyboard-response,23,223027,0.0-9.0-2.0,,194.175,"<p> After digging and traveling for a while, you’ll be able to take a break at home base. </p><p>The game will last 20 minutes no matter what.</p><p>You will visit home base every 5 minutes, so, you will visit home base three times during the game.</p><br><p><img src='run_exp/static/images/task_images/home_base.jpg' height='600' width='auto'></p><button class=""jspsych-html-btn-unchosen""><img src=""run_exp/static/images/task_images/planet-01.jpg"" height=""50""></button><button class=""jspsych-html-btn-chosen""><img src=""run_exp/static/images/task_images/planet-02.jpg"" height=""50""></button><p><b>[press the space bar to lock in your answer]<b><br></p>",32,,,,,,,,,,,,,,,,,,,,,,,
instruc_prac_game,24,233150,0.0-10.0-0.0,,null,run_exp/static/audio/clip_9_practice.m4a,null,"<p> Are you ready to play a practice game? </p> <p>In this practice game, you'll be digging up barrels of gems. But, in the real game, you'll be digging up the gems themselves. </p>",,,,,,,,,,,,,,,,,,,,,,
html-button-response,25,234680,0.0-10.0-1.0,,1529.33,"<p> Are you ready to play a practice game? </p> <p>In this practice game, you'll be digging up barrels of gems. But, in the real game, you'll be digging up the gems themselves. </p>",,,,,,0,,,,,,,,,,,,,,,,,,
alien_welcome_prac,26,239688,0.0-11.0-0.0,,null,run_exp/static/images/task_images/aliens/practice_aliens/planet/alien_planet-5.jpg,null,,,,,,,,,,,,,,,,,,,,,,,
land_prac,27,240190,0.0-11.0-1.0,,null,run_exp/static/images/task_images/land.jpg,null,,,,,,103,,,0,,,,,,,,,,,,,,
dig_prac,28,242205,0.0-11.0-2.0,,,,,,,,,,,"[{""stimulus"":""run_exp/static/images/task_images/dig.jpg"",""time"":0.18499998259358108},{""stimulus"":""run_exp/static/images/task_images/land.jpg"",""time"":670.094999979483},{""stimulus"":""run_exp/static/images/task_images/dig.jpg"",""time"":1340.794999996433}]",[],,,,,,,,,,,,,,,
harvest_prac,29,243218,0.0-11.0-3.0,,null,run_exp/static/images/task_images/barrel_text.jpg,null,,,,,,,,,,,,,,,,,,,,,,,
decision_prac,30,244038,0.0-11.0-4.0,,817.575,run_exp/static/images/task_images/land.jpg,65,,,,,,,,,,1,,,,,,,,,,,,,
dig_prac,31,246055,0.0-12.0-0.0,,,,,,,,,,,"[{""stimulus"":""run_exp/static/images/task_images/dig.jpg"",""time"":0.1550000160932541},{""stimulus"":""run_exp/static/images/task_images/land.jpg"",""time"":682.1800000034273},{""stimulus"":""run_exp/static/images/task_images/dig.jpg"",""time"":1334.8800000094343}]",[],,,,,,,,,,,,,,,
harvest_prac,32,247069,0.0-12.0-1.0,,null,run_exp/static/images/task_images/barrel_text.jpg,null,,,,,,,,,,,,,,,,,,,,,,,
decision_prac,33,247124,0.0-12.0-2.0,,54.33500002,run_exp/static/images/task_images/land.jpg,65,,,,,,,,,,2,,,,,,,,,,,,,
dig_prac,34,249138,0.0-13.0-0.0,,,,,,,,,,,"[{""stimulus"":""run_exp/static/images/task_images/dig.jpg"",""time"":0.12000001152046025},{""stimulus"":""run_exp/static/images/task_images/land.jpg"",""time"":679.1150000062771},{""stimulus"":""run_exp/static/images/task_images/dig.jpg"",""time"":1339.8400000005495}]",[],,,,,,,,,,,,,,,
harvest_prac,35,250140,0.0-13.0-1.0,,null,run_exp/static/images/task_images/barrel_text.jpg,null,,,,,,,,,,,,,,,,,,,,,,,
decision_prac,36,250250,0.0-13.0-2.0,,108.635,run_exp/static/images/task_images/land.jpg,65,,,,,,,,,,3,,,,,,,,,,,,,
dig_prac,37,252274,0.0-14.0-0.0,,,,,,,,,,,"[{""stimulus"":""run_exp/static/images/task_images/dig.jpg"",""time"":0.11999998241662979},{""stimulus"":""run_exp/static/images/task_images/land.jpg"",""time"":667.7700000000186},{""stimulus"":""run_exp/static/images/task_images/dig.jpg"",""time"":1335.0249999784864}]",[],,,,,,,,,,,,,,,
harvest_prac,38,253278,0.0-14.0-1.0,,null,run_exp/static/images/task_images/barrel_text.jpg,null,,,,,,,,,,,,,,,,,,,,,,,
decision_prac,39,253470,0.0-14.0-2.0,,190.25,run_exp/static/images/task_images/land.jpg,65,,,,,,,,,,4,,,,,,,,,,,,,
dig_prac,40,255485,0.0-15.0-0.0,,,,,,,,,,,"[{""stimulus"":""run_exp/static/images/task_images/dig.jpg"",""time"":0.12000001152046025},{""stimulus"":""run_exp/static/images/task_images/land.jpg"",""time"":679.7550000192132},{""stimulus"":""run_exp/static/images/task_images/dig.jpg"",""time"":1346.1300000199117}]",[],,,,,,,,,,,,,,,
harvest_prac,41,256495,0.0-15.0-1.0,,null,run_exp/static/images/task_images/barrel_text.jpg,null,,,,,,,,,,,,,,,,,,,,,,,
decision_prac,42,256505,0.0-15.0-2.0,,9.110000014,run_exp/static/images/task_images/land.jpg,65,,,,,,,,,,,1,,,,,,,,,,,,
quiz_instruc,43,263786,0.0-16.0-0.0,,7278.68,run_exp/static/audio/clip_10_quiz.m4a,,,,,,0,,,,,,,,,,,,,,,,,,
instruc_repeat,44,306547,0.0-16.0-1.0,,null,"<p> Are you ready to play a practice game? </p> <p>In this practice game, you'll be digging up barrels of gems. But, in the real game, you'll be digging up the gems themselves. </p>",null,"<p>In this game, your goal is to collect as many gems as you can. That’s how you will win bonus money. </p> <p>The entire game will last 20 minutes no matter how many gems you collect or how many planets you visit. </p><p>To stay on a planet and dig again, press the letter A on your keyboard. To leave for a new planet, press the letter L.</p><p>The more you dig on a planet, the fewer gems you’ll get with each dig which is why you might consider leaving for a new planet. </p><p>When you arrive at a new planet, you’ll be greeted by an alien. What the alien looks like does not tell you anything about how much treasure is on the planet. </p>",,,,,,,,,,,,,,,,,,,,,,
instruc_repeat_continue,45,309208,0.0-16.0-2.0,,2660.395,"<p> Are you ready to play a practice game? </p> <p>In this practice game, you'll be digging up barrels of gems. But, in the real game, you'll be digging up the gems themselves. </p>",,,,,,0,,,,,,,,,,,,,,,,,,
quiz_q_1_ask,46,317585,0.0-16.0-3.0,,8374.645,run_exp/static/audio/clip_11_q1_ask.m4a,,,,,,2,,,,,,,,,,,,,,,,,,
quiz_q_1_fb_correct,47,321437,0.0-17.0-0.0,,null,run_exp/static/audio/clip_12_q1_corrrect.m4a,null,<p>That’s correct. You win extra money by collecting more gems.</p>,,,,,,,,,,,,,,,,,,,,,,
quiz_q_2_ask,48,324238,0.0-17.0-1.0,,2799.255,run_exp/static/audio/clip_14_q2_ask.m4a,,,,,,1,,,,,,,,,,,,,,,,,,
quiz_q_2_fb_correct,49,328263,0.0-18.0-0.0,,null,run_exp/static/audio/clip_15_q2_correct.m4a,null,<p>That’s correct. The experiment is 20 minutes no matter what.</p>,,,,,,,,,,,,,,,,,,,,,,
quiz_q_3_ask,50,332215,0.0-18.0-1.0,,3950.1,run_exp/static/audio/clip_17_q3_ask.m4a,,,,,,1,,,,,,,,,,,,,,,,,,
quiz_q_3_fb_correct,51,336178,0.0-19.0-0.0,,null,run_exp/static/audio/clip_18_q3_correct.m4a,null,<p> That’s correct. You press the letter L to travel to a new planet.</p>,,,,,,,,,,,,,,,,,,,,,,
quiz_q_4_ask,52,340845,0.0-19.0-1.0,,4665.645,run_exp/static/audio/clip_20_q4_ask.m4a,,,,,,0,,,,,,,,,,,,,,,,,,
quiz_q_4_fb_correct,53,346162,0.0-20.0-0.0,,null,run_exp/static/audio/clip_21_q4_correct.m4a,null,<p> That’s correct. The more you dig on a planet the fewer gems you’ll get with each dig. </p>,,,,,,,,,,,,,,,,,,,,,,
quiz_q_5_ask,54,349413,0.0-20.0-1.0,,3248.505,run_exp/static/audio/clip_23_q5_ask.m4a,,,,,,1,,,,,,,,,,,,,,,,,,
quiz_q_5_fb_correct,55,354418,0.0-21.0-0.0,,null,run_exp/static/audio/clip_24_q5_correct.m4a,null,<p> That’s correct. The alien tells you nothing about how much treasure is on the planet.</p>,,,,,,,,,,,,,,,,,,,,,,
quiz_correct,56,357874,0.0-22.0-0.0,,null,run_exp/static/audio/clip_26_correct_quiz.m4a,null,,,,,,,,,,,,,,,,,,,,,,,
quiz_correct_continue,57,360594,0.0-22.0-1.0,,2719.33,<p>Good job! You're now ready to move on to the real game!</p>,,,,,,0,,,,,,,,,,,,,,,,,,
audio-keyboard-response,58,370717,0.0-22.0-2.0,,null,run_exp/static/audio/clip_28_real_game.m4a,null,,,,,,,,,,,,,,,,,,,,,,,
instruc_begin_exp_contine,59,371949,0.0-22.0-3.0,,1230.75,"<p>Now that you know how  to dig for space treasure and travel to new planets,you can start exploring! </p><p>Do you want to go over the instructions again or get started with the real game?</p>",,,,,,1,,,,,,1,,,,,,,,,,,,
alien_welcome,60,376952,0.0-23.0-0.0,,null,run_exp/static/images/task_images/aliens/old_aliens/planet/alien_planet-45.jpg,null,,,,,,,,,,,,45,"45,30,47,27,26,17,41,36,35,77,31,64,18,57,67,65,76,12,74,21,33,5,60,11,28,80,37,25,63",,,,,,,,,,
land,61,377468,0.0-23.0-1.0,,null,run_exp/static/images/task_images/land.jpg,null,,,,,,108,,,1,,,,,,,,,,,,,,
dig,62,379473,0.0-23.0-2.0,,,,,,,,,,,"[{""stimulus"":""run_exp/static/images/task_images/dig.jpg"",""time"":0.18499998259358108},{""stimulus"":""run_exp/static/images/task_images/land.jpg"",""time"":680.900000006659},{""stimulus"":""run_exp/static/images/task_images/dig.jpg"",""time"":1352.09999998915}]",[],1,,,,,,,,,,,,,,
harvest,63,380476,0.0-23.0-3.0,,null,run_exp/static/images/task_images/gems/108.jpg,null,,,,,,18,,,1,,,,,108,0.168566387,0.166666667,,,,,,,
decision,64,380890,0.0-23.0-4.0,,411.895,run_exp/static/images/task_images/land.jpg,65,,,,,,18,,,1,,,,,,,,8941,1,0,FALSE,,,
dig,65,383494,0.0-24.0-0.0,,,,,,,,,,,"[{""stimulus"":""run_exp/static/images/task_images/dig.jpg"",""time"":0.15499998698942363},{""stimulus"":""run_exp/static/images/task_images/land.jpg"",""time"":883.4499999938998},{""stimulus"":""run_exp/static/images/task_images/dig.jpg"",""time"":1726.2099999934435}]",[],1,,,,,,,,,,,,,,
harvest,66,384507,0.0-24.0-1.0,,null,run_exp/static/images/task_images/gems/18.jpg,null,,,,,,3,,,1,,,,,18,0.158356159,0.166666667,,,,,,,
decision,67,384717,0.0-24.0-2.0,,207.645,run_exp/static/images/task_images/land.jpg,65,,,,,,3,,,1,,,,,,,,12768,1,1,FALSE,,,
dig,68,387526,0.0-25.0-0.0,,,,,,,,,,,"[{""stimulus"":""run_exp/static/images/task_images/dig.jpg"",""time"":0.11999998241662979},{""stimulus"":""run_exp/static/images/task_images/land.jpg"",""time"":939.5849999855272},{""stimulus"":""run_exp/static/images/task_images/dig.jpg"",""time"":1878.8199999835342}]",[],1,,,,,,,,,,,,,,
harvest,69,388550,0.0-25.0-1.0,,null,run_exp/static/images/task_images/gems/3.jpg,null,,,,,,1,,,1,,,,,3,0.207994536,0.333333333,,,,,,,
decision,70,389808,0.0-25.0-2.0,,1255.675,run_exp/static/images/task_images/land.jpg,76,,,,,,1,,,1,,,,,,,,17858,1,2,TRUE,,,
travel,71,398556,0.0-26.0-0.0,,,,,,,,,,,"[{""stimulus"":""run_exp/static/images/task_images/rocket-01.jpg"",""time"":0.12500002048909664},{""stimulus"":""run_exp/static/images/task_images/rocket-02.jpg"",""time"":990.0699999998324},{""stimulus"":""run_exp/static/images/task_images/rocket-03.jpg"",""time"":1950.585000013234},{""stimulus"":""run_exp/static/images/task_images/rocket-04.jpg"",""time"":2931.7750000045635},{""stimulus"":""run_exp/static/images/task_images/rocket-05.jpg"",""time"":3902.200000011362},{""stimulus"":""run_exp/static/images/task_images/rocket-06.jpg"",""time"":4862.5400000019},{""stimulus"":""run_exp/static/images/task_images/rocket-07.jpg"",""time"":5832.925000024261},{""stimulus"":""run_exp/static/images/task_images/rocket-08.jpg"",""time"":6804.770000017015},{""stimulus"":""run_exp/static/images/task_images/rocket-09.jpg"",""time"":7785.369999997783}]",[],1,,,,,,,,,,,,,,
alien_welcome,72,403559,0.0-26.0-1.0,,null,run_exp/static/images/task_images/aliens/old_aliens/planet/alien_planet-30.jpg,null,,,,,,,,,,,,30,"45,30,47,27,26,17,41,36,35,77,31,64,18,57,67,65,76,12,74,21,33,5,60,11,28,80,37,25,63",,,,,,,,,,
land,73,404070,0.0-26.0-2.0,,null,run_exp/static/images/task_images/land.jpg,null,,,,,,108,,,2,,,,,,,,,,,,,,
dig,74,406086,0.0-26.0-3.0,,,,,,,,,,,"[{""stimulus"":""run_exp/static/images/task_images/dig.jpg"",""time"":0.17499999376013875},{""stimulus"":""run_exp/static/images/task_images/land.jpg"",""time"":670.5150000052527},{""stimulus"":""run_exp/static/images/task_images/dig.jpg"",""time"":1342.6299999991897}]",[],2,,,,,,,,,,,,,,
harvest,75,407099,0.0-26.0-4.0,,null,run_exp/static/images/task_images/gems/108.jpg,null,,,,,,22,,,2,,,,,108,0.207415877,0.203703704,,,,,,,
decision,76,407117,0.0-26.0-5.0,,15.79,run_exp/static/images/task_images/land.jpg,65,,,,,,22,,,2,,,,,,,,35167,1,0,FALSE,,,
dig,77,410107,0.0-27.0-0.0,,,,,,,,,,,"[{""stimulus"":""run_exp/static/images/task_images/dig.jpg"",""time"":0.2300000051036477},{""stimulus"":""run_exp/static/images/task_images/land.jpg"",""time"":1014.919999986887},{""stimulus"":""run_exp/static/images/task_images/dig.jpg"",""time"":2007.27500001085}]",[],2,,,,,,,,,,,,,,
harvest,78,411121,0.0-27.0-1.0,,null,run_exp/static/images/task_images/gems/22.jpg,null,,,,,,3,,,2,,,,,22,0.145791174,0.136363636,,,,,,,
decision,79,411364,0.0-27.0-2.0,,239.87,run_exp/static/images/task_images/land.jpg,65,,,,,,3,,,2,,,,,,,,39414,1,1,FALSE,,,
dig,80,414140,0.0-28.0-0.0,,,,,,,,,,,"[{""stimulus"":""run_exp/static/images/task_images/dig.jpg"",""time"":0.16500000492669642},{""stimulus"":""run_exp/static/images/task_images/land.jpg"",""time"":937.2950000106357},{""stimulus"":""run_exp/static/images/task_images/dig.jpg"",""time"":1856.2000000092667}]",[],2,,,,,,,,,,,,,,
harvest,81,415153,0.0-28.0-1.0,,null,run_exp/static/images/task_images/gems/3.jpg,null,,,,,,1,,,2,,,,,3,0.27997939,0.333333333,,,,,,,
decision,82,415363,0.0-28.0-2.0,,208.26,run_exp/static/images/task_images/land.jpg,65,,,,,,1,,,2,,,,,,,,43413,1,2,FALSE,,,
dig,83,418160,0.0-29.0-0.0,,,,,,,,,,,"[{""stimulus"":""run_exp/static/images/task_images/dig.jpg"",""time"":0.11500000255182385},{""stimulus"":""run_exp/static/images/task_images/land.jpg"",""time"":950.4749999905471},{""stimulus"":""run_exp/static/images/task_images/dig.jpg"",""time"":1867.3799999814946}]",[],2,,,,,,,,,,,,,,
harvest,84,419163,0.0-29.0-1.0,,null,run_exp/static/images/task_images/gems/1.jpg,null,,,,,,0,,,2,,,,,1,0.192024922,0,,,,,,,
decision,85,422170,0.0-29.0-2.0,,null,run_exp/static/images/task_images/land.jpg,null,,,,,,0,,,2,,,,,,,,50220,1,3,FALSE,,,
time_out,86,424177,0.0-30.0-0.0,,null,run_exp/static/images/task_images/time_out.jpg,null,,,,,,0,,,,,,,,,,,,,,,,,
decision,87,424213,0.0-30.0-1.0,,33.46000001,run_exp/static/images/task_images/land.jpg,76,,,,,,0,,,2,,,,,,,,52263,1,3,TRUE,,,
travel,88,434182,0.0-31.0-0.0,,,,,,,,,,,"[{""stimulus"":""run_exp/static/images/task_images/rocket-01.jpg"",""time"":0.11500000255182385},{""stimulus"":""run_exp/static/images/task_images/rocket-02.jpg"",""time"":1118.5049999912735},{""stimulus"":""run_exp/static/images/task_images/rocket-03.jpg"",""time"":2233.714999980293},{""stimulus"":""run_exp/static/images/task_images/rocket-04.jpg"",""time"":3321.9999999855645},{""stimulus"":""run_exp/static/images/task_images/rocket-05.jpg"",""time"":4430.764999997336},{""stimulus"":""run_exp/static/images/task_images/rocket-06.jpg"",""time"":5539.809999987483},{""stimulus"":""run_exp/static/images/task_images/rocket-07.jpg"",""time"":6643.474999989849},{""stimulus"":""run_exp/static/images/task_images/rocket-08.jpg"",""time"":7750.009999988833},{""stimulus"":""run_exp/static/images/task_images/rocket-09.jpg"",""time"":8868.424999993294}]",[],2,,,,,,,,,,,,,,
alien_welcome,89,439186,0.0-31.0-1.0,,null,run_exp/static/images/task_images/aliens/old_aliens/planet/alien_planet-47.jpg,null,,,,,,,,,,,,47,"45,30,47,27,26,17,41,36,35,77,31,64,18,57,67,65,76,12,74,21,33,5,60,11,28,80,37,25,63",,,,,,,,,,
land,90,439690,0.0-31.0-2.0,,null,run_exp/static/images/task_images/land.jpg,null,,,,,,98,,,3,,,,,,,,,,,,,,
dig,91,441714,0.0-31.0-3.0,,,,,,,,,,,"[{""stimulus"":""run_exp/static/images/task_images/dig.jpg"",""time"":0.2500000118743628},{""stimulus"":""run_exp/static/images/task_images/land.jpg"",""time"":668.919999996433},{""stimulus"":""run_exp/static/images/task_images/dig.jpg"",""time"":1340.5349999957252}]",[],3,,,,,,,,,,,,,,
harvest,92,442727,0.0-31.0-4.0,,null,run_exp/static/images/task_images/gems/98.jpg,null,,,,,,46,,,3,,,,,98,0.473134578,0.469387755,,,,,,,
decision,93,442771,0.0-31.0-5.0,,41.73999999,run_exp/static/images/task_images/land.jpg,65,,,,,,46,,,3,,,,,,,,70821,1,0,FALSE,,,
dig,94,445735,0.0-32.0-0.0,,,,,,,,,,,"[{""stimulus"":""run_exp/static/images/task_images/dig.jpg"",""time"":0.12000001152046025},{""stimulus"":""run_exp/static/images/task_images/land.jpg"",""time"":992.4549999996088},{""stimulus"":""run_exp/static/images/task_images/dig.jpg"",""time"":1981.1850000114646}]",[],3,,,,,,,,,,,,,,
harvest,95,446749,0.0-32.0-1.0,,null,run_exp/static/images/task_images/gems/46.jpg,null,,,,,,24,,,3,,,,,46,0.518093821,0.52173913,,,,,,,
decision,96,446773,0.0-32.0-2.0,,21.15500002,run_exp/static/images/task_images/land.jpg,65,,,,,,24,,,3,,,,,,,,74823,1,1,FALSE,,,
dig,97,449768,0.0-33.0-0.0,,,,,,,,,,,"[{""stimulus"":""run_exp/static/images/task_images/dig.jpg"",""time"":0.12499999138526618},{""stimulus"":""run_exp/static/images/task_images/land.jpg"",""time"":1001.300000003539},{""stimulus"":""run_exp/static/images/task_images/dig.jpg"",""time"":1989.014999999199}]",[],3,,,,,,,,,,,,,,
harvest,98,450769,0.0-33.0-1.0,,null,run_exp/static/images/task_images/gems/24.jpg,null,,,,,,11,,,3,,,,,24,0.437565915,0.458333333,,,,,,,
decision,99,451107,0.0-33.0-2.0,,335.625,run_exp/static/images/task_images/land.jpg,65,,,,,,11,,,3,,,,,,,,79157,1,2,FALSE,,,
dig,100,453778,0.0-34.0-0.0,,,,,,,,,,,"[{""stimulus"":""run_exp/static/images/task_images/dig.jpg"",""time"":0.11999998241662979},{""stimulus"":""run_exp/static/images/task_images/land.jpg"",""time"":909.0799999830779},{""stimulus"":""run_exp/static/images/task_images/dig.jpg"",""time"":1784.014999982901}]",[],3,,,,,,,,,,,,,,
harvest,101,454781,0.0-34.0-1.0,,null,run_exp/static/images/task_images/gems/11.jpg,null,,,,,,5,,,3,,,,,11,0.483171875,0.454545455,,,,,,,
decision,102,455025,0.0-34.0-2.0,,242.145,run_exp/static/images/task_images/land.jpg,65,,,,,,5,,,3,,,,,,,,83075,1,3,FALSE,,,
dig,103,457787,0.0-35.0-0.0,,,,,,,,,,,"[{""stimulus"":""run_exp/static/images/task_images/dig.jpg"",""time"":0.12999997125007212},{""stimulus"":""run_exp/static/images/task_images/land.jpg"",""time"":926.0599999979604},{""stimulus"":""run_exp/static/images/task_images/dig.jpg"",""time"":1843.2349999784492}]",[],3,,,,,,,,,,,,,,
harvest,104,458790,0.0-35.0-1.0,,null,run_exp/static/images/task_images/gems/5.jpg,null,,,,,,2,,,3,,,,,5,0.478812121,0.4,,,,,,,
decision,105,459920,0.0-35.0-2.0,,1128.935,run_exp/static/images/task_images/land.jpg,76,,,,,,2,,,3,,,,,,,,87971,1,4,TRUE,,,
travel,106,468791,0.0-36.0-0.0,,,,,,,,,,,"[{""stimulus"":""run_exp/static/images/task_images/rocket-01.jpg"",""time"":0.1449999981559813},{""stimulus"":""run_exp/static/images/task_images/rocket-02.jpg"",""time"":1002.3199999995995},{""stimulus"":""run_exp/static/images/task_images/rocket-03.jpg"",""time"":1983.394999988377},{""stimulus"":""run_exp/static/images/task_images/rocket-04.jpg"",""time"":2965.169999981299},{""stimulus"":""run_exp/static/images/task_images/rocket-05.jpg"",""time"":3957.4549999961164},{""stimulus"":""run_exp/static/images/task_images/rocket-06.jpg"",""time"":4937.604999984615},{""stimulus"":""run_exp/static/images/task_images/rocket-07.jpg"",""time"":5919.664999993984},{""stimulus"":""run_exp/static/images/task_images/rocket-08.jpg"",""time"":6896.3499999954365},{""stimulus"":""run_exp/static/images/task_images/rocket-09.jpg"",""time"":7881.070000003092}]",[],3,,,,,,,,,,,,,,
alien_welcome,107,473810,0.0-36.0-1.0,,null,run_exp/static/images/task_images/aliens/old_aliens/planet/alien_planet-27.jpg,null,,,,,,,,,,,,27,"45,30,47,27,26,17,41,36,35,77,31,64,18,57,67,65,76,12,74,21,33,5,60,11,28,80,37,25,63",,,,,,,,,,
land,108,474333,0.0-36.0-2.0,,null,run_exp/static/images/task_images/land.jpg,null,,,,,,103,,,4,,,,,,,,,,,,,,
dig,109,476338,0.0-36.0-3.0,,,,,,,,,,,"[{""stimulus"":""run_exp/static/images/task_images/dig.jpg"",""time"":0.18500001169741154},{""stimulus"":""run_exp/static/images/task_images/land.jpg"",""time"":681.2550000031479},{""stimulus"":""run_exp/static/images/task_images/dig.jpg"",""time"":1342.5500000012107}]",[],4,,,,,,,,,,,,,,
harvest,110,477341,0.0-36.0-4.0,,null,run_exp/static/images/task_images/gems/103.jpg,null,,,,,,56,,,4,,,,,103,0.543620555,0.54368932,,,,,,,
decision,111,477726,0.0-36.0-5.0,,382.37,run_exp/static/images/task_images/land.jpg,65,,,,,,56,,,4,,,,,,,,105776,1,0,FALSE,,,
dig,112,480354,0.0-37.0-0.0,,,,,,,,,,,"[{""stimulus"":""run_exp/static/images/task_images/dig.jpg"",""time"":0.16500000492669642},{""stimulus"":""run_exp/static/images/task_images/land.jpg"",""time"":892.61500001885},{""stimulus"":""run_exp/static/images/task_images/dig.jpg"",""time"":1746.0600000049453}]",[],4,,,,,,,,,,,,,,
harvest,113,481362,0.0-37.0-1.0,,null,run_exp/static/images/task_images/gems/56.jpg,null,,,,,,28,,,4,,,,,56,0.505346325,0.5,,,,,,,
decision,114,481370,0.0-37.0-2.0,,5.874999973,run_exp/static/images/task_images/land.jpg,65,,,,,,28,,,4,,,,,,,,109420,1,1,FALSE,,,
dig,115,484381,0.0-38.0-0.0,,,,,,,,,,,"[{""stimulus"":""run_exp/static/images/task_images/dig.jpg"",""time"":0.1399999891873449},{""stimulus"":""run_exp/static/images/task_images/land.jpg"",""time"":1003.3499999844935},{""stimulus"":""run_exp/static/images/task_images/dig.jpg"",""time"":2016.2750000017695}]",[],4,,,,,,,,,,,,,,
harvest,116,485392,0.0-38.0-1.0,,null,run_exp/static/images/task_images/gems/28.jpg,null,,,,,,15,,,4,,,,,28,0.528334137,0.535714286,,,,,,,
decision,117,485422,0.0-38.0-2.0,,27.76,run_exp/static/images/task_images/land.jpg,65,,,,,,15,,,4,,,,,,,,113472,1,2,FALSE,,,
dig,118,488402,0.0-39.0-0.0,,,,,,,,,,,"[{""stimulus"":""run_exp/static/images/task_images/dig.jpg"",""time"":0.1999999803956598},{""stimulus"":""run_exp/static/images/task_images/land.jpg"",""time"":992.99999998766},{""stimulus"":""run_exp/static/images/task_images/dig.jpg"",""time"":1984.9600000015926}]",[],4,,,,,,,,,,,,,,
harvest,119,489405,0.0-39.0-1.0,,null,run_exp/static/images/task_images/gems/15.jpg,null,,,,,,8,,,4,,,,,15,0.528400057,0.533333333,,,,,,,
decision,120,489454,0.0-39.0-2.0,,47.345,run_exp/static/images/task_images/land.jpg,65,,,,,,8,,,4,,,,,,,,117504,1,3,FALSE,,,
dig,121,492423,0.0-40.0-0.0,,,,,,,,,,,"[{""stimulus"":""run_exp/static/images/task_images/dig.jpg"",""time"":0.11999998241662979},{""stimulus"":""run_exp/static/images/task_images/land.jpg"",""time"":1004.2599999869708},{""stimulus"":""run_exp/static/images/task_images/dig.jpg"",""time"":1972.6450000016484}]",[],4,,,,,,,,,,,,,,
harvest,122,493425,0.0-40.0-1.0,,null,run_exp/static/images/task_images/gems/8.jpg,null,,,,,,3,,,4,,,,,8,0.427361929,0.375,,,,,,,
decision,123,493519,0.0-40.0-2.0,,92.26,run_exp/static/images/task_images/land.jpg,65,,,,,,3,,,4,,,,,,,,121570,1,4,FALSE,,,
dig,124,496445,0.0-41.0-0.0,,,,,,,,,,,"[{""stimulus"":""run_exp/static/images/task_images/dig.jpg"",""time"":0.14000001829117537},{""stimulus"":""run_exp/static/images/task_images/land.jpg"",""time"":981.9399999978486},{""stimulus"":""run_exp/static/images/task_images/dig.jpg"",""time"":1941.0750000097323}]",[],4,,,,,,,,,,,,,,
harvest,125,497458,0.0-41.0-1.0,,null,run_exp/static/images/task_images/gems/3.jpg,null,,,,,,1,,,4,,,,,3,0.451636168,0.333333333,,,,,,,
decision,126,497591,0.0-41.0-2.0,,131.175,run_exp/static/images/task_images/land.jpg,76,,,,,,1,,,4,,,,,,,,125641,1,5,TRUE,,,
travel,127,507463,0.0-42.0-0.0,,,,,,,,,,,"[{""stimulus"":""run_exp/static/images/task_images/rocket-01.jpg"",""time"":0.13000000035390258},{""stimulus"":""run_exp/static/images/task_images/rocket-02.jpg"",""time"":1112.6100000110455},{""stimulus"":""run_exp/static/images/task_images/rocket-03.jpg"",""time"":2211.47499998915},{""stimulus"":""run_exp/static/images/task_images/rocket-04.jpg"",""time"":3309.964999993099},{""stimulus"":""run_exp/static/images/task_images/rocket-05.jpg"",""time"":4386.759999993956},{""stimulus"":""run_exp/static/images/task_images/rocket-06.jpg"",""time"":5496.099999989383},{""stimulus"":""run_exp/static/images/task_images/rocket-07.jpg"",""time"":6594.840000005206},{""stimulus"":""run_exp/static/images/task_images/rocket-08.jpg"",""time"":7682.66500000027},{""stimulus"":""run_exp/static/images/task_images/rocket-09.jpg"",""time"":8771.349999995437}]",[],4,,,,,,,,,,,,,,
alien_welcome,128,512466,0.0-42.0-1.0,,null,run_exp/static/images/task_images/aliens/old_aliens/planet/alien_planet-26.jpg,null,,,,,,,,,,,,26,"45,30,47,27,26,17,41,36,35,77,31,64,18,57,67,65,76,12,74,21,33,5,60,11,28,80,37,25,63",,,,,,,,,,
land,129,512967,0.0-42.0-2.0,,null,run_exp/static/images/task_images/land.jpg,null,,,,,,107,,,5,,,,,,,,,,,,,,
dig,130,514972,0.0-42.0-3.0,,,,,,,,,,,"[{""stimulus"":""run_exp/static/images/task_images/dig.jpg"",""time"":0.18999999156221747},{""stimulus"":""run_exp/static/images/task_images/land.jpg"",""time"":669.3099999974947},{""stimulus"":""run_exp/static/images/task_images/dig.jpg"",""time"":1336.1300000105985}]",[],5,,,,,,,,,,,,,,
harvest,131,515973,0.0-42.0-4.0,,null,run_exp/static/images/task_images/gems/107.jpg,null,,,,,,56,,,5,,,,,107,0.526171335,0.523364486,,,,,,,
decision,132,516094,0.0-42.0-5.0,,119.655,run_exp/static/images/task_images/land.jpg,65,,,,,,56,,,5,,,,,,,,144144,1,0,FALSE,,,
dig,133,518979,0.0-43.0-0.0,,,,,,,,,,,"[{""stimulus"":""run_exp/static/images/task_images/dig.jpg"",""time"":0.12000001152046025},{""stimulus"":""run_exp/static/images/task_images/land.jpg"",""time"":966.5749999985565},{""stimulus"":""run_exp/static/images/task_images/dig.jpg"",""time"":1921.0850000090431}]",[],5,,,,,,,,,,,,,,
harvest,134,519997,0.0-43.0-1.0,,null,run_exp/static/images/task_images/gems/56.jpg,null,,,,,,28,,,5,,,,,56,0.497763816,0.5,,,,,,,
decision,135,520171,0.0-43.0-2.0,,172.2,run_exp/static/images/task_images/land.jpg,65,,,,,,28,,,5,,,,,,,,148221,1,1,FALSE,,,
dig,136,523001,0.0-44.0-0.0,,,,,,,,,,,"[{""stimulus"":""run_exp/static/images/task_images/dig.jpg"",""time"":0.19500000053085387},{""stimulus"":""run_exp/static/images/task_images/land.jpg"",""time"":962.5399999786168},{""stimulus"":""run_exp/static/images/task_images/dig.jpg"",""time"":1902.6749999902677}]",[],5,,,,,,,,,,,,,,
harvest,137,524002,0.0-44.0-1.0,,null,run_exp/static/images/task_images/gems/28.jpg,null,,,,,,13,,,5,,,,,28,0.462093955,0.464285714,,,,,,,
decision,138,524134,0.0-44.0-2.0,,130.675,run_exp/static/images/task_images/land.jpg,65,,,,,,13,,,5,,,,,,,,152184,1,2,FALSE,,,
dig,139,527011,0.0-45.0-0.0,,,,,,,,,,,"[{""stimulus"":""run_exp/static/images/task_images/dig.jpg"",""time"":0.12499999138526618},{""stimulus"":""run_exp/static/images/task_images/land.jpg"",""time"":959.2950000078417},{""stimulus"":""run_exp/static/images/task_images/dig.jpg"",""time"":1918.969999998808}]",[],5,,,,,,,,,,,,,,
harvest,140,528029,0.0-45.0-1.0,,null,run_exp/static/images/task_images/gems/13.jpg,null,,,,,,6,,,5,,,,,13,0.438173644,0.461538462,,,,,,,
decision,141,528218,0.0-45.0-2.0,,186.62,run_exp/static/images/task_images/land.jpg,65,,,,,,6,,,5,,,,,,,,156268,1,3,FALSE,,,
dig,142,531048,0.0-46.0-0.0,,,,,,,,,,,"[{""stimulus"":""run_exp/static/images/task_images/dig.jpg"",""time"":0.13000000035390258},{""stimulus"":""run_exp/static/images/task_images/land.jpg"",""time"":938.6900000099558},{""stimulus"":""run_exp/static/images/task_images/dig.jpg"",""time"":1878.1350000062957}]",[],5,,,,,,,,,,,,,,
harvest,143,532050,0.0-46.0-1.0,,null,run_exp/static/images/task_images/gems/6.jpg,null,,,,,,3,,,5,,,,,6,0.475117811,0.5,,,,,,,
decision,144,532684,0.0-46.0-2.0,,632.175,run_exp/static/images/task_images/land.jpg,76,,,,,,3,,,5,,,,,,,,160735,1,4,TRUE,,,
travel,145,542055,0.0-47.0-0.0,,,,,,,,,,,"[{""stimulus"":""run_exp/static/images/task_images/rocket-01.jpg"",""time"":0.13000000035390258},{""stimulus"":""run_exp/static/images/task_images/rocket-02.jpg"",""time"":1048.0749999987893},{""stimulus"":""run_exp/static/images/task_images/rocket-03.jpg"",""time"":2082.559999980731},{""stimulus"":""run_exp/static/images/task_images/rocket-04.jpg"",""time"":3138.90999997966},{""stimulus"":""run_exp/static/images/task_images/rocket-05.jpg"",""time"":4184.284999995725},{""stimulus"":""run_exp/static/images/task_images/rocket-06.jpg"",""time"":5219.270000001416},{""stimulus"":""run_exp/static/images/task_images/rocket-07.jpg"",""time"":6253.819999983534},{""stimulus"":""run_exp/static/images/task_images/rocket-08.jpg"",""time"":7298.485000006622},{""stimulus"":""run_exp/static/images/task_images/rocket-09.jpg"",""time"":8333.75999997952}]",[],5,,,,,,,,,,,,,,
alien_welcome,146,547058,0.0-47.0-1.0,,null,run_exp/static/images/task_images/aliens/old_aliens/planet/alien_planet-17.jpg,null,,,,,,,,,,,,17,"45,30,47,27,26,17,41,36,35,77,31,64,18,57,67,65,76,12,74,21,33,5,60,11,28,80,37,25,63",,,,,,,,,,
land,147,547570,0.0-47.0-2.0,,null,run_exp/static/images/task_images/land.jpg,null,,,,,,100,,,6,,,,,,,,,,,,,,
dig,148,549582,0.0-47.0-3.0,,,,,,,,,,,"[{""stimulus"":""run_exp/static/images/task_images/dig.jpg"",""time"":0.18500001169741154},{""stimulus"":""run_exp/static/images/task_images/land.jpg"",""time"":681.1999999918044},{""stimulus"":""run_exp/static/images/task_images/dig.jpg"",""time"":1346.4600000006612}]",[],6,,,,,,,,,,,,,,
harvest,149,550599,0.0-47.0-4.0,,null,run_exp/static/images/task_images/gems/100.jpg,null,,,,,,72,,,6,,,,,100,0.721500245,0.72,,,,,,,
decision,150,550632,0.0-47.0-5.0,,30.38000001,run_exp/static/images/task_images/land.jpg,65,,,,,,72,,,6,,,,,,,,178682,1,0,FALSE,,,
dig,151,553618,0.0-48.0-0.0,,,,,,,,,,,"[{""stimulus"":""run_exp/static/images/task_images/dig.jpg"",""time"":0.1550000160932541},{""stimulus"":""run_exp/static/images/task_images/land.jpg"",""time"":1002.600000007078},{""stimulus"":""run_exp/static/images/task_images/dig.jpg"",""time"":1981.1050000134856}]",[],6,,,,,,,,,,,,,,
harvest,152,554620,0.0-48.0-1.0,,null,run_exp/static/images/task_images/gems/72.jpg,null,,,,,,56,,,6,,,,,72,0.775022533,0.777777778,,,,,,,
decision,153,554698,0.0-48.0-2.0,,76.13999999,run_exp/static/images/task_images/land.jpg,65,,,,,,56,,,6,,,,,,,,182748,1,1,FALSE,,,
dig,154,557639,0.0-49.0-0.0,,,,,,,,,,,"[{""stimulus"":""run_exp/static/images/task_images/dig.jpg"",""time"":0.15999999595806003},{""stimulus"":""run_exp/static/images/task_images/land.jpg"",""time"":975.7600000011735},{""stimulus"":""run_exp/static/images/task_images/dig.jpg"",""time"":1957.844999997178}]",[],6,,,,,,,,,,,,,,
harvest,155,558652,0.0-49.0-1.0,,null,run_exp/static/images/task_images/gems/56.jpg,null,,,,,,45,,,6,,,,,56,0.806024913,0.803571429,,,,,,,
decision,156,558920,0.0-49.0-2.0,,266.155,run_exp/static/images/task_images/land.jpg,65,,,,,,45,,,6,,,,,,,,186970,1,2,FALSE,,,
dig,157,561671,0.0-50.0-0.0,,,,,,,,,,,"[{""stimulus"":""run_exp/static/images/task_images/dig.jpg"",""time"":0.12499999138526618},{""stimulus"":""run_exp/static/images/task_images/land.jpg"",""time"":925.0999999931082},{""stimulus"":""run_exp/static/images/task_images/dig.jpg"",""time"":1842.5699999788776}]",[],6,,,,,,,,,,,,,,
harvest,158,562684,0.0-50.0-1.0,,null,run_exp/static/images/task_images/gems/45.jpg,null,,,,,,39,,,6,,,,,45,0.877730939,0.866666667,,,,,,,
decision,159,562721,0.0-50.0-2.0,,35.00999999,run_exp/static/images/task_images/land.jpg,65,,,,,,39,,,6,,,,,,,,190771,1,3,FALSE,,,
dig,160,565692,0.0-51.0-0.0,,,,,,,,,,,"[{""stimulus"":""run_exp/static/images/task_images/dig.jpg"",""time"":0.13500000932253897},{""stimulus"":""run_exp/static/images/task_images/land.jpg"",""time"":1006.4950000087265},{""stimulus"":""run_exp/static/images/task_images/dig.jpg"",""time"":1987.8200000093784}]",[],6,,,,,,,,,,,,,,
harvest,161,566695,0.0-51.0-1.0,,null,run_exp/static/images/task_images/gems/39.jpg,null,,,,,,27,,,6,,,,,39,0.70320863,0.692307692,,,,,,,
decision,162,566991,0.0-51.0-2.0,,292.7,run_exp/static/images/task_images/land.jpg,65,,,,,,27,,,6,,,,,,,,195041,1,4,FALSE,,,
dig,163,569703,0.0-52.0-0.0,,,,,,,,,,,"[{""stimulus"":""run_exp/static/images/task_images/dig.jpg"",""time"":0.1500000071246177},{""stimulus"":""run_exp/static/images/task_images/land.jpg"",""time"":915.3850000002421},{""stimulus"":""run_exp/static/images/task_images/dig.jpg"",""time"":1822.8050000034273}]",[],6,,,,,,,,,,,,,,
harvest,164,570705,0.0-52.0-1.0,,null,run_exp/static/images/task_images/gems/27.jpg,null,,,,,,23,,,6,,,,,27,0.834785315,0.851851852,,,,,,,
decision,165,570857,0.0-52.0-2.0,,149.485,run_exp/static/images/task_images/land.jpg,65,,,,,,23,,,6,,,,,,,,198907,1,5,FALSE,,,
dig,166,573714,0.0-53.0-0.0,,,,,,,,,,,"[{""stimulus"":""run_exp/static/images/task_images/dig.jpg"",""time"":0.12499999138526618},{""stimulus"":""run_exp/static/images/task_images/land.jpg"",""time"":955.8199999737553},{""stimulus"":""run_exp/static/images/task_images/dig.jpg"",""time"":1904.6849999867845}]",[],6,,,,,,,,,,,,,,
harvest,167,574716,0.0-53.0-1.0,,null,run_exp/static/images/task_images/gems/23.jpg,null,,,,,,18,,,6,,,,,23,0.783477728,0.782608696,,,,,,,
decision,168,574754,0.0-53.0-2.0,,36.81000002,run_exp/static/images/task_images/land.jpg,65,,,,,,18,,,6,,,,,,,,202805,1,6,FALSE,,,
dig,169,577724,0.0-54.0-0.0,,,,,,,,,,,"[{""stimulus"":""run_exp/static/images/task_images/dig.jpg"",""time"":0.12000001152046025},{""stimulus"":""run_exp/static/images/task_images/land.jpg"",""time"":1002.9650000215042},{""stimulus"":""run_exp/static/images/task_images/dig.jpg"",""time"":1976.0450000176206}]",[],6,,,,,,,,,,,,,,
harvest,170,578727,0.0-54.0-1.0,,null,run_exp/static/images/task_images/gems/18.jpg,null,,,,,,15,,,6,,,,,18,0.841429843,0.833333333,,,,,,,
decision,171,579011,0.0-54.0-2.0,,281.045,run_exp/static/images/task_images/land.jpg,65,,,,,,15,,,6,,,,,,,,207061,1,7,FALSE,,,
dig,172,581746,0.0-55.0-0.0,,,,,,,,,,,"[{""stimulus"":""run_exp/static/images/task_images/dig.jpg"",""time"":0.1500000071246177},{""stimulus"":""run_exp/static/images/task_images/land.jpg"",""time"":907.9300000157673},{""stimulus"":""run_exp/static/images/task_images/dig.jpg"",""time"":1815.5100000149105}]",[],6,,,,,,,,,,,,,,
harvest,173,582770,0.0-55.0-1.0,,null,run_exp/static/images/task_images/gems/15.jpg,null,,,,,,13,,,6,,,,,15,0.834808745,0.866666667,,,,,,,
decision,174,582780,0.0-55.0-2.0,,8.445000014,run_exp/static/images/task_images/land.jpg,65,,,,,,13,,,6,,,,,,,,210830,1,8,FALSE,,,
dig,175,585789,0.0-56.0-0.0,,,,,,,,,,,"[{""stimulus"":""run_exp/static/images/task_images/dig.jpg"",""time"":0.11999998241662979},{""stimulus"":""run_exp/static/images/task_images/land.jpg"",""time"":1001.1299999896437},{""stimulus"":""run_exp/static/images/task_images/dig.jpg"",""time"":2003.129999997327}]",[],6,,,,,,,,,,,,,,
harvest,176,586802,0.0-56.0-1.0,,null,run_exp/static/images/task_images/gems/13.jpg,null,,,,,,9,,,6,,,,,13,0.725592219,0.692307692,,,,,,,
decision,177,587950,0.0-56.0-2.0,,1145.685,run_exp/static/images/task_images/land.jpg,76,,,,,,9,,,6,,,,,,,,216000,1,9,TRUE,,,
travel,178,596818,0.0-57.0-0.0,,,,,,,,,,,"[{""stimulus"":""run_exp/static/images/task_images/rocket-01.jpg"",""time"":0.12499999138526618},{""stimulus"":""run_exp/static/images/task_images/rocket-02.jpg"",""time"":993.5450000048149},{""stimulus"":""run_exp/static/images/task_images/rocket-03.jpg"",""time"":1974.4700000155717},{""stimulus"":""run_exp/static/images/task_images/rocket-04.jpg"",""time"":2955.660000006901},{""stimulus"":""run_exp/static/images/task_images/rocket-05.jpg"",""time"":3937.3950000153854},{""stimulus"":""run_exp/static/images/task_images/rocket-06.jpg"",""time"":4929.074999992736},{""stimulus"":""run_exp/static/images/task_images/rocket-07.jpg"",""time"":5908.519999997225},{""stimulus"":""run_exp/static/images/task_images/rocket-08.jpg"",""time"":6903.099999995902},{""stimulus"":""run_exp/static/images/task_images/rocket-09.jpg"",""time"":7884.460000001127}]",[],6,,,,,,,,,,,,,,
alien_welcome,179,601842,0.0-57.0-1.0,,null,run_exp/static/images/task_images/aliens/old_aliens/planet/alien_planet-41.jpg,null,,,,,,,,,,,,41,"45,30,47,27,26,17,41,36,35,77,31,64,18,57,67,65,76,12,74,21,33,5,60,11,28,80,37,25,63",,,,,,,,,,
land,180,602364,0.0-57.0-2.0,,null,run_exp/static/images/task_images/land.jpg,null,,,,,,104,,,7,,,,,,,,,,,,,,
dig,181,604379,0.0-57.0-3.0,,,,,,,,,,,"[{""stimulus"":""run_exp/static/images/task_images/dig.jpg"",""time"":0.18499998259358108},{""stimulus"":""run_exp/static/images/task_images/land.jpg"",""time"":671.4299999875948},{""stimulus"":""run_exp/static/images/task_images/dig.jpg"",""time"":1335.25499998359}]",[],7,,,,,,,,,,,,,,
harvest,182,605382,0.0-57.0-4.0,,null,run_exp/static/images/task_images/gems/104.jpg,null,,,,,,80,,,7,,,,,104,0.772260147,0.769230769,,,,,,,
decision,183,605464,0.0-57.0-5.0,,79.67499999,run_exp/static/images/task_images/land.jpg,65,,,,,,80,,,7,,,,,,,,233514,1,0,FALSE,,,
dig,184,608402,0.0-58.0-0.0,,,,,,,,,,,"[{""stimulus"":""run_exp/static/images/task_images/dig.jpg"",""time"":0.11999998241662979},{""stimulus"":""run_exp/static/images/task_images/land.jpg"",""time"":975.4499999980908},{""stimulus"":""run_exp/static/images/task_images/dig.jpg"",""time"":1954.2849999852479}]",[],7,,,,,,,,,,,,,,
harvest,185,609415,0.0-58.0-1.0,,null,run_exp/static/images/task_images/gems/80.jpg,null,,,,,,73,,,7,,,,,80,0.915136664,0.9125,,,,,,,
decision,186,609508,0.0-58.0-2.0,,91.47499999,run_exp/static/images/task_images/land.jpg,65,,,,,,73,,,7,,,,,,,,237558,1,1,FALSE,,,
dig,187,612430,0.0-59.0-0.0,,,,,,,,,,,"[{""stimulus"":""run_exp/static/images/task_images/dig.jpg"",""time"":0.12000001152046025},{""stimulus"":""run_exp/static/images/task_images/land.jpg"",""time"":976.3650000095367},{""stimulus"":""run_exp/static/images/task_images/dig.jpg"",""time"":1942.7150000119582}]",[],7,,,,,,,,,,,,,,
harvest,188,613447,0.0-59.0-1.0,,null,run_exp/static/images/task_images/gems/73.jpg,null,,,,,,55,,,7,,,,,73,0.758364353,0.753424658,,,,,,,
decision,189,613532,0.0-59.0-2.0,,82.28500001,run_exp/static/images/task_images/land.jpg,65,,,,,,55,,,7,,,,,,,,241582,1,2,FALSE,,,
dig,190,616466,0.0-60.0-0.0,,,,,,,,,,,"[{""stimulus"":""run_exp/static/images/task_images/dig.jpg"",""time"":0.11999998241662979},{""stimulus"":""run_exp/static/images/task_images/land.jpg"",""time"":979.5799999847077},{""stimulus"":""run_exp/static/images/task_images/dig.jpg"",""time"":1950.444999994943}]",[],7,,,,,,,,,,,,,,
harvest,191,617479,0.0-60.0-1.0,,null,run_exp/static/images/task_images/gems/55.jpg,null,,,,,,44,,,7,,,,,55,0.794302663,0.8,,,,,,,
decision,192,617646,0.0-60.0-2.0,,164.135,run_exp/static/images/task_images/land.jpg,65,,,,,,44,,,7,,,,,,,,245696,1,3,FALSE,,,
dig,193,620494,0.0-61.0-0.0,,,,,,,,,,,"[{""stimulus"":""run_exp/static/images/task_images/dig.jpg"",""time"":0.11999998241662979},{""stimulus"":""run_exp/static/images/task_images/land.jpg"",""time"":951.344999979483},{""stimulus"":""run_exp/static/images/task_images/dig.jpg"",""time"":1900.8299999986775}]",[],7,,,,,,,,,,,,,,
harvest,194,621511,0.0-61.0-1.0,,null,run_exp/static/images/task_images/gems/44.jpg,null,,,,,,36,,,7,,,,,44,0.823897745,0.818181818,,,,,,,
decision,195,621628,0.0-61.0-2.0,,115.03,run_exp/static/images/task_images/land.jpg,65,,,,,,36,,,7,,,,,,,,249679,1,4,FALSE,,,
dig,196,624530,0.0-62.0-0.0,,,,,,,,,,,"[{""stimulus"":""run_exp/static/images/task_images/dig.jpg"",""time"":0.12499999138526618},{""stimulus"":""run_exp/static/images/task_images/land.jpg"",""time"":968.3949999744073},{""stimulus"":""run_exp/static/images/task_images/dig.jpg"",""time"":1928.1999999948312}]",[],7,,,,,,,,,,,,,,
harvest,197,625533,0.0-62.0-1.0,,null,run_exp/static/images/task_images/gems/36.jpg,null,,,,,,31,,,7,,,,,36,0.854260934,0.861111111,,,,,,,
decision,198,625724,0.0-62.0-2.0,,188.965,run_exp/static/images/task_images/land.jpg,65,,,,,,31,,,7,,,,,,,,253775,1,5,FALSE,,,
dig,199,628540,0.0-63.0-0.0,,,,,,,,,,,"[{""stimulus"":""run_exp/static/images/task_images/dig.jpg"",""time"":0.12000001152046025},{""stimulus"":""run_exp/static/images/task_images/land.jpg"",""time"":941.2149999989197},{""stimulus"":""run_exp/static/images/task_images/dig.jpg"",""time"":1879.7450000129174}]",[],7,,,,,,,,,,,,,,
harvest,200,629554,0.0-63.0-1.0,,null,run_exp/static/images/task_images/gems/31.jpg,null,,,,,,27,,,7,,,,,31,0.869865927,0.870967742,,,,,,,
decision,201,630707,0.0-63.0-2.0,,1151.295,run_exp/static/images/task_images/land.jpg,65,,,,,,27,,,7,,,,,,,,258757,1,6,FALSE,,,
dig,202,632573,0.0-64.0-0.0,,,,,,,,,,,"[{""stimulus"":""run_exp/static/images/task_images/dig.jpg"",""time"":0.15999999595806003},{""stimulus"":""run_exp/static/images/task_images/land.jpg"",""time"":626.4899999951012},{""stimulus"":""run_exp/static/images/task_images/dig.jpg"",""time"":1233.8150000141468}]",[],7,,,,,,,,,,,,,,
harvest,203,633575,0.0-64.0-1.0,,null,run_exp/static/images/task_images/gems/27.jpg,null,,,,,,22,,,7,,,,,27,0.831913605,0.814814815,,,,,,,
decision,204,633844,0.0-64.0-2.0,,266.075,run_exp/static/images/task_images/land.jpg,65,,,,,,22,,,7,,,,,,,,261894,1,7,FALSE,,,
dig,205,636583,0.0-65.0-0.0,,,,,,,,,,,"[{""stimulus"":""run_exp/static/images/task_images/dig.jpg"",""time"":0.11500000255182385},{""stimulus"":""run_exp/static/images/task_images/land.jpg"",""time"":913.0050000094343},{""stimulus"":""run_exp/static/images/task_images/dig.jpg"",""time"":1830.8649999962654}]",[],7,,,,,,,,,,,,,,
harvest,206,637597,0.0-65.0-1.0,,null,run_exp/static/images/task_images/gems/22.jpg,null,,,,,,20,,,7,,,,,22,0.906364465,0.909090909,,,,,,,
decision,207,637657,0.0-65.0-2.0,,58.60000002,run_exp/static/images/task_images/land.jpg,65,,,,,,20,,,7,,,,,,,,265707,1,8,FALSE,,,
dig,208,640605,0.0-66.0-0.0,,,,,,,,,,,"[{""stimulus"":""run_exp/static/images/task_images/dig.jpg"",""time"":0.12000001152046025},{""stimulus"":""run_exp/static/images/task_images/land.jpg"",""time"":992.7350000070874},{""stimulus"":""run_exp/static/images/task_images/dig.jpg"",""time"":1963.6699999973644}]",[],7,,,,,,,,,,,,,,
harvest,209,641617,0.0-66.0-1.0,,null,run_exp/static/images/task_images/gems/20.jpg,null,,,,,,15,,,7,,,,,20,0.773546944,0.75,,,,,,,
decision,210,641634,0.0-66.0-2.0,,14.88,run_exp/static/images/task_images/land.jpg,76,,,,,,15,,,7,,,,,,,,269684,1,9,TRUE,,,
travel,211,651623,0.0-67.0-0.0,,,,,,,,,,,"[{""stimulus"":""run_exp/static/images/task_images/rocket-01.jpg"",""time"":0.11500000255182385},{""stimulus"":""run_exp/static/images/task_images/rocket-02.jpg"",""time"":1123.250000004191},{""stimulus"":""run_exp/static/images/task_images/rocket-03.jpg"",""time"":2231.984999991255},{""stimulus"":""run_exp/static/images/task_images/rocket-04.jpg"",""time"":3341.9799999974202},{""stimulus"":""run_exp/static/images/task_images/rocket-05.jpg"",""time"":4440.589999983786},{""stimulus"":""run_exp/static/images/task_images/rocket-06.jpg"",""time"":5549.830000003567},{""stimulus"":""run_exp/static/images/task_images/rocket-07.jpg"",""time"":6658.384999987902},{""stimulus"":""run_exp/static/images/task_images/rocket-08.jpg"",""time"":7779.544999997597},{""stimulus"":""run_exp/static/images/task_images/rocket-09.jpg"",""time"":8877.840000001015}]",[],7,,,,,,,,,,,,,,
alien_welcome,212,656637,0.0-67.0-1.0,,null,run_exp/static/images/task_images/aliens/old_aliens/planet/alien_planet-36.jpg,null,,,,,,,,,,,,36,"45,30,47,27,26,17,41,36,35,77,31,64,18,57,67,65,76,12,74,21,33,5,60,11,28,80,37,25,63",,,,,,,,,,
land,213,657148,0.0-67.0-2.0,,null,run_exp/static/images/task_images/land.jpg,null,,,,,,101,,,8,,,,,,,,,,,,,,
dig,214,659154,0.0-67.0-3.0,,,,,,,,,,,"[{""stimulus"":""run_exp/static/images/task_images/dig.jpg"",""time"":0.20000000949949026},{""stimulus"":""run_exp/static/images/task_images/land.jpg"",""time"":681.429999996908},{""stimulus"":""run_exp/static/images/task_images/dig.jpg"",""time"":1342.3649999895133}]",[],8,,,,,,,,,,,,,,
harvest,215,660157,0.0-67.0-4.0,,null,run_exp/static/images/task_images/gems/101.jpg,null,,,,,,80,,,8,,,,,101,0.789997546,0.792079208,,,,,,,
decision,216,660202,0.0-67.0-5.0,,42.56500001,run_exp/static/images/task_images/land.jpg,65,,,,,,80,,,8,,,,,,,,288252,1,0,FALSE,,,
dig,217,663165,0.0-68.0-0.0,,,,,,,,,,,"[{""stimulus"":""run_exp/static/images/task_images/dig.jpg"",""time"":0.14000001829117537},{""stimulus"":""run_exp/static/images/task_images/land.jpg"",""time"":1002.9950000171084},{""stimulus"":""run_exp/static/images/task_images/dig.jpg"",""time"":1978.1099999963772}]",[],8,,,,,,,,,,,,,,
harvest,218,664167,0.0-68.0-1.0,,null,run_exp/static/images/task_images/gems/80.jpg,null,,,,,,66,,,8,,,,,80,0.829357225,0.825,,,,,,,
decision,219,664527,0.0-68.0-2.0,,358.1,run_exp/static/images/task_images/land.jpg,65,,,,,,66,,,8,,,,,,,,292578,1,1,FALSE,,,
dig,220,667182,0.0-69.0-0.0,,,,,,,,,,,"[{""stimulus"":""run_exp/static/images/task_images/dig.jpg"",""time"":0.1500000071246177},{""stimulus"":""run_exp/static/images/task_images/land.jpg"",""time"":886.6850000049453},{""stimulus"":""run_exp/static/images/task_images/dig.jpg"",""time"":1781.2100000155624}]",[],8,,,,,,,,,,,,,,
harvest,221,668188,0.0-69.0-1.0,,null,run_exp/static/images/task_images/gems/66.jpg,null,,,,,,52,,,8,,,,,66,0.783258421,0.787878788,,,,,,,
decision,222,668438,0.0-69.0-2.0,,248.03,run_exp/static/images/task_images/land.jpg,65,,,,,,52,,,8,,,,,,,,296488,1,2,FALSE,,,
dig,223,671197,0.0-70.0-0.0,,,,,,,,,,,"[{""stimulus"":""run_exp/static/images/task_images/dig.jpg"",""time"":0.12500002048909664},{""stimulus"":""run_exp/static/images/task_images/land.jpg"",""time"":932.2850000171456},{""stimulus"":""run_exp/static/images/task_images/dig.jpg"",""time"":1838.994999998249}]",[],8,,,,,,,,,,,,,,
harvest,224,672210,0.0-70.0-1.0,,null,run_exp/static/images/task_images/gems/52.jpg,null,,,,,,42,,,8,,,,,52,0.808695351,0.807692308,,,,,,,
decision,225,672387,0.0-70.0-2.0,,174.88,run_exp/static/images/task_images/land.jpg,65,,,,,,42,,,8,,,,,,,,300437,1,3,TRUE,,,
end_of_block_continue,226,681214,0.0-71.0-0.0,,null,run_exp/static/audio/clip_32_block_end.m4a,,,,,,null,,,,,,,,,,,,,,,,,,
alien_welcome,227,686237,0.0-72.0-0.0,,null,run_exp/static/images/task_images/aliens/old_aliens/planet/alien_planet-35.jpg,null,,,,,,,,,,,,35,"45,30,47,27,26,17,41,36,35,77,31,64,18,57,67,65,76,12,74,21,33,5,60,11,28,80,37,25,63",,,,,,,,,,
land,228,686749,0.0-72.0-1.0,,null,run_exp/static/images/task_images/land.jpg,null,,,,,,100,,,9,,,,,,,,,,,,,,
dig,229,688765,0.0-72.0-2.0,,,,,,,,,,,"[{""stimulus"":""run_exp/static/images/task_images/dig.jpg"",""time"":0.18500001169741154},{""stimulus"":""run_exp/static/images/task_images/land.jpg"",""time"":680.1700000069104},{""stimulus"":""run_exp/static/images/task_images/dig.jpg"",""time"":1345.41999999783}]",[],9,,,,,,,,,,,,,,
harvest,230,689768,0.0-72.0-3.0,,null,run_exp/static/images/task_images/gems/100.jpg,null,,,,,,17,,,9,,,,,100,0.173490349,0.17,,,,,,,
decision,231,689889,0.0-72.0-4.0,,119.54,run_exp/static/images/task_images/land.jpg,65,,,,,,17,,,9,,,,,,,,8671,2,0,FALSE,,,
dig,232,692775,0.0-73.0-0.0,,,,,,,,,,,"[{""stimulus"":""run_exp/static/images/task_images/dig.jpg"",""time"":0.18499998259358108},{""stimulus"":""run_exp/static/images/task_images/land.jpg"",""time"":961.1450000084005},{""stimulus"":""run_exp/static/images/task_images/dig.jpg"",""time"":1923.2750000082888}]",[],9,,,,,,,,,,,,,,
harvest,233,693789,0.0-73.0-1.0,,null,run_exp/static/images/task_images/gems/17.jpg,null,,,,,,4,,,9,,,,,17,0.225689931,0.235294118,,,,,,,
decision,234,693818,0.0-73.0-2.0,,26.56500001,run_exp/static/images/task_images/land.jpg,65,,,,,,4,,,9,,,,,,,,12600,2,1,FALSE,,,
dig,235,696807,0.0-74.0-0.0,,,,,,,,,,,"[{""stimulus"":""run_exp/static/images/task_images/dig.jpg"",""time"":0.1399999891873449},{""stimulus"":""run_exp/static/images/task_images/land.jpg"",""time"":1013.1450000044424},{""stimulus"":""run_exp/static/images/task_images/dig.jpg"",""time"":1993.6349999916274}]",[],9,,,,,,,,,,,,,,
harvest,236,697810,0.0-74.0-1.0,,null,run_exp/static/images/task_images/gems/4.jpg,null,,,,,,1,,,9,,,,,4,0.144895775,0.25,,,,,,,
decision,237,697974,0.0-74.0-2.0,,161.415,run_exp/static/images/task_images/land.jpg,65,,,,,,1,,,9,,,,,,,,16756,2,2,FALSE,,,
dig,238,700829,0.0-75.0-0.0,,,,,,,,,,,"[{""stimulus"":""run_exp/static/images/task_images/dig.jpg"",""time"":0.13500000932253897},{""stimulus"":""run_exp/static/images/task_images/land.jpg"",""time"":953.2600000093225},{""stimulus"":""run_exp/static/images/task_images/dig.jpg"",""time"":1902.4799999897368}]",[],9,,,,,,,,,,,,,,
harvest,239,701831,0.0-75.0-1.0,,null,run_exp/static/images/task_images/gems/1.jpg,null,,,,,,0,,,9,,,,,1,0.227768794,0,,,,,,,
decision,240,703744,0.0-75.0-2.0,,1910.235,run_exp/static/images/task_images/land.jpg,65,,,,,,0,,,9,,,,,,,,22526,2,3,FALSE,,,
dig,241,704840,0.0-76.0-0.0,,,,,,,,,,,"[{""stimulus"":""run_exp/static/images/task_images/dig.jpg"",""time"":0.11999998241662979},{""stimulus"":""run_exp/static/images/task_images/land.jpg"",""time"":377.8149999852758},{""stimulus"":""run_exp/static/images/task_images/dig.jpg"",""time"":740.3950000007171}]",[],9,,,,,,,,,,,,,,
harvest,242,705842,0.0-76.0-1.0,,null,run_exp/static/images/task_images/gems/0.jpg,null,,,,,,0,,,9,,,,,0,0.216758727,NaN,,,,,,,
decision,243,706203,0.0-76.0-2.0,,358.445,run_exp/static/images/task_images/land.jpg,65,,,,,,0,,,9,,,,,,,,24985,2,4,FALSE,,,
dig,244,708850,0.0-77.0-0.0,,,,,,,,,,,"[{""stimulus"":""run_exp/static/images/task_images/dig.jpg"",""time"":0.13500000932253897},{""stimulus"":""run_exp/static/images/task_images/land.jpg"",""time"":894.8850000160746},{""stimulus"":""run_exp/static/images/task_images/dig.jpg"",""time"":1769.7450000268873}]",[],9,,,,,,,,,,,,,,
harvest,245,709853,0.0-77.0-1.0,,null,run_exp/static/images/task_images/gems/0.jpg,null,,,,,,0,,,9,,,,,0,0.148819096,NaN,,,,,,,
decision,246,710084,0.0-77.0-2.0,,229.845,run_exp/static/images/task_images/land.jpg,76,,,,,,0,,,9,,,,,,,,28867,2,5,TRUE,,,
travel,247,719854,0.0-78.0-0.0,,,,,,,,,,,"[{""stimulus"":""run_exp/static/images/task_images/rocket-01.jpg"",""time"":0.15499998698942363},{""stimulus"":""run_exp/static/images/task_images/rocket-02.jpg"",""time"":1087.1299999998882},{""stimulus"":""run_exp/static/images/task_images/rocket-03.jpg"",""time"":2176.544999994803},{""stimulus"":""run_exp/static/images/task_images/rocket-04.jpg"",""time"":3264.3450000032317},{""stimulus"":""run_exp/static/images/task_images/rocket-05.jpg"",""time"":4351.865000004182},{""stimulus"":""run_exp/static/images/task_images/rocket-06.jpg"",""time"":5439.974999986589},{""stimulus"":""run_exp/static/images/task_images/rocket-07.jpg"",""time"":6516.734999982873},{""stimulus"":""run_exp/static/images/task_images/rocket-08.jpg"",""time"":7605.454999982612},{""stimulus"":""run_exp/static/images/task_images/rocket-09.jpg"",""time"":8682.514999993145}]",[],9,,,,,,,,,,,,,,
alien_welcome,248,724872,0.0-78.0-1.0,,null,run_exp/static/images/task_images/aliens/old_aliens/planet/alien_planet-77.jpg,null,,,,,,,,,,,,77,"45,30,47,27,26,17,41,36,35,77,31,64,18,57,67,65,76,12,74,21,33,5,60,11,28,80,37,25,63",,,,,,,,,,
land,249,725384,0.0-78.0-2.0,,null,run_exp/static/images/task_images/land.jpg,null,,,,,,103,,,10,,,,,,,,,,,,,,
dig,250,727389,0.0-78.0-3.0,,,,,,,,,,,"[{""stimulus"":""run_exp/static/images/task_images/dig.jpg"",""time"":0.18500001169741154},{""stimulus"":""run_exp/static/images/task_images/land.jpg"",""time"":671.5550000080839},{""stimulus"":""run_exp/static/images/task_images/dig.jpg"",""time"":1336.47499998915}]",[],10,,,,,,,,,,,,,,
harvest,251,728402,0.0-78.0-4.0,,null,run_exp/static/images/task_images/gems/103.jpg,null,,,,,,20,,,10,,,,,103,0.196665582,0.194174757,,,,,,,
decision,252,728894,0.0-78.0-5.0,,488.9,run_exp/static/images/task_images/land.jpg,65,,,,,,20,,,10,,,,,,,,47676,2,0,FALSE,,,
dig,253,731420,0.0-79.0-0.0,,,,,,,,,,,"[{""stimulus"":""run_exp/static/images/task_images/dig.jpg"",""time"":0.1449999981559813},{""stimulus"":""run_exp/static/images/task_images/land.jpg"",""time"":838.8549999799579},{""stimulus"":""run_exp/static/images/task_images/dig.jpg"",""time"":1691.7399999802}]",[],10,,,,,,,,,,,,,,
harvest,254,732433,0.0-79.0-1.0,,null,run_exp/static/images/task_images/gems/20.jpg,null,,,,,,5,,,10,,,,,20,0.263433149,0.25,,,,,,,
decision,255,732727,0.0-79.0-2.0,,292.595,run_exp/static/images/task_images/land.jpg,65,,,,,,5,,,10,,,,,,,,51509,2,1,FALSE,,,
dig,256,735451,0.0-80.0-0.0,,,,,,,,,,,"[{""stimulus"":""run_exp/static/images/task_images/dig.jpg"",""time"":0.18999999156221747},{""stimulus"":""run_exp/static/images/task_images/land.jpg"",""time"":919.3599999998696},{""stimulus"":""run_exp/static/images/task_images/dig.jpg"",""time"":1814.9299999931827}]",[],10,,,,,,,,,,,,,,
harvest,257,736455,0.0-80.0-1.0,,null,run_exp/static/images/task_images/gems/5.jpg,null,,,,,,1,,,10,,,,,5,0.113937179,0.2,,,,,,,
decision,258,736499,0.0-80.0-2.0,,42.24500002,run_exp/static/images/task_images/land.jpg,65,,,,,,1,,,10,,,,,,,,55281,2,2,FALSE,,,
dig,259,739462,0.0-81.0-0.0,,,,,,,,,,,"[{""stimulus"":""run_exp/static/images/task_images/dig.jpg"",""time"":0.11999998241662979},{""stimulus"":""run_exp/static/images/task_images/land.jpg"",""time"":997.9849999945145},{""stimulus"":""run_exp/static/images/task_images/dig.jpg"",""time"":1974.5750000001863}]",[],10,,,,,,,,,,,,,,
harvest,260,740476,0.0-81.0-1.0,,null,run_exp/static/images/task_images/gems/1.jpg,null,,,,,,0,,,10,,,,,1,0.202971418,0,,,,,,,
decision,261,743285,0.0-81.0-2.0,,2807.145,run_exp/static/images/task_images/land.jpg,76,,,,,,0,,,10,,,,,,,,62067,2,3,TRUE,,,
travel,262,750492,0.0-82.0-0.0,,,,,,,,,,,"[{""stimulus"":""run_exp/static/images/task_images/rocket-01.jpg"",""time"":0.12500002048909664},{""stimulus"":""run_exp/static/images/task_images/rocket-02.jpg"",""time"":814.8150000197347},{""stimulus"":""run_exp/static/images/task_images/rocket-03.jpg"",""time"":1614.6850000077393},{""stimulus"":""run_exp/static/images/task_images/rocket-04.jpg"",""time"":2403.250000003027},{""stimulus"":""run_exp/static/images/task_images/rocket-05.jpg"",""time"":3198.085000010906},{""stimulus"":""run_exp/static/images/task_images/rocket-06.jpg"",""time"":4003.885000012815},{""stimulus"":""run_exp/static/images/task_images/rocket-07.jpg"",""time"":4814.314999995986},{""stimulus"":""run_exp/static/images/task_images/rocket-08.jpg"",""time"":5608.540000015637},{""stimulus"":""run_exp/static/images/task_images/rocket-09.jpg"",""time"":6393.520000012359}]",[],10,,,,,,,,,,,,,,
alien_welcome,263,755506,0.0-82.0-1.0,,null,run_exp/static/images/task_images/aliens/old_aliens/planet/alien_planet-31.jpg,null,,,,,,,,,,,,31,"45,30,47,27,26,17,41,36,35,77,31,64,18,57,67,65,76,12,74,21,33,5,60,11,28,80,37,25,63",,,,,,,,,,
land,264,756018,0.0-82.0-2.0,,null,run_exp/static/images/task_images/land.jpg,null,,,,,,105,,,11,,,,,,,,,,,,,,
dig,265,758033,0.0-82.0-3.0,,,,,,,,,,,"[{""stimulus"":""run_exp/static/images/task_images/dig.jpg"",""time"":0.19000002066604793},{""stimulus"":""run_exp/static/images/task_images/land.jpg"",""time"":681.5650000062305},{""stimulus"":""run_exp/static/images/task_images/dig.jpg"",""time"":1336.185000021942}]",[],11,,,,,,,,,,,,,,
harvest,266,759044,0.0-82.0-4.0,,null,run_exp/static/images/task_images/gems/105.jpg,null,,,,,,23,,,11,,,,,105,0.21645768,0.219047619,,,,,,,
decision,267,759233,0.0-82.0-5.0,,186.815,run_exp/static/images/task_images/land.jpg,65,,,,,,23,,,11,,,,,,,,78015,2,0,FALSE,,,
dig,268,762049,0.0-83.0-0.0,,,,,,,,,,,"[{""stimulus"":""run_exp/static/images/task_images/dig.jpg"",""time"":0.12500002048909664},{""stimulus"":""run_exp/static/images/task_images/land.jpg"",""time"":951.9900000013877},{""stimulus"":""run_exp/static/images/task_images/dig.jpg"",""time"":1887.5050000206102}]",[],11,,,,,,,,,,,,,,
harvest,269,763057,0.0-83.0-1.0,,null,run_exp/static/images/task_images/gems/23.jpg,null,,,,,,7,,,11,,,,,23,0.301596591,0.304347826,,,,,,,
decision,270,763183,0.0-83.0-2.0,,123.765,run_exp/static/images/task_images/land.jpg,65,,,,,,7,,,11,,,,,,,,81965,2,1,FALSE,,,
dig,271,766066,0.0-84.0-0.0,,,,,,,,,,,"[{""stimulus"":""run_exp/static/images/task_images/dig.jpg"",""time"":0.11999998241662979},{""stimulus"":""run_exp/static/images/task_images/land.jpg"",""time"":963.7599999841768},{""stimulus"":""run_exp/static/images/task_images/dig.jpg"",""time"":1918.8349999894854}]",[],11,,,,,,,,,,,,,,
harvest,272,767078,0.0-84.0-1.0,,null,run_exp/static/images/task_images/gems/7.jpg,null,,,,,,1,,,11,,,,,7,0.168973632,0.142857143,,,,,,,
decision,273,767351,0.0-84.0-2.0,,269.94,run_exp/static/images/task_images/land.jpg,65,,,,,,1,,,11,,,,,,,,86133,2,2,FALSE,,,
dig,274,770097,0.0-85.0-0.0,,,,,,,,,,,"[{""stimulus"":""run_exp/static/images/task_images/dig.jpg"",""time"":0.11999998241662979},{""stimulus"":""run_exp/static/images/task_images/land.jpg"",""time"":930.1449999911711},{""stimulus"":""run_exp/static/images/task_images/dig.jpg"",""time"":1826.7399999895133}]",[],11,,,,,,,,,,,,,,
harvest,275,771110,0.0-85.0-1.0,,null,run_exp/static/images/task_images/gems/1.jpg,null,,,,,,0,,,11,,,,,1,0.206417943,0,,,,,,,
decision,276,772024,0.0-85.0-2.0,,910.495,run_exp/static/images/task_images/land.jpg,65,,,,,,0,,,11,,,,,,,,90806,2,3,FALSE,,,
dig,277,774119,0.0-86.0-0.0,,,,,,,,,,,"[{""stimulus"":""run_exp/static/images/task_images/dig.jpg"",""time"":0.16999998479150236},{""stimulus"":""run_exp/static/images/task_images/land.jpg"",""time"":705.4249999928288},{""stimulus"":""run_exp/static/images/task_images/dig.jpg"",""time"":1399.119999987306}]",[],11,,,,,,,,,,,,,,
harvest,278,775132,0.0-86.0-1.0,,null,run_exp/static/images/task_images/gems/0.jpg,null,,,,,,0,,,11,,,,,0,0.154048668,NaN,,,,,,,
decision,279,775713,0.0-86.0-2.0,,579.635,run_exp/static/images/task_images/land.jpg,76,,,,,,0,,,11,,,,,,,,94495,2,4,TRUE,,,
travel,280,785137,0.0-87.0-0.0,,,,,,,,,,,"[{""stimulus"":""run_exp/static/images/task_images/rocket-01.jpg"",""time"":0.1700000138953328},{""stimulus"":""run_exp/static/images/task_images/rocket-02.jpg"",""time"":1066.7050000047311},{""stimulus"":""run_exp/static/images/task_images/rocket-03.jpg"",""time"":2101.5349999943282},{""stimulus"":""run_exp/static/images/task_images/rocket-04.jpg"",""time"":3147.2000000067055},{""stimulus"":""run_exp/static/images/task_images/rocket-05.jpg"",""time"":4192.315000022063},{""stimulus"":""run_exp/static/images/task_images/rocket-06.jpg"",""time"":5248.395000002347},{""stimulus"":""run_exp/static/images/task_images/rocket-07.jpg"",""time"":6292.950000002747},{""stimulus"":""run_exp/static/images/task_images/rocket-08.jpg"",""time"":7339.105000020936},{""stimulus"":""run_exp/static/images/task_images/rocket-09.jpg"",""time"":8373.55000001844}]",[],11,,,,,,,,,,,,,,
alien_welcome,281,790161,0.0-87.0-1.0,,null,run_exp/static/images/task_images/aliens/old_aliens/planet/alien_planet-64.jpg,null,,,,,,,,,,,,64,"45,30,47,27,26,17,41,36,35,77,31,64,18,57,67,65,76,12,74,21,33,5,60,11,28,80,37,25,63",,,,,,,,,,
land,282,790676,0.0-87.0-2.0,,null,run_exp/static/images/task_images/land.jpg,null,,,,,,101,,,12,,,,,,,,,,,,,,
dig,283,792695,0.0-87.0-3.0,,,,,,,,,,,"[{""stimulus"":""run_exp/static/images/task_images/dig.jpg"",""time"":0.18500001169741154},{""stimulus"":""run_exp/static/images/task_images/land.jpg"",""time"":679.9900000041816},{""stimulus"":""run_exp/static/images/task_images/dig.jpg"",""time"":1351.6700000036508}]",[],12,,,,,,,,,,,,,,
harvest,284,793703,0.0-87.0-4.0,,null,run_exp/static/images/task_images/gems/101.jpg,null,,,,,,84,,,12,,,,,101,0.834289762,0.831683168,,,,,,,
decision,285,793820,0.0-87.0-5.0,,113.785,run_exp/static/images/task_images/land.jpg,65,,,,,,84,,,12,,,,,,,,112602,2,0,FALSE,,,
dig,286,796722,0.0-88.0-0.0,,,,,,,,,,,"[{""stimulus"":""run_exp/static/images/task_images/dig.jpg"",""time"":0.12000001152046025},{""stimulus"":""run_exp/static/images/task_images/land.jpg"",""time"":968.2099999918137},{""stimulus"":""run_exp/static/images/task_images/dig.jpg"",""time"":1938.5250000050291}]",[],12,,,,,,,,,,,,,,
harvest,287,797735,0.0-88.0-1.0,,null,run_exp/static/images/task_images/gems/84.jpg,null,,,,,,66,,,12,,,,,84,0.784578705,0.785714286,,,,,,,
decision,288,797921,0.0-88.0-2.0,,183.755,run_exp/static/images/task_images/land.jpg,65,,,,,,66,,,12,,,,,,,,116703,2,1,FALSE,,,
dig,289,800754,0.0-89.0-0.0,,,,,,,,,,,"[{""stimulus"":""run_exp/static/images/task_images/dig.jpg"",""time"":0.12499999138526618},{""stimulus"":""run_exp/static/images/task_images/land.jpg"",""time"":953.6899999948218},{""stimulus"":""run_exp/static/images/task_images/dig.jpg"",""time"":1881.0349999985192}]",[],12,,,,,,,,,,,,,,
harvest,290,801767,0.0-89.0-1.0,,null,run_exp/static/images/task_images/gems/66.jpg,null,,,,,,53,,,12,,,,,66,0.796281005,0.803030303,,,,,,,
decision,291,801975,0.0-89.0-2.0,,205.39,run_exp/static/images/task_images/land.jpg,65,,,,,,53,,,12,,,,,,,,120757,2,2,FALSE,,,
dig,292,804786,0.0-90.0-0.0,,,,,,,,,,,"[{""stimulus"":""run_exp/static/images/task_images/dig.jpg"",""time"":0.10999999358318746},{""stimulus"":""run_exp/static/images/task_images/land.jpg"",""time"":941.6649999911897},{""stimulus"":""run_exp/static/images/task_images/dig.jpg"",""time"":1869.475000014063}]",[],12,,,,,,,,,,,,,,
harvest,293,805789,0.0-90.0-1.0,,null,run_exp/static/images/task_images/gems/53.jpg,null,,,,,,47,,,12,,,,,53,0.88581167,0.886792453,,,,,,,
decision,294,807386,0.0-90.0-2.0,,1595.1,run_exp/static/images/task_images/land.jpg,76,,,,,,47,,,12,,,,,,,,126168,2,3,TRUE,,,
travel,295,815791,0.0-91.0-0.0,,,,,,,,,,,"[{""stimulus"":""run_exp/static/images/task_images/rocket-01.jpg"",""time"":0.13000000035390258},{""stimulus"":""run_exp/static/images/task_images/rocket-02.jpg"",""time"":938.5499999916647},{""stimulus"":""run_exp/static/images/task_images/rocket-03.jpg"",""time"":1877.0200000144541},{""stimulus"":""run_exp/static/images/task_images/rocket-04.jpg"",""time"":2815.3999999922235},{""stimulus"":""run_exp/static/images/task_images/rocket-05.jpg"",""time"":3754.3749999895226},{""stimulus"":""run_exp/static/images/task_images/rocket-06.jpg"",""time"":4672.120000002906},{""stimulus"":""run_exp/static/images/task_images/rocket-07.jpg"",""time"":5609.815000003437},{""stimulus"":""run_exp/static/images/task_images/rocket-08.jpg"",""time"":6548.435000004247},{""stimulus"":""run_exp/static/images/task_images/rocket-09.jpg"",""time"":7465.534999995725}]",[],12,,,,,,,,,,,,,,
alien_welcome,296,820803,0.0-91.0-1.0,,null,run_exp/static/images/task_images/aliens/old_aliens/planet/alien_planet-18.jpg,null,,,,,,,,,,,,18,"45,30,47,27,26,17,41,36,35,77,31,64,18,57,67,65,76,12,74,21,33,5,60,11,28,80,37,25,63",,,,,,,,,,
land,297,821320,0.0-91.0-2.0,,null,run_exp/static/images/task_images/land.jpg,null,,,,,,103,,,13,,,,,,,,,,,,,,
dig,298,823324,0.0-91.0-3.0,,,,,,,,,,,"[{""stimulus"":""run_exp/static/images/task_images/dig.jpg"",""time"":0.18500001169741154},{""stimulus"":""run_exp/static/images/task_images/land.jpg"",""time"":680.7200000039302},{""stimulus"":""run_exp/static/images/task_images/dig.jpg"",""time"":1342.1300000045449}]",[],13,,,,,,,,,,,,,,
harvest,299,824328,0.0-91.0-4.0,,null,run_exp/static/images/task_images/gems/103.jpg,null,,,,,,83,,,13,,,,,103,0.802094766,0.805825243,,,,,,,
decision,300,824793,0.0-91.0-5.0,,462.91,run_exp/static/images/task_images/land.jpg,65,,,,,,83,,,13,,,,,,,,143575,2,0,FALSE,,,
dig,301,827336,0.0-92.0-0.0,,,,,,,,,,,"[{""stimulus"":""run_exp/static/images/task_images/dig.jpg"",""time"":0.18999999156221747},{""stimulus"":""run_exp/static/images/task_images/land.jpg"",""time"":854.4950000068638},{""stimulus"":""run_exp/static/images/task_images/dig.jpg"",""time"":1696.9800000078976}]",[],13,,,,,,,,,,,,,,
harvest,302,828338,0.0-92.0-1.0,,null,run_exp/static/images/task_images/gems/83.jpg,null,,,,,,67,,,13,,,,,83,0.805232597,0.807228916,,,,,,,
decision,303,828412,0.0-92.0-2.0,,72.315,run_exp/static/images/task_images/land.jpg,65,,,,,,67,,,13,,,,,,,,147194,2,1,FALSE,,,
dig,304,831346,0.0-93.0-0.0,,,,,,,,,,,"[{""stimulus"":""run_exp/static/images/task_images/dig.jpg"",""time"":0.1149999734479934},{""stimulus"":""run_exp/static/images/task_images/land.jpg"",""time"":978.5549999796785},{""stimulus"":""run_exp/static/images/task_images/dig.jpg"",""time"":1959.884999989299}]",[],13,,,,,,,,,,,,,,
harvest,305,832349,0.0-93.0-1.0,,null,run_exp/static/images/task_images/gems/67.jpg,null,,,,,,55,,,13,,,,,67,0.821524365,0.820895522,,,,,,,
decision,306,832535,0.0-93.0-2.0,,184.31,run_exp/static/images/task_images/land.jpg,65,,,,,,55,,,13,,,,,,,,151317,2,2,FALSE,,,
dig,307,835357,0.0-94.0-0.0,,,,,,,,,,,"[{""stimulus"":""run_exp/static/images/task_images/dig.jpg"",""time"":0.12500002048909664},{""stimulus"":""run_exp/static/images/task_images/land.jpg"",""time"":952.1400000085123},{""stimulus"":""run_exp/static/images/task_images/dig.jpg"",""time"":1879.3250000162516}]",[],13,,,,,,,,,,,,,,
harvest,308,836370,0.0-94.0-1.0,,null,run_exp/static/images/task_images/gems/55.jpg,null,,,,,,46,,,13,,,,,55,0.828425403,0.836363636,,,,,,,
decision,309,836865,0.0-94.0-2.0,,492.115,run_exp/static/images/task_images/land.jpg,65,,,,,,46,,,13,,,,,,,,155647,2,3,FALSE,,,
dig,310,839378,0.0-95.0-0.0,,,,,,,,,,,"[{""stimulus"":""run_exp/static/images/task_images/dig.jpg"",""time"":0.11500000255182385},{""stimulus"":""run_exp/static/images/task_images/land.jpg"",""time"":856.3250000006519},{""stimulus"":""run_exp/static/images/task_images/dig.jpg"",""time"":1688.384999986738}]",[],13,,,,,,,,,,,,,,
harvest,311,840391,0.0-95.0-1.0,,null,run_exp/static/images/task_images/gems/46.jpg,null,,,,,,40,,,13,,,,,46,0.863290757,0.869565217,,,,,,,
decision,312,840900,0.0-95.0-2.0,,506.79,run_exp/static/images/task_images/land.jpg,65,,,,,,40,,,13,,,,,,,,159682,2,4,FALSE,,,
dig,313,843410,0.0-96.0-0.0,,,,,,,,,,,"[{""stimulus"":""run_exp/static/images/task_images/dig.jpg"",""time"":0.14500002725981176},{""stimulus"":""run_exp/static/images/task_images/land.jpg"",""time"":832.23500000895},{""stimulus"":""run_exp/static/images/task_images/dig.jpg"",""time"":1664.230000023963}]",[],13,,,,,,,,,,,,,,
harvest,314,844423,0.0-96.0-1.0,,null,run_exp/static/images/task_images/gems/40.jpg,null,,,,,,34,,,13,,,,,40,0.85782991,0.85,,,,,,,
decision,315,844489,0.0-96.0-2.0,,62.79999999,run_exp/static/images/task_images/land.jpg,65,,,,,,34,,,13,,,,,,,,163271,2,5,FALSE,,,
dig,316,847432,0.0-97.0-0.0,,,,,,,,,,,"[{""stimulus"":""run_exp/static/images/task_images/dig.jpg"",""time"":0.13500000932253897},{""stimulus"":""run_exp/static/images/task_images/land.jpg"",""time"":997.0500000054017},{""stimulus"":""run_exp/static/images/task_images/dig.jpg"",""time"":1978.8750000006985}]",[],13,,,,,,,,,,,,,,
harvest,317,848455,0.0-97.0-1.0,,null,run_exp/static/images/task_images/gems/34.jpg,null,,,,,,28,,,13,,,,,34,0.815710159,0.823529412,,,,,,,
decision,318,848727,0.0-97.0-2.0,,268.85,run_exp/static/images/task_images/land.jpg,65,,,,,,28,,,13,,,,,,,,167509,2,6,FALSE,,,
dig,319,851474,0.0-98.0-0.0,,,,,,,,,,,"[{""stimulus"":""run_exp/static/images/task_images/dig.jpg"",""time"":0.12500002048909664},{""stimulus"":""run_exp/static/images/task_images/land.jpg"",""time"":919.6999999985565},{""stimulus"":""run_exp/static/images/task_images/dig.jpg"",""time"":1837.5150000210851}]",[],13,,,,,,,,,,,,,,
harvest,320,852487,0.0-98.0-1.0,,null,run_exp/static/images/task_images/gems/28.jpg,null,,,,,,24,,,13,,,,,28,0.841187896,0.857142857,,,,,,,
decision,321,852753,0.0-98.0-2.0,,262.645,run_exp/static/images/task_images/land.jpg,65,,,,,,24,,,13,,,,,,,,171535,2,7,FALSE,,,
dig,322,855506,0.0-99.0-0.0,,,,,,,,,,,"[{""stimulus"":""run_exp/static/images/task_images/dig.jpg"",""time"":0.1500000071246177},{""stimulus"":""run_exp/static/images/task_images/land.jpg"",""time"":925.9899999888148},{""stimulus"":""run_exp/static/images/task_images/dig.jpg"",""time"":1843.0649999936577}]",[],13,,,,,,,,,,,,,,
harvest,323,856508,0.0-99.0-1.0,,null,run_exp/static/images/task_images/gems/24.jpg,null,,,,,,18,,,13,,,,,24,0.755658574,0.75,,,,,,,
decision,324,856882,0.0-99.0-2.0,,371.87,run_exp/static/images/task_images/land.jpg,65,,,,,,18,,,13,,,,,,,,175664,2,8,FALSE,,,
dig,325,859527,0.0-100.0-0.0,,,,,,,,,,,"[{""stimulus"":""run_exp/static/images/task_images/dig.jpg"",""time"":0.12000001152046025},{""stimulus"":""run_exp/static/images/task_images/land.jpg"",""time"":876.7799999914132},{""stimulus"":""run_exp/static/images/task_images/dig.jpg"",""time"":1767.2549999842886}]",[],13,,,,,,,,,,,,,,
harvest,326,860540,0.0-100.0-1.0,,null,run_exp/static/images/task_images/gems/18.jpg,null,,,,,,16,,,13,,,,,18,0.865631264,0.888888889,,,,,,,
decision,327,860571,0.0-100.0-2.0,,29.87,run_exp/static/images/task_images/land.jpg,65,,,,,,16,,,13,,,,,,,,179353,2,9,FALSE,,,
dig,328,863553,0.0-101.0-0.0,,,,,,,,,,,"[{""stimulus"":""run_exp/static/images/task_images/dig.jpg"",""time"":0.1799999736249447},{""stimulus"":""run_exp/static/images/task_images/land.jpg"",""time"":992.6500000001397},{""stimulus"":""run_exp/static/images/task_images/dig.jpg"",""time"":1992.6749999867752}]",[],13,,,,,,,,,,,,,,
harvest,329,864562,0.0-101.0-1.0,,null,run_exp/static/images/task_images/gems/16.jpg,null,,,,,,14,,,13,,,,,16,0.85184352,0.875,,,,,,,
decision,330,864849,0.0-101.0-2.0,,285.215,run_exp/static/images/task_images/land.jpg,76,,,,,,14,,,13,,,,,,,,183631,2,10,TRUE,,,
travel,331,874567,0.0-102.0-0.0,,,,,,,,,,,"[{""stimulus"":""run_exp/static/images/task_images/rocket-01.jpg"",""time"":0.14999997802078724},{""stimulus"":""run_exp/static/images/task_images/rocket-02.jpg"",""time"":1095.6999999762047},{""stimulus"":""run_exp/static/images/task_images/rocket-03.jpg"",""time"":2162.2449999849778},{""stimulus"":""run_exp/static/images/task_images/rocket-04.jpg"",""time"":3250.8099999977276},{""stimulus"":""run_exp/static/images/task_images/rocket-05.jpg"",""time"":4338.684999995166},{""stimulus"":""run_exp/static/images/task_images/rocket-06.jpg"",""time"":5405.354999995325},{""stimulus"":""run_exp/static/images/task_images/rocket-07.jpg"",""time"":6492.539999977453},{""stimulus"":""run_exp/static/images/task_images/rocket-08.jpg"",""time"":7570.834999991348},{""stimulus"":""run_exp/static/images/task_images/rocket-09.jpg"",""time"":8648.20499997586}]",[],13,,,,,,,,,,,,,,
alien_welcome,332,879579,0.0-102.0-1.0,,null,run_exp/static/images/task_images/aliens/old_aliens/planet/alien_planet-57.jpg,null,,,,,,,,,,,,57,"45,30,47,27,26,17,41,36,35,77,31,64,18,57,67,65,76,12,74,21,33,5,60,11,28,80,37,25,63",,,,,,,,,,
land,333,880103,0.0-102.0-2.0,,null,run_exp/static/images/task_images/land.jpg,null,,,,,,103,,,14,,,,,,,,,,,,,,
dig,334,882119,0.0-102.0-3.0,,,,,,,,,,,"[{""stimulus"":""run_exp/static/images/task_images/dig.jpg"",""time"":0.20000000949949026},{""stimulus"":""run_exp/static/images/task_images/land.jpg"",""time"":669.530000013765},{""stimulus"":""run_exp/static/images/task_images/dig.jpg"",""time"":1335.545000009006}]",[],14,,,,,,,,,,,,,,
harvest,335,883121,0.0-102.0-4.0,,null,run_exp/static/images/task_images/gems/103.jpg,null,,,,,,84,,,14,,,,,103,0.818076011,0.815533981,,,,,,,
decision,336,883184,0.0-102.0-5.0,,60.75,run_exp/static/images/task_images/land.jpg,65,,,,,,84,,,14,,,,,,,,201966,2,0,FALSE,,,
dig,337,886130,0.0-103.0-0.0,,,,,,,,,,,"[{""stimulus"":""run_exp/static/images/task_images/dig.jpg"",""time"":0.11999998241662979},{""stimulus"":""run_exp/static/images/task_images/land.jpg"",""time"":990.0949999864679},{""stimulus"":""run_exp/static/images/task_images/dig.jpg"",""time"":1971.514999982901}]",[],14,,,,,,,,,,,,,,
harvest,338,887143,0.0-103.0-1.0,,null,run_exp/static/images/task_images/gems/84.jpg,null,,,,,,68,,,14,,,,,84,0.813477806,0.80952381,,,,,,,
decision,339,887534,0.0-103.0-2.0,,389.23,run_exp/static/images/task_images/land.jpg,65,,,,,,68,,,14,,,,,,,,206316,2,1,FALSE,,,
dig,340,890151,0.0-104.0-0.0,,,,,,,,,,,"[{""stimulus"":""run_exp/static/images/task_images/dig.jpg"",""time"":0.13000000035390258},{""stimulus"":""run_exp/static/images/task_images/land.jpg"",""time"":875.1400000182912},{""stimulus"":""run_exp/static/images/task_images/dig.jpg"",""time"":1749.7049999947194}]",[],14,,,,,,,,,,,,,,
harvest,341,891164,0.0-104.0-1.0,,null,run_exp/static/images/task_images/gems/68.jpg,null,,,,,,52,,,14,,,,,68,0.757379737,0.764705882,,,,,,,
decision,342,891276,0.0-104.0-2.0,,109.305,run_exp/static/images/task_images/land.jpg,65,,,,,,52,,,14,,,,,,,,210058,2,2,FALSE,,,
dig,343,894172,0.0-105.0-0.0,,,,,,,,,,,"[{""stimulus"":""run_exp/static/images/task_images/dig.jpg"",""time"":0.12499999138526618},{""stimulus"":""run_exp/static/images/task_images/land.jpg"",""time"":982.9200000094716},{""stimulus"":""run_exp/static/images/task_images/dig.jpg"",""time"":1932.6850000070408}]",[],14,,,,,,,,,,,,,,
harvest,344,895186,0.0-105.0-1.0,,null,run_exp/static/images/task_images/gems/52.jpg,null,,,,,,42,,,14,,,,,52,0.798705755,0.807692308,,,,,,,
decision,345,895447,0.0-105.0-2.0,,259.36,run_exp/static/images/task_images/land.jpg,65,,,,,,42,,,14,,,,,,,,214230,2,3,FALSE,,,
dig,346,898204,0.0-106.0-0.0,,,,,,,,,,,"[{""stimulus"":""run_exp/static/images/task_images/dig.jpg"",""time"":0.13499998021870852},{""stimulus"":""run_exp/static/images/task_images/land.jpg"",""time"":919.0200000011828},{""stimulus"":""run_exp/static/images/task_images/dig.jpg"",""time"":1844.6699999913108}]",[],14,,,,,,,,,,,,,,
harvest,347,899218,0.0-106.0-1.0,,null,run_exp/static/images/task_images/gems/42.jpg,null,,,,,,32,,,14,,,,,42,0.764721085,0.761904762,,,,,,,
decision,348,899640,0.0-106.0-2.0,,420.345,run_exp/static/images/task_images/land.jpg,65,,,,,,32,,,14,,,,,,,,218422,2,4,FALSE,,,
dig,349,902236,0.0-107.0-0.0,,,,,,,,,,,"[{""stimulus"":""run_exp/static/images/task_images/dig.jpg"",""time"":0.19000002066604793},{""stimulus"":""run_exp/static/images/task_images/land.jpg"",""time"":865.2050000091549},{""stimulus"":""run_exp/static/images/task_images/dig.jpg"",""time"":1739.6750000189058}]",[],14,,,,,,,,,,,,,,
harvest,350,903261,0.0-107.0-1.0,,null,run_exp/static/images/task_images/gems/32.jpg,null,,,,,,28,,,14,,,,,32,0.865737892,0.875,,,,,,,
decision,351,903475,0.0-107.0-2.0,,212.495,run_exp/static/images/task_images/land.jpg,65,,,,,,28,,,14,,,,,,,,222257,2,5,FALSE,,,
dig,352,906268,0.0-108.0-0.0,,,,,,,,,,,"[{""stimulus"":""run_exp/static/images/task_images/dig.jpg"",""time"":0.16500000492669642},{""stimulus"":""run_exp/static/images/task_images/land.jpg"",""time"":944.45499998983},{""stimulus"":""run_exp/static/images/task_images/dig.jpg"",""time"":1872.7899999939837}]",[],14,,,,,,,,,,,,,,
harvest,353,907276,0.0-108.0-1.0,,null,run_exp/static/images/task_images/gems/28.jpg,null,,,,,,21,,,14,,,,,28,0.744433397,0.75,,,,,,,
decision,354,908240,0.0-108.0-2.0,,961.555,run_exp/static/images/task_images/land.jpg,65,,,,,,21,,,14,,,,,,,,227022,2,6,FALSE,,,
dig,355,910300,0.0-109.0-0.0,,,,,,,,,,,"[{""stimulus"":""run_exp/static/images/task_images/dig.jpg"",""time"":0.12000001152046025},{""stimulus"":""run_exp/static/images/task_images/land.jpg"",""time"":691.4600000018254},{""stimulus"":""run_exp/static/images/task_images/dig.jpg"",""time"":1368.8200000033248}]",[],14,,,,,,,,,,,,,,
harvest,356,911303,0.0-109.0-1.0,,null,run_exp/static/images/task_images/gems/21.jpg,null,,,,,,17,,,14,,,,,21,0.7949114,0.80952381,,,,,,,
decision,357,911412,0.0-109.0-2.0,,107.17,run_exp/static/images/task_images/land.jpg,65,,,,,,17,,,14,,,,,,,,230194,2,7,FALSE,,,
dig,358,914321,0.0-110.0-0.0,,,,,,,,,,,"[{""stimulus"":""run_exp/static/images/task_images/dig.jpg"",""time"":0.13499998021870852},{""stimulus"":""run_exp/static/images/task_images/land.jpg"",""time"":975.0950000016019},{""stimulus"":""run_exp/static/images/task_images/dig.jpg"",""time"":1935.3999999875668}]",[],14,,,,,,,,,,,,,,
harvest,359,915324,0.0-110.0-1.0,,null,run_exp/static/images/task_images/gems/17.jpg,null,,,,,,15,,,14,,,,,17,0.856787404,0.882352941,,,,,,,
decision,360,915505,0.0-110.0-2.0,,178.495,run_exp/static/images/task_images/land.jpg,65,,,,,,15,,,14,,,,,,,,234287,2,8,FALSE,,,
dig,361,918341,0.0-111.0-0.0,,,,,,,,,,,"[{""stimulus"":""run_exp/static/images/task_images/dig.jpg"",""time"":0.1700000138953328},{""stimulus"":""run_exp/static/images/task_images/land.jpg"",""time"":957.9050000174902},{""stimulus"":""run_exp/static/images/task_images/dig.jpg"",""time"":1896.0100000258535}]",[],14,,,,,,,,,,,,,,
harvest,362,919356,0.0-111.0-1.0,,null,run_exp/static/images/task_images/gems/15.jpg,null,,,,,,13,,,14,,,,,15,0.846801402,0.866666667,,,,,,,
decision,363,919379,0.0-111.0-2.0,,21.385,run_exp/static/images/task_images/land.jpg,65,,,,,,13,,,14,,,,,,,,238161,2,9,FALSE,,,
dig,364,922364,0.0-112.0-0.0,,,,,,,,,,,"[{""stimulus"":""run_exp/static/images/task_images/dig.jpg"",""time"":0.12499999138526618},{""stimulus"":""run_exp/static/images/task_images/land.jpg"",""time"":997.7499999804422},{""stimulus"":""run_exp/static/images/task_images/dig.jpg"",""time"":1989.7999999811873}]",[],14,,,,,,,,,,,,,,
harvest,365,923367,0.0-112.0-1.0,,null,run_exp/static/images/task_images/gems/13.jpg,null,,,,,,11,,,14,,,,,13,0.863700788,0.846153846,,,,,,,
decision,366,923422,0.0-112.0-2.0,,53.08499999,run_exp/static/images/task_images/land.jpg,65,,,,,,11,,,14,,,,,,,,242205,2,10,FALSE,,,
dig,367,926386,0.0-113.0-0.0,,,,,,,,,,,"[{""stimulus"":""run_exp/static/images/task_images/dig.jpg"",""time"":0.1750000228639692},{""stimulus"":""run_exp/static/images/task_images/land.jpg"",""time"":985.2450000180397},{""stimulus"":""run_exp/static/images/task_images/dig.jpg"",""time"":1977.9700000071898}]",[],14,,,,,,,,,,,,,,
harvest,368,927399,0.0-113.0-1.0,,null,run_exp/static/images/task_images/gems/11.jpg,null,,,,,,9,,,14,,,,,11,0.791359879,0.818181818,,,,,,,
decision,369,928023,0.0-113.0-2.0,,621.895,run_exp/static/images/task_images/land.jpg,76,,,,,,9,,,14,,,,,,,,246806,2,11,TRUE,,,
travel,370,937426,0.0-114.0-0.0,,,,,,,,,,,"[{""stimulus"":""run_exp/static/images/task_images/rocket-01.jpg"",""time"":0.12499999138526618},{""stimulus"":""run_exp/static/images/task_images/rocket-02.jpg"",""time"":1046.875},{""stimulus"":""run_exp/static/images/task_images/rocket-03.jpg"",""time"":2103.130000003148},{""stimulus"":""run_exp/static/images/task_images/rocket-04.jpg"",""time"":3137.4549999891315},{""stimulus"":""run_exp/static/images/task_images/rocket-05.jpg"",""time"":4172.539999999572},{""stimulus"":""run_exp/static/images/task_images/rocket-06.jpg"",""time"":5212.614999996731},{""stimulus"":""run_exp/static/images/task_images/rocket-07.jpg"",""time"":6273.105000000214},{""stimulus"":""run_exp/static/images/task_images/rocket-08.jpg"",""time"":7308.174999983748},{""stimulus"":""run_exp/static/images/task_images/rocket-09.jpg"",""time"":8342.754999990575}]",[],14,,,,,,,,,,,,,,
alien_welcome,371,942449,0.0-114.0-1.0,,null,run_exp/static/images/task_images/aliens/old_aliens/planet/alien_planet-67.jpg,null,,,,,,,,,,,,67,"45,30,47,27,26,17,41,36,35,77,31,64,18,57,67,65,76,12,74,21,33,5,60,11,28,80,37,25,63",,,,,,,,,,
land,372,942966,0.0-114.0-2.0,,null,run_exp/static/images/task_images/land.jpg,null,,,,,,104,,,15,,,,,,,,,,,,,,
dig,373,944988,0.0-114.0-3.0,,,,,,,,,,,"[{""stimulus"":""run_exp/static/images/task_images/dig.jpg"",""time"":0.22500002523884177},{""stimulus"":""run_exp/static/images/task_images/land.jpg"",""time"":675.9450000245124},{""stimulus"":""run_exp/static/images/task_images/dig.jpg"",""time"":1345.4000000201631}]",[],15,,,,,,,,,,,,,,
harvest,374,945991,0.0-114.0-4.0,,null,run_exp/static/images/task_images/gems/104.jpg,null,,,,,,84,,,15,,,,,104,0.806616867,0.807692308,,,,,,,
decision,375,946055,0.0-114.0-5.0,,62.08999999,run_exp/static/images/task_images/land.jpg,65,,,,,,84,,,15,,,,,,,,264837,2,0,FALSE,,,
dig,376,948999,0.0-115.0-0.0,,,,,,,,,,,"[{""stimulus"":""run_exp/static/images/task_images/dig.jpg"",""time"":0.11999998241662979},{""stimulus"":""run_exp/static/images/task_images/land.jpg"",""time"":988.2699999725446},{""stimulus"":""run_exp/static/images/task_images/dig.jpg"",""time"":1969.9449999898206}]",[],15,,,,,,,,,,,,,,
harvest,377,950002,0.0-115.0-1.0,,null,run_exp/static/images/task_images/gems/84.jpg,null,,,,,,67,,,15,,,,,84,0.795416447,0.797619048,,,,,,,
decision,378,950165,0.0-115.0-2.0,,161.07,run_exp/static/images/task_images/land.jpg,65,,,,,,67,,,15,,,,,,,,268948,2,1,FALSE,,,
dig,379,953020,0.0-116.0-0.0,,,,,,,,,,,"[{""stimulus"":""run_exp/static/images/task_images/dig.jpg"",""time"":0.18000000272877514},{""stimulus"":""run_exp/static/images/task_images/land.jpg"",""time"":962.9149999818765},{""stimulus"":""run_exp/static/images/task_images/dig.jpg"",""time"":1911.9950000022072}]",[],15,,,,,,,,,,,,,,
harvest,380,954034,0.0-116.0-1.0,,null,run_exp/static/images/task_images/gems/67.jpg,null,,,,,,52,,,15,,,,,67,0.774734263,0.776119403,,,,,,,
decision,381,954051,0.0-116.0-2.0,,14.59500002,run_exp/static/images/task_images/land.jpg,65,,,,,,52,,,15,,,,,,,,272833,2,2,FALSE,,,
dig,382,957052,0.0-117.0-0.0,,,,,,,,,,,"[{""stimulus"":""run_exp/static/images/task_images/dig.jpg"",""time"":0.13500000932253897},{""stimulus"":""run_exp/static/images/task_images/land.jpg"",""time"":1014.0799999935552},{""stimulus"":""run_exp/static/images/task_images/dig.jpg"",""time"":2006.0750000120606}]",[],15,,,,,,,,,,,,,,
harvest,383,958055,0.0-117.0-1.0,,null,run_exp/static/images/task_images/gems/52.jpg,null,,,,,,35,,,15,,,,,52,0.673983935,0.673076923,,,,,,,
decision,384,958317,0.0-117.0-2.0,,259.535,run_exp/static/images/task_images/land.jpg,65,,,,,,35,,,15,,,,,,,,277100,2,3,FALSE,,,
dig,385,961063,0.0-118.0-0.0,,,,,,,,,,,"[{""stimulus"":""run_exp/static/images/task_images/dig.jpg"",""time"":0.13000000035390258},{""stimulus"":""run_exp/static/images/task_images/land.jpg"",""time"":928.1250000058208},{""stimulus"":""run_exp/static/images/task_images/dig.jpg"",""time"":1835.3150000039022}]",[],15,,,,,,,,,,,,,,
harvest,386,962076,0.0-118.0-1.0,,null,run_exp/static/images/task_images/gems/35.jpg,null,,,,,,30,,,15,,,,,35,0.852845152,0.857142857,,,,,,,
decision,387,962290,0.0-118.0-2.0,,211.055,run_exp/static/images/task_images/land.jpg,65,,,,,,30,,,15,,,,,,,,281072,2,4,FALSE,,,
dig,388,965084,0.0-119.0-0.0,,,,,,,,,,,"[{""stimulus"":""run_exp/static/images/task_images/dig.jpg"",""time"":0.13500000932253897},{""stimulus"":""run_exp/static/images/task_images/land.jpg"",""time"":933.8149999966845},{""stimulus"":""run_exp/static/images/task_images/dig.jpg"",""time"":1862.250000005588}]",[],15,,,,,,,,,,,,,,
harvest,389,966087,0.0-119.0-1.0,,null,run_exp/static/images/task_images/gems/30.jpg,null,,,,,,25,,,15,,,,,30,0.836961014,0.833333333,,,,,,,
decision,390,966201,0.0-119.0-2.0,,111.565,run_exp/static/images/task_images/land.jpg,65,,,,,,25,,,15,,,,,,,,284983,2,5,FALSE,,,
dig,391,969106,0.0-120.0-0.0,,,,,,,,,,,"[{""stimulus"":""run_exp/static/images/task_images/dig.jpg"",""time"":0.18500001169741154},{""stimulus"":""run_exp/static/images/task_images/land.jpg"",""time"":970.6250000162981},{""stimulus"":""run_exp/static/images/task_images/dig.jpg"",""time"":1941.5699999954086}]",[],15,,,,,,,,,,,,,,
harvest,392,970126,0.0-120.0-1.0,,null,run_exp/static/images/task_images/gems/25.jpg,null,,,,,,20,,,15,,,,,25,0.812183398,0.8,,,,,,,
decision,393,970184,0.0-120.0-2.0,,56.205,run_exp/static/images/task_images/land.jpg,65,,,,,,20,,,15,,,,,,,,288967,2,6,FALSE,,,
dig,394,973148,0.0-121.0-0.0,,,,,,,,,,,"[{""stimulus"":""run_exp/static/images/task_images/dig.jpg"",""time"":0.12000001152046025},{""stimulus"":""run_exp/static/images/task_images/land.jpg"",""time"":996.8799999915063},{""stimulus"":""run_exp/static/images/task_images/dig.jpg"",""time"":1968.2000000029802}]",[],15,,,,,,,,,,,,,,
harvest,395,974161,0.0-121.0-1.0,,null,run_exp/static/images/task_images/gems/20.jpg,null,,,,,,16,,,15,,,,,20,0.798251066,0.8,,,,,,,
decision,396,974228,0.0-121.0-2.0,,64.85999998,run_exp/static/images/task_images/land.jpg,65,,,,,,16,,,15,,,,,,,,293010,2,7,FALSE,,,
dig,397,977169,0.0-122.0-0.0,,,,,,,,,,,"[{""stimulus"":""run_exp/static/images/task_images/dig.jpg"",""time"":0.1500000071246177},{""stimulus"":""run_exp/static/images/task_images/land.jpg"",""time"":985.2850000024773},{""stimulus"":""run_exp/static/images/task_images/dig.jpg"",""time"":1966.1250000062864}]",[],15,,,,,,,,,,,,,,
harvest,398,978182,0.0-122.0-1.0,,null,run_exp/static/images/task_images/gems/16.jpg,null,,,,,,12,,,15,,,,,16,0.777484083,0.75,,,,,,,
decision,399,978335,0.0-122.0-2.0,,150.61,run_exp/static/images/task_images/land.jpg,65,,,,,,12,,,15,,,,,,,,297117,2,8,FALSE,,,
dig,400,981191,0.0-123.0-0.0,,,,,,,,,,,"[{""stimulus"":""run_exp/static/images/task_images/dig.jpg"",""time"":0.15999999595806003},{""stimulus"":""run_exp/static/images/task_images/land.jpg"",""time"":952.67500000773},{""stimulus"":""run_exp/static/images/task_images/dig.jpg"",""time"":1902.2100000001956}]",[],15,,,,,,,,,,,,,,
harvest,401,982193,0.0-123.0-1.0,,null,run_exp/static/images/task_images/gems/12.jpg,null,,,,,,10,,,15,,,,,12,0.844727415,0.833333333,,,,,,,
decision,402,982197,0.0-123.0-2.0,,2.035000012,run_exp/static/images/task_images/land.jpg,65,,,,,,10,,,15,,,,,,,,300979,2,9,TRUE,,,
end_of_block_continue,403,991026,0.0-124.0-0.0,,null,run_exp/static/audio/clip_32_block_end.m4a,,,,,,null,,,,,,,,,,,,,,,,,,
alien_welcome,404,996050,0.0-125.0-0.0,,null,run_exp/static/images/task_images/aliens/old_aliens/planet/alien_planet-65.jpg,null,,,,,,,,,,,,65,"45,30,47,27,26,17,41,36,35,77,31,64,18,57,67,65,76,12,74,21,33,5,60,11,28,80,37,25,63",,,,,,,,,,
land,405,996562,0.0-125.0-1.0,,null,run_exp/static/images/task_images/land.jpg,null,,,,,,100,,,16,,,,,,,,,,,,,,
dig,406,998577,0.0-125.0-2.0,,,,,,,,,,,"[{""stimulus"":""run_exp/static/images/task_images/dig.jpg"",""time"":0.18999999156221747},{""stimulus"":""run_exp/static/images/task_images/land.jpg"",""time"":668.8849999918602},{""stimulus"":""run_exp/static/images/task_images/dig.jpg"",""time"":1352.8349999978673}]",[],16,,,,,,,,,,,,,,
harvest,407,999591,0.0-125.0-3.0,,null,run_exp/static/images/task_images/gems/100.jpg,null,,,,,,46,,,16,,,,,100,0.460479786,0.46,,,,,,,
decision,408,999923,0.0-125.0-4.0,,329.59,run_exp/static/images/task_images/land.jpg,65,,,,,,46,,,16,,,,,,,,8893,3,0,FALSE,,,
dig,409,1002607,0.0-126.0-0.0,,,,,,,,,,,"[{""stimulus"":""run_exp/static/images/task_images/dig.jpg"",""time"":0.1399999891873449},{""stimulus"":""run_exp/static/images/task_images/land.jpg"",""time"":911.9449999998324},{""stimulus"":""run_exp/static/images/task_images/dig.jpg"",""time"":1797.4600000015926}]",[],16,,,,,,,,,,,,,,
harvest,410,1003623,0.0-126.0-1.0,,null,run_exp/static/images/task_images/gems/46.jpg,null,,,,,,22,,,16,,,,,46,0.482253981,0.47826087,,,,,,,
decision,411,1003686,0.0-126.0-2.0,,60.62499998,run_exp/static/images/task_images/land.jpg,65,,,,,,22,,,16,,,,,,,,12656,3,1,FALSE,,,
dig,412,1006637,0.0-127.0-0.0,,,,,,,,,,,"[{""stimulus"":""run_exp/static/images/task_images/dig.jpg"",""time"":0.16999998479150236},{""stimulus"":""run_exp/static/images/task_images/land.jpg"",""time"":999.2799999890849},{""stimulus"":""run_exp/static/images/task_images/dig.jpg"",""time"":1959.065000002738}]",[],16,,,,,,,,,,,,,,
harvest,413,1007644,0.0-127.0-1.0,,null,run_exp/static/images/task_images/gems/22.jpg,null,,,,,,12,,,16,,,,,22,0.550769181,0.545454545,,,,,,,
decision,414,1007888,0.0-127.0-2.0,,241.805,run_exp/static/images/task_images/land.jpg,65,,,,,,12,,,16,,,,,,,,16859,3,2,FALSE,,,
dig,415,1010653,0.0-128.0-0.0,,,,,,,,,,,"[{""stimulus"":""run_exp/static/images/task_images/dig.jpg"",""time"":0.12000001152046025},{""stimulus"":""run_exp/static/images/task_images/land.jpg"",""time"":924.5300000184216},{""stimulus"":""run_exp/static/images/task_images/dig.jpg"",""time"":1853.1550000188872}]",[],16,,,,,,,,,,,,,,
harvest,416,1011676,0.0-128.0-1.0,,null,run_exp/static/images/task_images/gems/12.jpg,null,,,,,,6,,,16,,,,,12,0.50291087,0.5,,,,,,,
decision,417,1011679,0.0-128.0-2.0,,0.885000016,run_exp/static/images/task_images/land.jpg,65,,,,,,6,,,16,,,,,,,,20649,3,3,FALSE,,,
dig,418,1014705,0.0-129.0-0.0,,,,,,,,,,,"[{""stimulus"":""run_exp/static/images/task_images/dig.jpg"",""time"":0.12499999138526618},{""stimulus"":""run_exp/static/images/task_images/land.jpg"",""time"":999.9299999908544},{""stimulus"":""run_exp/static/images/task_images/dig.jpg"",""time"":2009.0100000088569}]",[],16,,,,,,,,,,,,,,
harvest,419,1015718,0.0-129.0-1.0,,null,run_exp/static/images/task_images/gems/6.jpg,null,,,,,,3,,,16,,,,,6,0.45341477,0.5,,,,,,,
