trial_type,trial_index,time_elapsed,internal_node_id,interactions,blur_events,focus_events,fullscreenenter_events,fullscreenexit_events,success,rt,stimulus,key_press,prompt,subject_id,participant_id,age,gender,button_pressed,next_reward,animation_sequence,responses,planet,curr_prac_trial,n_prac_rounds,alien,aliens,reward_received,decay_rate_actual,decay_rate_exp,time_in_block,block_num,prt,last_trial_on_planet,button_html,bonus,num_failures
pavlovia,0,2,0.0-0.0,"""event"",""trial"",""time""
""fullscreenenter"",""1"",""1385""
","
","
","""event"",""trial"",""time""
""fullscreenenter"",""1"",""1385""
","
",,,,,,,,,,,,,,,,,,,,,,,,,,,,
fullscreen,1,2366,0.0-1.0,"""event"",""trial"",""time""
""fullscreenenter"",""1"",""1385""
","
","
","""event"",""trial"",""time""
""fullscreenenter"",""1"",""1385""
","
",TRUE,,,,,,,,,,,,,,,,,,,,,,,,,,,
instruc_welcome,2,12100,0.0-2.0,"""event"",""trial"",""time""
""fullscreenenter"",""1"",""1385""
","
","
","""event"",""trial"",""time""
""fullscreenenter"",""1"",""1385""
","
",,null,run_exp/static/audio/clip_1_welcome.m4a,null,"<p>Howdy! In this experiment, you’ll be an explorer traveling through space to collect space treasure.</p><p>Your mission is to collect as much treasure as possible.</p><br><br><p><img src='run_exp/static/images/task_images/opening_img-01.jpg' height='300' width='auto'></p>",7937,2430,20.3,Male,,,,,,,,,,,,,,,,,,,
audio-keyboard-response,3,28680,0.0-3.0,"""event"",""trial"",""time""
""fullscreenenter"",""1"",""1385""
","
","
","""event"",""trial"",""time""
""fullscreenenter"",""1"",""1385""
","
",,null,run_exp/static/audio/clip_2_move.m4a,null,,,,,,,,,,,,,,,,,,,,,,,,
welcome_dec,4,31110,0.0-4.0,"""event"",""trial"",""time""
""fullscreenenter"",""1"",""1385""
","
","
","""event"",""trial"",""time""
""fullscreenenter"",""1"",""1385""
","
",,2428.9,"<p>Howdy! In this experiment, you’ll be an explorer traveling through space to collect space treasure.</p><p>Your mission is to collect as much treasure as possible.</p><br><br><p><img src='run_exp/static/images/task_images/opening_img-01.jpg' height='300' width='auto'></p>",,,,,,,0,,,,,,,,,,,,,,,,,,
html-keyboard-response,5,32465,0.0-5.0,"""event"",""trial"",""time""
""fullscreenenter"",""1"",""1385""
","
","
","""event"",""trial"",""time""
""fullscreenenter"",""1"",""1385""
","
",,1354.1,"<p>Howdy! In this experiment, you’ll be an explorer traveling through space to collect space treasure.</p><p>Your mission is to collect as much treasure as possible.</p><br><br><p><img src='run_exp/static/images/task_images/opening_img-01.jpg' height='300' width='auto'></p><button class=""jspsych-html-btn-chosen""><img src=""run_exp/static/images/task_images/planet-01.jpg"" height=""50""></button><button class=""jspsych-html-btn-unchosen""><img src=""run_exp/static/images/task_images/planet-02.jpg"" height=""50""></button><p><b>[press the space bar to lock in your answer]<b><br></p>",32,,,,,,,,,,,,,,,,,,,,,,,,
instruc_welcome,6,42219,0.0-6.0-0.0,"""event"",""trial"",""time""
""fullscreenenter"",""1"",""1385""
","
","
","""event"",""trial"",""time""
""fullscreenenter"",""1"",""1385""
","
",,null,run_exp/static/audio/clip_1_welcome.m4a,null,"<p>Howdy! In this experiment, you’ll be an explorer traveling through space to collect space treasure.</p><p>Your mission is to collect as much treasure as possible.</p><br><br><p><img src='run_exp/static/images/task_images/opening_img-01.jpg' height='300' width='auto'></p>",7937,2430,20,Male,,,,,,,,,,,,,,,,,,,
audio-keyboard-response,7,58800,0.0-6.0-1.0,"""event"",""trial"",""time""
""fullscreenenter"",""1"",""1385""
","
","
","""event"",""trial"",""time""
""fullscreenenter"",""1"",""1385""
","
",,null,run_exp/static/audio/clip_2_move.m4a,null,,,,,,,,,,,,,,,,,,,,,,,,
welcome_dec,8,59227,0.0-6.0-2.0,"""event"",""trial"",""time""
""fullscreenenter"",""1"",""1385""
","
","
","""event"",""trial"",""time""
""fullscreenenter"",""1"",""1385""
","
",,425.8,"<p>Howdy! In this experiment, you’ll be an explorer traveling through space to collect space treasure.</p><p>Your mission is to collect as much treasure as possible.</p><br><br><p><img src='run_exp/static/images/task_images/opening_img-01.jpg' height='300' width='auto'></p>",,,,,,,1,,,,,,,,,,,,,,,,,,
html-keyboard-response,9,59669,0.0-6.0-3.0,"""event"",""trial"",""time""
""fullscreenenter"",""1"",""1385""
","
","
","""event"",""trial"",""time""
""fullscreenenter"",""1"",""1385""
","
",,441.3,"<p>Howdy! In this experiment, you’ll be an explorer traveling through space to collect space treasure.</p><p>Your mission is to collect as much treasure as possible.</p><br><br><p><img src='run_exp/static/images/task_images/opening_img-01.jpg' height='300' width='auto'></p><button class=""jspsych-html-btn-unchosen""><img src=""run_exp/static/images/task_images/planet-01.jpg"" height=""50""></button><button class=""jspsych-html-btn-chosen""><img src=""run_exp/static/images/task_images/planet-02.jpg"" height=""50""></button><p><b>[press the space bar to lock in your answer]<b><br></p>",32,,,,,,,,,,,,,,,,,,,,,,,,
instruc_goal,10,69739,0.0-7.0-0.0,"""event"",""trial"",""time""
""fullscreenenter"",""1"",""1385""
","
","
","""event"",""trial"",""time""
""fullscreenenter"",""1"",""1385""
","
",,null,run_exp/static/audio/clip_3_goal.m4a,null,"<p> As a space explorer, you’ll visit different planets to dig for space treasure, these pink gems.</p> <p> The more treasure you dig up, the more bonus money you’ll win! </p><br><br><p><img src='run_exp/static/images/task_images/pink_gem.jpg' height='300' width='auto'></p>",,,,,,,,,,,,,,,,,,,,,,,
instruc_goal,11,74715,0.0-7.0-1.0,"""event"",""trial"",""time""
""fullscreenenter"",""1"",""1385""
","
","
","""event"",""trial"",""time""
""fullscreenenter"",""1"",""1385""
","
",,4974.3,"<p> As a space explorer, you’ll visit different planets to dig for space treasure, these pink gems.</p> <p> The more treasure you dig up, the more bonus money you’ll win! </p><br><br><p><img src='run_exp/static/images/task_images/pink_gem.jpg' height='300' width='auto'></p>",,,,,,,1,,,,,,,,,,,,,,,,,,
html-keyboard-response,12,76212,0.0-7.0-2.0,"""event"",""trial"",""time""
""fullscreenenter"",""1"",""1385""
","
","
","""event"",""trial"",""time""
""fullscreenenter"",""1"",""1385""
","
",,1495.9,"<p> As a space explorer, you’ll visit different planets to dig for space treasure, these pink gems.</p> <p> The more treasure you dig up, the more bonus money you’ll win! </p><br><br><p><img src='run_exp/static/images/task_images/pink_gem.jpg' height='300' width='auto'></p><button class=""jspsych-html-btn-unchosen""><img src=""run_exp/static/images/task_images/planet-01.jpg"" height=""50""></button><button class=""jspsych-html-btn-chosen""><img src=""run_exp/static/images/task_images/planet-02.jpg"" height=""50""></button><p><b>[press the space bar to lock in your answer]<b><br></p>",32,,,,,,,,,,,,,,,,,,,,,,,,
instruc_dig,13,92220,0.0-8.0-0.0,"""event"",""trial"",""time""
""fullscreenenter"",""1"",""1385""
","
","
","""event"",""trial"",""time""
""fullscreenenter"",""1"",""1385""
","
",,null,run_exp/static/audio/clip_4_dig.m4a,null,,,,,,,100,,,,,,,,,,,,,,,,,
instruc_dig_try,14,92561,0.0-8.0-1.0,"""event"",""trial"",""time""
""fullscreenenter"",""1"",""1385""
","
","
","""event"",""trial"",""time""
""fullscreenenter"",""1"",""1385""
","
",,340.9,"<p> When you’ve arrived at a new planet, you will dig once. </p> <p>Then, you get to decide if you want to stay on the planet and dig again or travel to a new planet and dig there.</p> <p> To stay and dig, press the letter <strong>‘A’</strong> on your keyboard. Try pressing it now! </p><p><img src='run_exp/static/images/task_images/land.jpg'  height='700' width='auto'></p>",65,"<p> When you’ve arrived at a new planet, you will dig once. </p> <p>Then, you get to decide if you want to stay on the planet and dig again or travel to a new planet and dig there.</p> <p> To stay and dig, press the letter <strong>‘A’</strong> on your keyboard. Try pressing it now! </p><p><img src='run_exp/static/images/task_images/land.jpg'  height='700' width='auto'></p>",,,,,,100,,,,,,,,,,,,,,,,,
dig_prac,15,94572,0.0-8.0-2.0,"""event"",""trial"",""time""
""fullscreenenter"",""1"",""1385""
","
","
","""event"",""trial"",""time""
""fullscreenenter"",""1"",""1385""
","
",,,,,,,,,,,,"[{""stimulus"":""run_exp/static/images/task_images/dig.jpg"",""time"":0.10000002384185791},{""stimulus"":""run_exp/static/images/task_images/land.jpg"",""time"":671.8000000119209},{""stimulus"":""run_exp/static/images/task_images/dig.jpg"",""time"":1347.199999988079}]",[],,,,,,,,,,,,,,,
instruc_travel,16,130819,0.0-8.0-3.0,"""event"",""trial"",""time""
""fullscreenenter"",""1"",""1385""
","
","
","""event"",""trial"",""time""
""fullscreenenter"",""1"",""1385""
","
",,null,run_exp/static/audio/clip_5_travel.m4a,null,"<p>Every time you dig up gems, there are less gems on the planet, so the more you dig on a planet the fewer gems you’ll get with each dig.</p><p>When gems are running low, you may want to travel to a new planet. </p> <p>  Planets are very far apart in this galaxy, so it will take some time to travel between them. </p> <br><p>There are lots and lots of planets for you to visit, so you won’t be able to return to any planets you’ve seen before. </p><br><p>To leave this planet and travel to a new one, press the letter <strong>‘L’</strong> on your keyboard. Try pressing it now! </p><p><img src='run_exp/static/images/task_images/rocket-01.jpg'  height='600' width='auto'></p>",,,,,,,,,,,,,,,,,,,,,,,
instruc_travel_try,17,131080,0.0-8.0-4.0,"""event"",""trial"",""time""
""fullscreenenter"",""1"",""1385""
","
","
","""event"",""trial"",""time""
""fullscreenenter"",""1"",""1385""
","
",,260.4,"<p>Every time you dig up gems, there are less gems on the planet, so the more you dig on a planet the fewer gems you’ll get with each dig.</p><p>When gems are running low, you may want to travel to a new planet. </p> <p>  Planets are very far apart in this galaxy, so it will take some time to travel between them. </p> <br><p>There are lots and lots of planets for you to visit, so you won’t be able to return to any planets you’ve seen before. </p><br><p>To leave this planet and travel to a new one, press the letter <strong>‘L’</strong> on your keyboard. Try pressing it now! </p><p><img src='run_exp/static/images/task_images/rocket-01.jpg'  height='600' width='auto'></p>",76,"<p>Every time you dig up gems, there are less gems on the planet, so the more you dig on a planet the fewer gems you’ll get with each dig.</p><p>When gems are running low, you may want to travel to a new planet. </p> <p>  Planets are very far apart in this galaxy, so it will take some time to travel between them. </p> <br><p>There are lots and lots of planets for you to visit, so you won’t be able to return to any planets you’ve seen before. </p><br><p>To leave this planet and travel to a new one, press the letter <strong>‘L’</strong> on your keyboard. Try pressing it now! </p><p><img src='run_exp/static/images/task_images/rocket-01.jpg'  height='600' width='auto'></p>",,,,,,,,,,,,,,,,,,,,,,,
travel_prac,18,141091,0.0-8.0-5.0,"""event"",""trial"",""time""
""fullscreenenter"",""1"",""1385""
","
","
","""event"",""trial"",""time""
""fullscreenenter"",""1"",""1385""
","
",,,,,,,,,,,,"[{""stimulus"":""run_exp/static/images/task_images/rocket-01.jpg"",""time"":0.19999998807907104},{""stimulus"":""run_exp/static/images/task_images/rocket-02.jpg"",""time"":1113},{""stimulus"":""run_exp/static/images/task_images/rocket-03.jpg"",""time"":2227.699999988079},{""stimulus"":""run_exp/static/images/task_images/rocket-04.jpg"",""time"":3342.699999988079},{""stimulus"":""run_exp/static/images/task_images/rocket-05.jpg"",""time"":4455.699999988079},{""stimulus"":""run_exp/static/images/task_images/rocket-06.jpg"",""time"":5570.900000035763},{""stimulus"":""run_exp/static/images/task_images/rocket-07.jpg"",""time"":6669},{""stimulus"":""run_exp/static/images/task_images/rocket-08.jpg"",""time"":7787},{""stimulus"":""run_exp/static/images/task_images/rocket-09.jpg"",""time"":8904.600000023842}]",[],0,,,,,,,,,,,,,,
instruc_alien_greet,19,168269,0.0-8.0-6.0,"""event"",""trial"",""time""
""fullscreenenter"",""1"",""1385""
","
","
","""event"",""trial"",""time""
""fullscreenenter"",""1"",""1385""
","
",,null,run_exp/static/audio/clip_6_alien.m4a,null,"<p>When you arrive at a new planet, the alien who owns the treasure mine on that planet will greet you!</p><p>The better an alien takes care of their mine the easier it is to dig for gems. Some aliens take better care of their mine than others. So, you won’t get exactly the same amount of gems on each planet.</p><p>What the alien looks like does not tell you anything about how many gems there are on the planet.</p><br><p><img src=""run_exp/static/images/task_images/aliens/instructions_aliens/planet/alien_planet-1.jpg""  height=""600"" width=""auto""></p>",,,,,,,,,,,,,,,,,,,,,,,
instruc_alien_greet,20,184226,0.0-8.0-7.0,"""event"",""trial"",""time""
""fullscreenenter"",""1"",""1385""
","
","
","""event"",""trial"",""time""
""fullscreenenter"",""1"",""1385""
","
",,15956.2,"<p>When you arrive at a new planet, the alien who owns the treasure mine on that planet will greet you!</p><p>The better an alien takes care of their mine the easier it is to dig for gems. Some aliens take better care of their mine than others. So, you won’t get exactly the same amount of gems on each planet.</p><p>What the alien looks like does not tell you anything about how many gems there are on the planet.</p><br><p><img src=""run_exp/static/images/task_images/aliens/instructions_aliens/planet/alien_planet-1.jpg""  height=""600"" width=""auto""></p>",,,,,,,1,,,,,,,,,,,,,,,,,,
html-keyboard-response,21,184616,0.0-8.0-8.0,"""event"",""trial"",""time""
""fullscreenenter"",""1"",""1385""
","
","
","""event"",""trial"",""time""
""fullscreenenter"",""1"",""1385""
","
",,388.7,"<p>When you arrive at a new planet, the alien who owns the treasure mine on that planet will greet you!</p><p>The better an alien takes care of their mine the easier it is to dig for gems. Some aliens take better care of their mine than others. So, you won’t get exactly the same amount of gems on each planet.</p><p>What the alien looks like does not tell you anything about how many gems there are on the planet.</p><br><p><img src=""run_exp/static/images/task_images/aliens/instructions_aliens/planet/alien_planet-1.jpg""  height=""600"" width=""auto""></p><button class=""jspsych-html-btn-unchosen""><img src=""run_exp/static/images/task_images/planet-01.jpg"" height=""50""></button><button class=""jspsych-html-btn-chosen""><img src=""run_exp/static/images/task_images/planet-02.jpg"" height=""50""></button><p><b>[press the space bar to lock in your answer]<b><br></p>",32,,,,,,,,,,,,,,,,,,,,,,,,
time_out,22,195716,0.0-9.0-0.0,"""event"",""trial"",""time""
""fullscreenenter"",""1"",""1385""
","
","
","""event"",""trial"",""time""
""fullscreenenter"",""1"",""1385""
","
",,null,run_exp/static/audio/clip_7_timeout.m4a,null,"<p>If you don't make your choice fast enough, you’ll have to wait a few seconds before you can make another one.</p><p>You can’t dig for more gems or travel to new planets. You just have to sit and wait.</p><br><p><img src='run_exp/static/images/task_images/time_out.jpg'  height='600' width='auto'></p>",,,,,,,,,,,,,,,,,,,,,,,
time_out,23,198806,0.0-9.0-1.0,"""event"",""trial"",""time""
""fullscreenenter"",""1"",""1385""
","
","
","""event"",""trial"",""time""
""fullscreenenter"",""1"",""1385""
","
",,3088.5,"<p>If you don't make your choice fast enough, you’ll have to wait a few seconds before you can make another one.</p><p>You can’t dig for more gems or travel to new planets. You just have to sit and wait.</p><br><p><img src='run_exp/static/images/task_images/time_out.jpg'  height='600' width='auto'></p>",,,,,,,1,,,,,,,,,,,,,,,,,,
html-keyboard-response,24,199211,0.0-9.0-2.0,"""event"",""trial"",""time""
""fullscreenenter"",""1"",""1385""
","
","
","""event"",""trial"",""time""
""fullscreenenter"",""1"",""1385""
","
",,404.5,"<p>If you don't make your choice fast enough, you’ll have to wait a few seconds before you can make another one.</p><p>You can’t dig for more gems or travel to new planets. You just have to sit and wait.</p><br><p><img src='run_exp/static/images/task_images/time_out.jpg'  height='600' width='auto'></p><button class=""jspsych-html-btn-unchosen""><img src=""run_exp/static/images/task_images/planet-01.jpg"" height=""50""></button><button class=""jspsych-html-btn-chosen""><img src=""run_exp/static/images/task_images/planet-02.jpg"" height=""50""></button><p><b>[press the space bar to lock in your answer]<b><br></p>",32,,,,,,,,,,,,,,,,,,,,,,,,
instruc_break,25,214876,0.0-10.0-0.0,"""event"",""trial"",""time""
""fullscreenenter"",""1"",""1385""
","
","
","""event"",""trial"",""time""
""fullscreenenter"",""1"",""1385""
","
",,null,run_exp/static/audio/clip_8_break.m4a,null,"<p> After digging and traveling for a while, you’ll be able to take a break at home base. </p><p>The game will last 20 minutes no matter what.</p><p>You will visit home base every 5 minutes, so, you will visit home base three times during the game.</p><br><p><img src='run_exp/static/images/task_images/home_base.jpg' height='600' width='auto'></p>",,,,,,,,,,,,,,,,,,,,,,,
instruc_break,26,219138,0.0-10.0-1.0,"""event"",""trial"",""time""
""fullscreenenter"",""1"",""1385""
","
","
","""event"",""trial"",""time""
""fullscreenenter"",""1"",""1385""
","
",,4260.7,"<p> After digging and traveling for a while, you’ll be able to take a break at home base. </p><p>The game will last 20 minutes no matter what.</p><p>You will visit home base every 5 minutes, so, you will visit home base three times during the game.</p><br><p><img src='run_exp/static/images/task_images/home_base.jpg' height='600' width='auto'></p>",,,,,,,1,,,,,,,,,,,,,,,,,,
html-keyboard-response,27,219927,0.0-10.0-2.0,"""event"",""trial"",""time""
""fullscreenenter"",""1"",""1385""
","
","
","""event"",""trial"",""time""
""fullscreenenter"",""1"",""1385""
","
",,787.9,"<p> After digging and traveling for a while, you’ll be able to take a break at home base. </p><p>The game will last 20 minutes no matter what.</p><p>You will visit home base every 5 minutes, so, you will visit home base three times during the game.</p><br><p><img src='run_exp/static/images/task_images/home_base.jpg' height='600' width='auto'></p><button class=""jspsych-html-btn-unchosen""><img src=""run_exp/static/images/task_images/planet-01.jpg"" height=""50""></button><button class=""jspsych-html-btn-chosen""><img src=""run_exp/static/images/task_images/planet-02.jpg"" height=""50""></button><p><b>[press the space bar to lock in your answer]<b><br></p>",32,,,,,,,,,,,,,,,,,,,,,,,,
instruc_prac_game,28,230056,0.0-11.0-0.0,"""event"",""trial"",""time""
""fullscreenenter"",""1"",""1385""
","
","
","""event"",""trial"",""time""
""fullscreenenter"",""1"",""1385""
","
",,null,run_exp/static/audio/clip_9_practice.m4a,null,"<p> Are you ready to play a practice game? </p> <p>In this practice game, you'll be digging up barrels of gems. But, in the real game, you'll be digging up the gems themselves. </p>",,,,,,,,,,,,,,,,,,,,,,,
html-button-response,29,232516,0.0-11.0-1.0,"""event"",""trial"",""time""
""fullscreenenter"",""1"",""1385""
","
","
","""event"",""trial"",""time""
""fullscreenenter"",""1"",""1385""
","
",,2459.3,"<p> Are you ready to play a practice game? </p> <p>In this practice game, you'll be digging up barrels of gems. But, in the real game, you'll be digging up the gems themselves. </p>",,,,,,,0,,,,,,,,,,,,,,,,,,
alien_welcome_prac,30,237522,0.0-12.0-0.0,"""event"",""trial"",""time""
""fullscreenenter"",""1"",""1385""
","
","
","""event"",""trial"",""time""
""fullscreenenter"",""1"",""1385""
","
",,null,run_exp/static/images/task_images/aliens/practice_aliens/planet/alien_planet-5.jpg,null,,,,,,,,,,,,,,,,,,,,,,,,
land_prac,31,238031,0.0-12.0-1.0,"""event"",""trial"",""time""
""fullscreenenter"",""1"",""1385""
","
","
","""event"",""trial"",""time""
""fullscreenenter"",""1"",""1385""
","
",,null,run_exp/static/images/task_images/land.jpg,null,,,,,,,103,,,0,,,,,,,,,,,,,,
dig_prac,32,240046,0.0-12.0-2.0,"""event"",""trial"",""time""
""fullscreenenter"",""1"",""1385""
","
","
","""event"",""trial"",""time""
""fullscreenenter"",""1"",""1385""
","
",,,,,,,,,,,,"[{""stimulus"":""run_exp/static/images/task_images/dig.jpg"",""time"":0.30000001192092896},{""stimulus"":""run_exp/static/images/task_images/land.jpg"",""time"":670.8999999761581},{""stimulus"":""run_exp/static/images/task_images/dig.jpg"",""time"":1346.699999988079}]",[],,,,,,,,,,,,,,,
harvest_prac,33,241054,0.0-12.0-3.0,"""event"",""trial"",""time""
""fullscreenenter"",""1"",""1385""
","
","
","""event"",""trial"",""time""
""fullscreenenter"",""1"",""1385""
","
",,null,run_exp/static/images/task_images/barrel_text.jpg,null,,,,,,,,,,,,,,,,,,,,,,,,
decision_prac,34,242590,0.0-12.0-4.0,"""event"",""trial"",""time""
""fullscreenenter"",""1"",""1385""
","
","
","""event"",""trial"",""time""
""fullscreenenter"",""1"",""1385""
","
",,1535.2,run_exp/static/images/task_images/land.jpg,65,,,,,,,,,,,1,,,,,,,,,,,,,
dig_prac,35,244602,0.0-13.0-0.0,"""event"",""trial"",""time""
""fullscreenenter"",""1"",""1385""
","
","
","""event"",""trial"",""time""
""fullscreenenter"",""1"",""1385""
","
",,,,,,,,,,,,"[{""stimulus"":""run_exp/static/images/task_images/dig.jpg"",""time"":0.10000002384185791},{""stimulus"":""run_exp/static/images/task_images/land.jpg"",""time"":679.3000000119209},{""stimulus"":""run_exp/static/images/task_images/dig.jpg"",""time"":1336.3999999761581}]",[],,,,,,,,,,,,,,,
harvest_prac,36,245616,0.0-13.0-1.0,"""event"",""trial"",""time""
""fullscreenenter"",""1"",""1385""
","
","
","""event"",""trial"",""time""
""fullscreenenter"",""1"",""1385""
","
",,null,run_exp/static/images/task_images/barrel_text.jpg,null,,,,,,,,,,,,,,,,,,,,,,,,
decision_prac,37,245934,0.0-13.0-2.0,"""event"",""trial"",""time""
""fullscreenenter"",""1"",""1385""
","
","
","""event"",""trial"",""time""
""fullscreenenter"",""1"",""1385""
","
",,317.6,run_exp/static/images/task_images/land.jpg,65,,,,,,,,,,,2,,,,,,,,,,,,,
dig_prac,38,247943,0.0-14.0-0.0,"""event"",""trial"",""time""
""fullscreenenter"",""1"",""1385""
","
","
","""event"",""trial"",""time""
""fullscreenenter"",""1"",""1385""
","
",,,,,,,,,,,,"[{""stimulus"":""run_exp/static/images/task_images/dig.jpg"",""time"":0.19999998807907104},{""stimulus"":""run_exp/static/images/task_images/land.jpg"",""time"":680.2999999523163},{""stimulus"":""run_exp/static/images/task_images/dig.jpg"",""time"":1338.5999999642372}]",[],,,,,,,,,,,,,,,
harvest_prac,39,248954,0.0-14.0-1.0,"""event"",""trial"",""time""
""fullscreenenter"",""1"",""1385""
","
","
","""event"",""trial"",""time""
""fullscreenenter"",""1"",""1385""
","
",,null,run_exp/static/images/task_images/barrel_text.jpg,null,,,,,,,,,,,,,,,,,,,,,,,,
decision_prac,40,249271,0.0-14.0-2.0,"""event"",""trial"",""time""
""fullscreenenter"",""1"",""1385""
","
","
","""event"",""trial"",""time""
""fullscreenenter"",""1"",""1385""
","
",,315.5,run_exp/static/images/task_images/land.jpg,65,,,,,,,,,,,3,,,,,,,,,,,,,
dig_prac,41,251274,0.0-15.0-0.0,"""event"",""trial"",""time""
""fullscreenenter"",""1"",""1385""
","
","
","""event"",""trial"",""time""
""fullscreenenter"",""1"",""1385""
","
",,,,,,,,,,,,"[{""stimulus"":""run_exp/static/images/task_images/dig.jpg"",""time"":0.09999996423721313},{""stimulus"":""run_exp/static/images/task_images/land.jpg"",""time"":671.8999999761581},{""stimulus"":""run_exp/static/images/task_images/dig.jpg"",""time"":1346.0999999642372}]",[],,,,,,,,,,,,,,,
harvest_prac,42,252281,0.0-15.0-1.0,"""event"",""trial"",""time""
""fullscreenenter"",""1"",""1385""
","
","
","""event"",""trial"",""time""
""fullscreenenter"",""1"",""1385""
","
",,null,run_exp/static/images/task_images/barrel_text.jpg,null,,,,,,,,,,,,,,,,,,,,,,,,
decision_prac,43,252683,0.0-15.0-2.0,"""event"",""trial"",""time""
""fullscreenenter"",""1"",""1385""
","
","
","""event"",""trial"",""time""
""fullscreenenter"",""1"",""1385""
","
",,400.9,run_exp/static/images/task_images/land.jpg,65,,,,,,,,,,,4,,,,,,,,,,,,,
dig_prac,44,254697,0.0-16.0-0.0,"""event"",""trial"",""time""
""fullscreenenter"",""1"",""1385""
","
","
","""event"",""trial"",""time""
""fullscreenenter"",""1"",""1385""
","
",,,,,,,,,,,,"[{""stimulus"":""run_exp/static/images/task_images/dig.jpg"",""time"":0.19999998807907104},{""stimulus"":""run_exp/static/images/task_images/land.jpg"",""time"":675.3999999761581},{""stimulus"":""run_exp/static/images/task_images/dig.jpg"",""time"":1345.199999988079}]",[],,,,,,,,,,,,,,,
harvest_prac,45,255710,0.0-16.0-1.0,"""event"",""trial"",""time""
""fullscreenenter"",""1"",""1385""
","
","
","""event"",""trial"",""time""
""fullscreenenter"",""1"",""1385""
","
",,null,run_exp/static/images/task_images/barrel_text.jpg,null,,,,,,,,,,,,,,,,,,,,,,,,
decision_prac,46,256038,0.0-16.0-2.0,"""event"",""trial"",""time""
""fullscreenenter"",""1"",""1385""
","
","
","""event"",""trial"",""time""
""fullscreenenter"",""1"",""1385""
","
",,326.3,run_exp/static/images/task_images/land.jpg,65,,,,,,,,,,,,1,,,,,,,,,,,,
quiz_instruc,47,258940,0.0-17.0-0.0,"""event"",""trial"",""time""
""fullscreenenter"",""1"",""1385""
","
","
","""event"",""trial"",""time""
""fullscreenenter"",""1"",""1385""
","
",,2900.5,run_exp/static/audio/clip_10_quiz.m4a,,,,,,,0,,,,,,,,,,,,,,,,,,
instruc_repeat,48,301697,0.0-17.0-1.0,"""event"",""trial"",""time""
""fullscreenenter"",""1"",""1385""
","
","
","""event"",""trial"",""time""
""fullscreenenter"",""1"",""1385""
","
",,null,"<p> Are you ready to play a practice game? </p> <p>In this practice game, you'll be digging up barrels of gems. But, in the real game, you'll be digging up the gems themselves. </p>",null,"<p>In this game, your goal is to collect as many gems as you can. That’s how you will win bonus money. </p> <p>The entire game will last 20 minutes no matter how many gems you collect or how many planets you visit. </p><p>To stay on a planet and dig again, press the letter A on your keyboard. To leave for a new planet, press the letter L.</p><p>The more you dig on a planet, the fewer gems you’ll get with each dig which is why you might consider leaving for a new planet. </p><p>When you arrive at a new planet, you’ll be greeted by an alien. What the alien looks like does not tell you anything about how much treasure is on the planet. </p>",,,,,,,,,,,,,,,,,,,,,,,
instruc_repeat_continue,49,302588,0.0-17.0-2.0,"""event"",""trial"",""time""
""fullscreenenter"",""1"",""1385""
","
","
","""event"",""trial"",""time""
""fullscreenenter"",""1"",""1385""
","
",,889.7,"<p> Are you ready to play a practice game? </p> <p>In this practice game, you'll be digging up barrels of gems. But, in the real game, you'll be digging up the gems themselves. </p>",,,,,,,0,,,,,,,,,,,,,,,,,,
quiz_q_1_ask,50,306136,0.0-17.0-3.0,"""event"",""trial"",""time""
""fullscreenenter"",""1"",""1385""
","
","
","""event"",""trial"",""time""
""fullscreenenter"",""1"",""1385""
","
",,3547.5,run_exp/static/audio/clip_11_q1_ask.m4a,,,,,,,2,,,,,,,,,,,,,,,,,,
quiz_q_1_fb_correct,51,309976,0.0-18.0-0.0,"""event"",""trial"",""time""
""fullscreenenter"",""1"",""1385""
","
","
","""event"",""trial"",""time""
""fullscreenenter"",""1"",""1385""
","
",,null,run_exp/static/audio/clip_12_q1_correct.m4a,null,<p>That’s correct. You win extra money by collecting more gems.</p>,,,,,,,,,,,,,,,,,,,,,,,
quiz_q_2_ask,52,311890,0.0-18.0-1.0,"""event"",""trial"",""time""
""fullscreenenter"",""1"",""1385""
","
","
","""event"",""trial"",""time""
""fullscreenenter"",""1"",""1385""
","
",,1912.3,run_exp/static/audio/clip_14_q2_ask.m4a,,,,,,,1,,,,,,,,,,,,,,,,,,
quiz_q_2_fb_correct,53,315896,0.0-19.0-0.0,"""event"",""trial"",""time""
""fullscreenenter"",""1"",""1385""
","
","
","""event"",""trial"",""time""
""fullscreenenter"",""1"",""1385""
","
",,null,run_exp/static/audio/clip_15_q2_correct.m4a,null,<p>That’s correct. The experiment is 20 minutes no matter what.</p>,,,,,,,,,,,,,,,,,,,,,,,
quiz_q_3_ask,54,317554,0.0-19.0-1.0,"""event"",""trial"",""time""
""fullscreenenter"",""1"",""1385""
","
","
","""event"",""trial"",""time""
""fullscreenenter"",""1"",""1385""
","
",,1657.2,run_exp/static/audio/clip_17_q3_ask.m4a,,,,,,,1,,,,,,,,,,,,,,,,,,
quiz_q_3_fb_correct,55,321536,0.0-20.0-0.0,"""event"",""trial"",""time""
""fullscreenenter"",""1"",""1385""
","
","
","""event"",""trial"",""time""
""fullscreenenter"",""1"",""1385""
","
",,null,run_exp/static/audio/clip_18_q3_correct.m4a,null,<p> That’s correct. You press the letter L to travel to a new planet.</p>,,,,,,,,,,,,,,,,,,,,,,,
quiz_q_4_ask,56,323678,0.0-20.0-1.0,"""event"",""trial"",""time""
""fullscreenenter"",""1"",""1385""
","
","
","""event"",""trial"",""time""
""fullscreenenter"",""1"",""1385""
","
",,2140.5,run_exp/static/audio/clip_20_q4_ask.m4a,,,,,,,0,,,,,,,,,,,,,,,,,,
quiz_q_4_fb_correct,57,328996,0.0-21.0-0.0,"""event"",""trial"",""time""
""fullscreenenter"",""1"",""1385""
","
","
","""event"",""trial"",""time""
""fullscreenenter"",""1"",""1385""
","
",,null,run_exp/static/audio/clip_21_q4_correct.m4a,null,<p> That’s correct. The more you dig on a planet the fewer gems you’ll get with each dig. </p>,,,,,,,,,,,,,,,,,,,,,,,
quiz_q_5_ask,58,333562,0.0-21.0-1.0,"""event"",""trial"",""time""
""fullscreenenter"",""1"",""1385""
","
","
","""event"",""trial"",""time""
""fullscreenenter"",""1"",""1385""
","
",,4564.8,run_exp/static/audio/clip_23_q5_ask.m4a,,,,,,,1,,,,,,,,,,,,,,,,,,
quiz_q_5_fb_correct,59,338556,0.0-22.0-0.0,"""event"",""trial"",""time""
""fullscreenenter"",""1"",""1385""
","
","
","""event"",""trial"",""time""
""fullscreenenter"",""1"",""1385""
","
",,null,run_exp/static/audio/clip_24_q5_correct.m4a,null,<p> That’s correct. The alien tells you nothing about how much treasure is on the planet.</p>,,,,,,,,,,,,,,,,,,,,,,,
quiz_correct,60,342016,0.0-23.0-0.0,"""event"",""trial"",""time""
""fullscreenenter"",""1"",""1385""
","
","
","""event"",""trial"",""time""
""fullscreenenter"",""1"",""1385""
","
",,null,run_exp/static/audio/clip_26_correct_quiz.m4a,null,,,,,,,,,,,,,,,,,,,,,,,,
quiz_correct_continue,61,342753,0.0-23.0-1.0,"""event"",""trial"",""time""
""fullscreenenter"",""1"",""1385""
","
","
","""event"",""trial"",""time""
""fullscreenenter"",""1"",""1385""
","
",,736.3,<p>Good job! You're now ready to move on to the real game!</p>,,,,,,,0,,,,,,,,,,,,,,,,,,
audio-keyboard-response,62,352876,0.0-23.0-2.0,"""event"",""trial"",""time""
""fullscreenenter"",""1"",""1385""
","
","
","""event"",""trial"",""time""
""fullscreenenter"",""1"",""1385""
","
",,null,run_exp/static/audio/clip_28_real_game.m4a,null,,,,,,,,,,,,,,,,,,,,,,,,
instruc_begin_exp_contine,63,353721,0.0-23.0-3.0,"""event"",""trial"",""time""
""fullscreenenter"",""1"",""1385""
","
","
","""event"",""trial"",""time""
""fullscreenenter"",""1"",""1385""
","
",,845.1,"<p>Now that you know how  to dig for space treasure and travel to new planets,you can start exploring! </p><p>Do you want to go over the instructions again or get started with the real game?</p>",,,,,,,1,,,,,,1,,,,,,,,,,,,
alien_welcome,64,358726,0.0-24.0-0.0,"""event"",""trial"",""time""
""fullscreenenter"",""1"",""1385""
","
","
","""event"",""trial"",""time""
""fullscreenenter"",""1"",""1385""
","
",,null,run_exp/static/images/task_images/aliens/old_aliens/planet/alien_planet-22.jpg,null,,,,,,,,,,,,,22,"22,25,68,6,29,23,53,50,55,11,8,47,71,78,74,69,2,48,70,51,72,75,20,3,21,13,56,34,79,35,76",,,,,,,,,,
land,65,359230,0.0-24.0-1.0,"""event"",""trial"",""time""
""fullscreenenter"",""1"",""1385""
","
","
","""event"",""trial"",""time""
""fullscreenenter"",""1"",""1385""
","
",,null,run_exp/static/images/task_images/land.jpg,null,,,,,,,102,,,1,,,,,,,,,,,,,,
dig,66,361236,0.0-24.0-2.0,"""event"",""trial"",""time""
""fullscreenenter"",""1"",""1385""
","
","
","""event"",""trial"",""time""
""fullscreenenter"",""1"",""1385""
","
",,,,,,,,,,,,"[{""stimulus"":""run_exp/static/images/task_images/dig.jpg"",""time"":0.19999998807907104},{""stimulus"":""run_exp/static/images/task_images/land.jpg"",""time"":671.6999999880791},{""stimulus"":""run_exp/static/images/task_images/dig.jpg"",""time"":1345.3999999761581}]",[],1,,,,,,,,,,,,,,
harvest,67,362244,0.0-24.0-3.0,"""event"",""trial"",""time""
""fullscreenenter"",""1"",""1385""
","
","
","""event"",""trial"",""time""
""fullscreenenter"",""1"",""1385""
","
",,null,run_exp/static/images/task_images/gems/102.jpg,null,,,,,,,23,,,1,,,,,102,0.220780678,0.225490196,,,,,,,
decision,68,362832,0.0-24.0-4.0,"""event"",""trial"",""time""
""fullscreenenter"",""1"",""1385""
","
","
","""event"",""trial"",""time""
""fullscreenenter"",""1"",""1385""
","
",,587.3,run_exp/static/images/task_images/land.jpg,65,,,,,,,23,,,1,,,,,,,,9111,1,0,FALSE,,,
dig,69,365262,0.0-25.0-0.0,"""event"",""trial"",""time""
""fullscreenenter"",""1"",""1385""
","
","
","""event"",""trial"",""time""
""fullscreenenter"",""1"",""1385""
","
",,,,,,,,,,,,"[{""stimulus"":""run_exp/static/images/task_images/dig.jpg"",""time"":0.09999996423721313},{""stimulus"":""run_exp/static/images/task_images/land.jpg"",""time"":818.5},{""stimulus"":""run_exp/static/images/task_images/dig.jpg"",""time"":1616.699999988079}]",[],1,,,,,,,,,,,,,,
harvest,70,366277,0.0-25.0-1.0,"""event"",""trial"",""time""
""fullscreenenter"",""1"",""1385""
","
","
","""event"",""trial"",""time""
""fullscreenenter"",""1"",""1385""
","
",,null,run_exp/static/images/task_images/gems/23.jpg,null,,,,,,,4,,,1,,,,,23,0.175616506,0.173913043,,,,,,,
decision,71,366418,0.0-25.0-2.0,"""event"",""trial"",""time""
""fullscreenenter"",""1"",""1385""
","
","
","""event"",""trial"",""time""
""fullscreenenter"",""1"",""1385""
","
",,140,run_exp/static/images/task_images/land.jpg,65,,,,,,,4,,,1,,,,,,,,12697,1,1,FALSE,,,
dig,72,369280,0.0-26.0-0.0,"""event"",""trial"",""time""
""fullscreenenter"",""1"",""1385""
","
","
","""event"",""trial"",""time""
""fullscreenenter"",""1"",""1385""
","
",,,,,,,,,,,,"[{""stimulus"":""run_exp/static/images/task_images/dig.jpg"",""time"":0.10000002384185791},{""stimulus"":""run_exp/static/images/task_images/land.jpg"",""time"":966.2000000476837},{""stimulus"":""run_exp/static/images/task_images/dig.jpg"",""time"":1917.7000000476837}]",[],1,,,,,,,,,,,,,,
harvest,73,370282,0.0-26.0-1.0,"""event"",""trial"",""time""
""fullscreenenter"",""1"",""1385""
","
","
","""event"",""trial"",""time""
""fullscreenenter"",""1"",""1385""
","
",,null,run_exp/static/images/task_images/gems/4.jpg,null,,,,,,,0,,,1,,,,,4,0.09820185,0,,,,,,,
decision,74,370528,0.0-26.0-2.0,"""event"",""trial"",""time""
""fullscreenenter"",""1"",""1385""
","
","
","""event"",""trial"",""time""
""fullscreenenter"",""1"",""1385""
","
",,245.2,run_exp/static/images/task_images/land.jpg,65,,,,,,,0,,,1,,,,,,,,16807,1,2,FALSE,,,
dig,75,373288,0.0-27.0-0.0,"""event"",""trial"",""time""
""fullscreenenter"",""1"",""1385""
","
","
","""event"",""trial"",""time""
""fullscreenenter"",""1"",""1385""
","
",,,,,,,,,,,,"[{""stimulus"":""run_exp/static/images/task_images/dig.jpg"",""time"":0.20000004768371582},{""stimulus"":""run_exp/static/images/task_images/land.jpg"",""time"":921.5},{""stimulus"":""run_exp/static/images/task_images/dig.jpg"",""time"":1838.6000000238419}]",[],1,,,,,,,,,,,,,,
harvest,76,374296,0.0-27.0-1.0,"""event"",""trial"",""time""
""fullscreenenter"",""1"",""1385""
","
","
","""event"",""trial"",""time""
""fullscreenenter"",""1"",""1385""
","
",,null,run_exp/static/images/task_images/gems/0.jpg,null,,,,,,,0,,,1,,,,,0,0.197558826,NaN,,,,,,,
decision,77,374736,0.0-27.0-2.0,"""event"",""trial"",""time""
""fullscreenenter"",""1"",""1385""
","
","
","""event"",""trial"",""time""
""fullscreenenter"",""1"",""1385""
","
",,439.5,run_exp/static/images/task_images/land.jpg,65,,,,,,,0,,,1,,,,,,,,21014,1,3,FALSE,,,
dig,78,377306,0.0-28.0-0.0,"""event"",""trial"",""time""
""fullscreenenter"",""1"",""1385""
","
","
","""event"",""trial"",""time""
""fullscreenenter"",""1"",""1385""
","
",,,,,,,,,,,,"[{""stimulus"":""run_exp/static/images/task_images/dig.jpg"",""time"":0.10000002384185791},{""stimulus"":""run_exp/static/images/task_images/land.jpg"",""time"":859.6000000238419},{""stimulus"":""run_exp/static/images/task_images/dig.jpg"",""time"":1707.6000000238419}]",[],1,,,,,,,,,,,,,,
harvest,79,378322,0.0-28.0-1.0,"""event"",""trial"",""time""
""fullscreenenter"",""1"",""1385""
","
","
","""event"",""trial"",""time""
""fullscreenenter"",""1"",""1385""
","
",,null,run_exp/static/images/task_images/gems/0.jpg,null,,,,,,,0,,,1,,,,,0,0.247194586,NaN,,,,,,,
decision,80,378930,0.0-28.0-2.0,"""event"",""trial"",""time""
""fullscreenenter"",""1"",""1385""
","
","
","""event"",""trial"",""time""
""fullscreenenter"",""1"",""1385""
","
",,606.9,run_exp/static/images/task_images/land.jpg,76,,,,,,,0,,,1,,,,,,,,25208,1,4,TRUE,,,
travel,81,388334,0.0-29.0-0.0,"""event"",""trial"",""time""
""fullscreenenter"",""1"",""1385""
","
","
","""event"",""trial"",""time""
""fullscreenenter"",""1"",""1385""
","
",,,,,,,,,,,,"[{""stimulus"":""run_exp/static/images/task_images/rocket-01.jpg"",""time"":0.10000002384185791},{""stimulus"":""run_exp/static/images/task_images/rocket-02.jpg"",""time"":1047.199999988079},{""stimulus"":""run_exp/static/images/task_images/rocket-03.jpg"",""time"":2098.800000011921},{""stimulus"":""run_exp/static/images/task_images/rocket-04.jpg"",""time"":3138.800000011921},{""stimulus"":""run_exp/static/images/task_images/rocket-05.jpg"",""time"":4174.400000035763},{""stimulus"":""run_exp/static/images/task_images/rocket-06.jpg"",""time"":5219.300000011921},{""stimulus"":""run_exp/static/images/task_images/rocket-07.jpg"",""time"":6260.5},{""stimulus"":""run_exp/static/images/task_images/rocket-08.jpg"",""time"":7313},{""stimulus"":""run_exp/static/images/task_images/rocket-09.jpg"",""time"":8352.699999988079}]",[],1,,,,,,,,,,,,,,
alien_welcome,82,393342,0.0-29.0-1.0,"""event"",""trial"",""time""
""fullscreenenter"",""1"",""1385""
","
","
","""event"",""trial"",""time""
""fullscreenenter"",""1"",""1385""
","
",,null,run_exp/static/images/task_images/aliens/old_aliens/planet/alien_planet-25.jpg,null,,,,,,,,,,,,,25,"22,25,68,6,29,23,53,50,55,11,8,47,71,78,74,69,2,48,70,51,72,75,20,3,21,13,56,34,79,35,76",,,,,,,,,,
land,83,393856,0.0-29.0-2.0,"""event"",""trial"",""time""
""fullscreenenter"",""1"",""1385""
","
","
","""event"",""trial"",""time""
""fullscreenenter"",""1"",""1385""
","
",,null,run_exp/static/images/task_images/land.jpg,null,,,,,,,105,,,2,,,,,,,,,,,,,,
dig,84,395872,0.0-29.0-3.0,"""event"",""trial"",""time""
""fullscreenenter"",""1"",""1385""
","
","
","""event"",""trial"",""time""
""fullscreenenter"",""1"",""1385""
","
",,,,,,,,,,,,"[{""stimulus"":""run_exp/static/images/task_images/dig.jpg"",""time"":0.10000002384185791},{""stimulus"":""run_exp/static/images/task_images/land.jpg"",""time"":672.1000000238419},{""stimulus"":""run_exp/static/images/task_images/dig.jpg"",""time"":1342.4000000357628}]",[],2,,,,,,,,,,,,,,
harvest,85,396880,0.0-29.0-4.0,"""event"",""trial"",""time""
""fullscreenenter"",""1"",""1385""
","
","
","""event"",""trial"",""time""
""fullscreenenter"",""1"",""1385""
","
",,null,run_exp/static/images/task_images/gems/105.jpg,null,,,,,,,17,,,2,,,,,105,0.158756616,0.161904762,,,,,,,
decision,86,397257,0.0-29.0-5.0,"""event"",""trial"",""time""
""fullscreenenter"",""1"",""1385""
","
","
","""event"",""trial"",""time""
""fullscreenenter"",""1"",""1385""
","
",,376.5,run_exp/static/images/task_images/land.jpg,65,,,,,,,17,,,2,,,,,,,,43535,1,0,FALSE,,,
dig,87,399894,0.0-30.0-0.0,"""event"",""trial"",""time""
""fullscreenenter"",""1"",""1385""
","
","
","""event"",""trial"",""time""
""fullscreenenter"",""1"",""1385""
","
",,,,,,,,,,,,"[{""stimulus"":""run_exp/static/images/task_images/dig.jpg"",""time"":0.10000002384185791},{""stimulus"":""run_exp/static/images/task_images/land.jpg"",""time"":882.7000000476837},{""stimulus"":""run_exp/static/images/task_images/dig.jpg"",""time"":1760.9000000357628}]",[],2,,,,,,,,,,,,,,
harvest,88,400898,0.0-30.0-1.0,"""event"",""trial"",""time""
""fullscreenenter"",""1"",""1385""
","
","
","""event"",""trial"",""time""
""fullscreenenter"",""1"",""1385""
","
",,null,run_exp/static/images/task_images/gems/17.jpg,null,,,,,,,2,,,2,,,,,17,0.143649878,0.117647059,,,,,,,
decision,89,401154,0.0-30.0-2.0,"""event"",""trial"",""time""
""fullscreenenter"",""1"",""1385""
","
","
","""event"",""trial"",""time""
""fullscreenenter"",""1"",""1385""
","
",,254.8,run_exp/static/images/task_images/land.jpg,65,,,,,,,2,,,2,,,,,,,,47432,1,1,FALSE,,,
dig,90,403914,0.0-31.0-0.0,"""event"",""trial"",""time""
""fullscreenenter"",""1"",""1385""
","
","
","""event"",""trial"",""time""
""fullscreenenter"",""1"",""1385""
","
",,,,,,,,,,,,"[{""stimulus"":""run_exp/static/images/task_images/dig.jpg"",""time"":0.10000002384185791},{""stimulus"":""run_exp/static/images/task_images/land.jpg"",""time"":928.2000000476837},{""stimulus"":""run_exp/static/images/task_images/dig.jpg"",""time"":1834.800000011921}]",[],2,,,,,,,,,,,,,,
harvest,91,404925,0.0-31.0-1.0,"""event"",""trial"",""time""
""fullscreenenter"",""1"",""1385""
","
","
","""event"",""trial"",""time""
""fullscreenenter"",""1"",""1385""
","
",,null,run_exp/static/images/task_images/gems/2.jpg,null,,,,,,,0,,,2,,,,,2,0.215298768,0,,,,,,,
decision,92,405262,0.0-31.0-2.0,"""event"",""trial"",""time""
""fullscreenenter"",""1"",""1385""
","
","
","""event"",""trial"",""time""
""fullscreenenter"",""1"",""1385""
","
",,334.8,run_exp/static/images/task_images/land.jpg,65,,,,,,,0,,,2,,,,,,,,51540,1,2,FALSE,,,
dig,93,407941,0.0-32.0-0.0,"""event"",""trial"",""time""
""fullscreenenter"",""1"",""1385""
","
","
","""event"",""trial"",""time""
""fullscreenenter"",""1"",""1385""
","
",,,,,,,,,,,,"[{""stimulus"":""run_exp/static/images/task_images/dig.jpg"",""time"":0.10000002384185791},{""stimulus"":""run_exp/static/images/task_images/land.jpg"",""time"":894.3999999761581},{""stimulus"":""run_exp/static/images/task_images/dig.jpg"",""time"":1786.6000000238419}]",[],2,,,,,,,,,,,,,,
harvest,94,408956,0.0-32.0-1.0,"""event"",""trial"",""time""
""fullscreenenter"",""1"",""1385""
","
","
","""event"",""trial"",""time""
""fullscreenenter"",""1"",""1385""
","
",,null,run_exp/static/images/task_images/gems/0.jpg,null,,,,,,,0,,,2,,,,,0,0.277750005,NaN,,,,,,,
decision,95,409464,0.0-32.0-2.0,"""event"",""trial"",""time""
""fullscreenenter"",""1"",""1385""
","
","
","""event"",""trial"",""time""
""fullscreenenter"",""1"",""1385""
","
",,506.9,run_exp/static/images/task_images/land.jpg,65,,,,,,,0,,,2,,,,,,,,55742,1,3,FALSE,,,
dig,96,411974,0.0-33.0-0.0,"""event"",""trial"",""time""
""fullscreenenter"",""1"",""1385""
","
","
","""event"",""trial"",""time""
""fullscreenenter"",""1"",""1385""
","
",,,,,,,,,,,,"[{""stimulus"":""run_exp/static/images/task_images/dig.jpg"",""time"":0.10000002384185791},{""stimulus"":""run_exp/static/images/task_images/land.jpg"",""time"":836.8000000119209},{""stimulus"":""run_exp/static/images/task_images/dig.jpg"",""time"":1665.6000000238419}]",[],2,,,,,,,,,,,,,,
harvest,97,412983,0.0-33.0-1.0,"""event"",""trial"",""time""
""fullscreenenter"",""1"",""1385""
","
","
","""event"",""trial"",""time""
""fullscreenenter"",""1"",""1385""
","
",,null,run_exp/static/images/task_images/gems/0.jpg,null,,,,,,,0,,,2,,,,,0,0.23277925,NaN,,,,,,,
decision,98,413770,0.0-33.0-2.0,"""event"",""trial"",""time""
""fullscreenenter"",""1"",""1385""
","
","
","""event"",""trial"",""time""
""fullscreenenter"",""1"",""1385""
","
",,786.2,run_exp/static/images/task_images/land.jpg,76,,,,,,,0,,,2,,,,,,,,60048,1,4,TRUE,,,
travel,99,422993,0.0-34.0-0.0,"""event"",""trial"",""time""
""fullscreenenter"",""1"",""1385""
","
","
","""event"",""trial"",""time""
""fullscreenenter"",""1"",""1385""
","
",,,,,,,,,,,,"[{""stimulus"":""run_exp/static/images/task_images/rocket-01.jpg"",""time"":0.2999999523162842},{""stimulus"":""run_exp/static/images/task_images/rocket-02.jpg"",""time"":1028.3999999761581},{""stimulus"":""run_exp/static/images/task_images/rocket-03.jpg"",""time"":2050.5},{""stimulus"":""run_exp/static/images/task_images/rocket-04.jpg"",""time"":3079.2999999523163},{""stimulus"":""run_exp/static/images/task_images/rocket-05.jpg"",""time"":4095.099999964237},{""stimulus"":""run_exp/static/images/task_images/rocket-06.jpg"",""time"":5130.599999964237},{""stimulus"":""run_exp/static/images/task_images/rocket-07.jpg"",""time"":6144.299999952316},{""stimulus"":""run_exp/static/images/task_images/rocket-08.jpg"",""time"":7164.099999964237},{""stimulus"":""run_exp/static/images/task_images/rocket-09.jpg"",""time"":8197.799999952316}]",[],2,,,,,,,,,,,,,,
alien_welcome,100,428004,0.0-34.0-1.0,"""event"",""trial"",""time""
""fullscreenenter"",""1"",""1385""
","
","
","""event"",""trial"",""time""
""fullscreenenter"",""1"",""1385""
","
",,null,run_exp/static/images/task_images/aliens/old_aliens/planet/alien_planet-68.jpg,null,,,,,,,,,,,,,68,"22,25,68,6,29,23,53,50,55,11,8,47,71,78,74,69,2,48,70,51,72,75,20,3,21,13,56,34,79,35,76",,,,,,,,,,
land,101,428520,0.0-34.0-2.0,"""event"",""trial"",""time""
""fullscreenenter"",""1"",""1385""
","
","
","""event"",""trial"",""time""
""fullscreenenter"",""1"",""1385""
","
",,null,run_exp/static/images/task_images/land.jpg,null,,,,,,,106,,,3,,,,,,,,,,,,,,
dig,102,430536,0.0-34.0-3.0,"""event"",""trial"",""time""
""fullscreenenter"",""1"",""1385""
","
","
","""event"",""trial"",""time""
""fullscreenenter"",""1"",""1385""
","
",,,,,,,,,,,,"[{""stimulus"":""run_exp/static/images/task_images/dig.jpg"",""time"":0.19999998807907104},{""stimulus"":""run_exp/static/images/task_images/land.jpg"",""time"":673.0999999642372},{""stimulus"":""run_exp/static/images/task_images/dig.jpg"",""time"":1350.699999988079}]",[],3,,,,,,,,,,,,,,
harvest,103,431542,0.0-34.0-4.0,"""event"",""trial"",""time""
""fullscreenenter"",""1"",""1385""
","
","
","""event"",""trial"",""time""
""fullscreenenter"",""1"",""1385""
","
",,null,run_exp/static/images/task_images/gems/106.jpg,null,,,,,,,55,,,3,,,,,106,0.520511876,0.518867925,,,,,,,
decision,104,431826,0.0-34.0-5.0,"""event"",""trial"",""time""
""fullscreenenter"",""1"",""1385""
","
","
","""event"",""trial"",""time""
""fullscreenenter"",""1"",""1385""
","
",,282.9,run_exp/static/images/task_images/land.jpg,65,,,,,,,55,,,3,,,,,,,,78104,1,0,FALSE,,,
dig,105,434556,0.0-35.0-0.0,"""event"",""trial"",""time""
""fullscreenenter"",""1"",""1385""
","
","
","""event"",""trial"",""time""
""fullscreenenter"",""1"",""1385""
","
",,,,,,,,,,,,"[{""stimulus"":""run_exp/static/images/task_images/dig.jpg"",""time"":0},{""stimulus"":""run_exp/static/images/task_images/land.jpg"",""time"":910.2999999523163},{""stimulus"":""run_exp/static/images/task_images/dig.jpg"",""time"":1822.0999999642372}]",[],3,,,,,,,,,,,,,,
harvest,106,435563,0.0-35.0-1.0,"""event"",""trial"",""time""
""fullscreenenter"",""1"",""1385""
","
","
","""event"",""trial"",""time""
""fullscreenenter"",""1"",""1385""
","
",,null,run_exp/static/images/task_images/gems/55.jpg,null,,,,,,,24,,,3,,,,,55,0.437450117,0.436363636,,,,,,,
decision,107,436429,0.0-35.0-2.0,"""event"",""trial"",""time""
""fullscreenenter"",""1"",""1385""
","
","
","""event"",""trial"",""time""
""fullscreenenter"",""1"",""1385""
","
",,864.9,run_exp/static/images/task_images/land.jpg,65,,,,,,,24,,,3,,,,,,,,82707,1,1,FALSE,,,
dig,108,438570,0.0-36.0-0.0,"""event"",""trial"",""time""
""fullscreenenter"",""1"",""1385""
","
","
","""event"",""trial"",""time""
""fullscreenenter"",""1"",""1385""
","
",,,,,,,,,,,,"[{""stimulus"":""run_exp/static/images/task_images/dig.jpg"",""time"":0.20000004768371582},{""stimulus"":""run_exp/static/images/task_images/land.jpg"",""time"":727.3000000119209},{""stimulus"":""run_exp/static/images/task_images/dig.jpg"",""time"":1438.4000000357628}]",[],3,,,,,,,,,,,,,,
harvest,109,439576,0.0-36.0-1.0,"""event"",""trial"",""time""
""fullscreenenter"",""1"",""1385""
","
","
","""event"",""trial"",""time""
""fullscreenenter"",""1"",""1385""
","
",,null,run_exp/static/images/task_images/gems/24.jpg,null,,,,,,,13,,,3,,,,,24,0.549910591,0.541666667,,,,,,,
decision,110,440307,0.0-36.0-2.0,"""event"",""trial"",""time""
""fullscreenenter"",""1"",""1385""
","
","
","""event"",""trial"",""time""
""fullscreenenter"",""1"",""1385""
","
",,730.7,run_exp/static/images/task_images/land.jpg,65,,,,,,,13,,,3,,,,,,,,86585,1,2,FALSE,,,
dig,111,442589,0.0-37.0-0.0,"""event"",""trial"",""time""
""fullscreenenter"",""1"",""1385""
","
","
","""event"",""trial"",""time""
""fullscreenenter"",""1"",""1385""
","
",,,,,,,,,,,,"[{""stimulus"":""run_exp/static/images/task_images/dig.jpg"",""time"":0.10000002384185791},{""stimulus"":""run_exp/static/images/task_images/land.jpg"",""time"":758.5},{""stimulus"":""run_exp/static/images/task_images/dig.jpg"",""time"":1526.8999999761581}]",[],3,,,,,,,,,,,,,,
harvest,112,443599,0.0-37.0-1.0,"""event"",""trial"",""time""
""fullscreenenter"",""1"",""1385""
","
","
","""event"",""trial"",""time""
""fullscreenenter"",""1"",""1385""
","
",,null,run_exp/static/images/task_images/gems/13.jpg,null,,,,,,,6,,,3,,,,,13,0.478159194,0.461538462,,,,,,,
decision,113,444054,0.0-37.0-2.0,"""event"",""trial"",""time""
""fullscreenenter"",""1"",""1385""
","
","
","""event"",""trial"",""time""
""fullscreenenter"",""1"",""1385""
","
",,453.8,run_exp/static/images/task_images/land.jpg,65,,,,,,,6,,,3,,,,,,,,90332,1,3,FALSE,,,
dig,114,446610,0.0-38.0-0.0,"""event"",""trial"",""time""
""fullscreenenter"",""1"",""1385""
","
","
","""event"",""trial"",""time""
""fullscreenenter"",""1"",""1385""
","
",,,,,,,,,,,,"[{""stimulus"":""run_exp/static/images/task_images/dig.jpg"",""time"":0.19999998807907104},{""stimulus"":""run_exp/static/images/task_images/land.jpg"",""time"":854.6000000238419},{""stimulus"":""run_exp/static/images/task_images/dig.jpg"",""time"":1703.6000000238419}]",[],3,,,,,,,,,,,,,,
harvest,115,447612,0.0-38.0-1.0,"""event"",""trial"",""time""
""fullscreenenter"",""1"",""1385""
","
","
","""event"",""trial"",""time""
""fullscreenenter"",""1"",""1385""
","
",,null,run_exp/static/images/task_images/gems/6.jpg,null,,,,,,,3,,,3,,,,,6,0.427232639,0.5,,,,,,,
decision,116,448184,0.0-38.0-2.0,"""event"",""trial"",""time""
""fullscreenenter"",""1"",""1385""
","
","
","""event"",""trial"",""time""
""fullscreenenter"",""1"",""1385""
","
",,570.2,run_exp/static/images/task_images/land.jpg,65,,,,,,,3,,,3,,,,,,,,94462,1,4,FALSE,,,
dig,117,450619,0.0-39.0-0.0,"""event"",""trial"",""time""
""fullscreenenter"",""1"",""1385""
","
","
","""event"",""trial"",""time""
""fullscreenenter"",""1"",""1385""
","
",,,,,,,,,,,,"[{""stimulus"":""run_exp/static/images/task_images/dig.jpg"",""time"":0.19999998807907104},{""stimulus"":""run_exp/static/images/task_images/land.jpg"",""time"":815},{""stimulus"":""run_exp/static/images/task_images/dig.jpg"",""time"":1633.300000011921}]",[],3,,,,,,,,,,,,,,
harvest,118,451626,0.0-39.0-1.0,"""event"",""trial"",""time""
""fullscreenenter"",""1"",""1385""
","
","
","""event"",""trial"",""time""
""fullscreenenter"",""1"",""1385""
","
",,null,run_exp/static/images/task_images/gems/3.jpg,null,,,,,,,1,,,3,,,,,3,0.453643202,0.333333333,,,,,,,
decision,119,452006,0.0-39.0-2.0,"""event"",""trial"",""time""
""fullscreenenter"",""1"",""1385""
","
","
","""event"",""trial"",""time""
""fullscreenenter"",""1"",""1385""
","
",,379.9,run_exp/static/images/task_images/land.jpg,65,,,,,,,1,,,3,,,,,,,,98284,1,5,FALSE,,,
dig,120,454642,0.0-40.0-0.0,"""event"",""trial"",""time""
""fullscreenenter"",""1"",""1385""
","
","
","""event"",""trial"",""time""
""fullscreenenter"",""1"",""1385""
","
",,,,,,,,,,,,"[{""stimulus"":""run_exp/static/images/task_images/dig.jpg"",""time"":0.10000002384185791},{""stimulus"":""run_exp/static/images/task_images/land.jpg"",""time"":883.4000000357628},{""stimulus"":""run_exp/static/images/task_images/dig.jpg"",""time"":1761.6000000238419}]",[],3,,,,,,,,,,,,,,
harvest,121,455646,0.0-40.0-1.0,"""event"",""trial"",""time""
""fullscreenenter"",""1"",""1385""
","
","
","""event"",""trial"",""time""
""fullscreenenter"",""1"",""1385""
","
",,null,run_exp/static/images/task_images/gems/1.jpg,null,,,,,,,1,,,3,,,,,1,0.505604309,1,,,,,,,
decision,122,456082,0.0-40.0-2.0,"""event"",""trial"",""time""
""fullscreenenter"",""1"",""1385""
","
","
","""event"",""trial"",""time""
""fullscreenenter"",""1"",""1385""
","
",,435.8,run_exp/static/images/task_images/land.jpg,65,,,,,,,1,,,3,,,,,,,,102360,1,6,FALSE,,,
dig,123,458652,0.0-41.0-0.0,"""event"",""trial"",""time""
""fullscreenenter"",""1"",""1385""
","
","
","""event"",""trial"",""time""
""fullscreenenter"",""1"",""1385""
","
",,,,,,,,,,,,"[{""stimulus"":""run_exp/static/images/task_images/dig.jpg"",""time"":0.10000002384185791},{""stimulus"":""run_exp/static/images/task_images/land.jpg"",""time"":868},{""stimulus"":""run_exp/static/images/task_images/dig.jpg"",""time"":1714.199999988079}]",[],3,,,,,,,,,,,,,,
harvest,124,459660,0.0-41.0-1.0,"""event"",""trial"",""time""
""fullscreenenter"",""1"",""1385""
","
","
","""event"",""trial"",""time""
""fullscreenenter"",""1"",""1385""
","
",,null,run_exp/static/images/task_images/gems/1.jpg,null,,,,,,,1,,,3,,,,,1,0.534154239,1,,,,,,,
decision,125,459967,0.0-41.0-2.0,"""event"",""trial"",""time""
""fullscreenenter"",""1"",""1385""
","
","
","""event"",""trial"",""time""
""fullscreenenter"",""1"",""1385""
","
",,306.2,run_exp/static/images/task_images/land.jpg,65,,,,,,,0,,,3,,,,,,,,106245,1,7,FALSE,,,
dig,126,462676,0.0-42.0-0.0,"""event"",""trial"",""time""
""fullscreenenter"",""1"",""1385""
","
","
","""event"",""trial"",""time""
""fullscreenenter"",""1"",""1385""
","
",,,,,,,,,,,,"[{""stimulus"":""run_exp/static/images/task_images/dig.jpg"",""time"":0.09999996423721313},{""stimulus"":""run_exp/static/images/task_images/land.jpg"",""time"":913.0999999642372},{""stimulus"":""run_exp/static/images/task_images/dig.jpg"",""time"":1809.0999999642372}]",[],3,,,,,,,,,,,,,,
harvest,127,463679,0.0-42.0-1.0,"""event"",""trial"",""time""
""fullscreenenter"",""1"",""1385""
","
","
","""event"",""trial"",""time""
""fullscreenenter"",""1"",""1385""
","
",,null,run_exp/static/images/task_images/gems/0.jpg,null,,,,,,,0,,,3,,,,,0,0.553940373,NaN,,,,,,,
decision,128,463861,0.0-42.0-2.0,"""event"",""trial"",""time""
""fullscreenenter"",""1"",""1385""
","
","
","""event"",""trial"",""time""
""fullscreenenter"",""1"",""1385""
","
",,181.2,run_exp/static/images/task_images/land.jpg,76,,,,,,,0,,,3,,,,,,,,110139,1,8,TRUE,,,
travel,129,473678,0.0-43.0-0.0,"""event"",""trial"",""time""
""fullscreenenter"",""1"",""1385""
","
","
","""event"",""trial"",""time""
""fullscreenenter"",""1"",""1385""
","
",,,,,,,,,,,,"[{""stimulus"":""run_exp/static/images/task_images/rocket-01.jpg"",""time"":0.09999996423721313},{""stimulus"":""run_exp/static/images/task_images/rocket-02.jpg"",""time"":1100.300000011921},{""stimulus"":""run_exp/static/images/task_images/rocket-03.jpg"",""time"":2188.300000011921},{""stimulus"":""run_exp/static/images/task_images/rocket-04.jpg"",""time"":3285.599999964237},{""stimulus"":""run_exp/static/images/task_images/rocket-05.jpg"",""time"":4367.599999964237},{""stimulus"":""run_exp/static/images/task_images/rocket-06.jpg"",""time"":5456.699999988079},{""stimulus"":""run_exp/static/images/task_images/rocket-07.jpg"",""time"":6541.099999964237},{""stimulus"":""run_exp/static/images/task_images/rocket-08.jpg"",""time"":7640.899999976158},{""stimulus"":""run_exp/static/images/task_images/rocket-09.jpg"",""time"":8727.5}]",[],3,,,,,,,,,,,,,,
alien_welcome,130,478682,0.0-43.0-1.0,"""event"",""trial"",""time""
""fullscreenenter"",""1"",""1385""
","
","
","""event"",""trial"",""time""
""fullscreenenter"",""1"",""1385""
","
",,null,run_exp/static/images/task_images/aliens/old_aliens/planet/alien_planet-6.jpg,null,,,,,,,,,,,,,6,"22,25,68,6,29,23,53,50,55,11,8,47,71,78,74,69,2,48,70,51,72,75,20,3,21,13,56,34,79,35,76",,,,,,,,,,
land,131,479186,0.0-43.0-2.0,"""event"",""trial"",""time""
""fullscreenenter"",""1"",""1385""
","
","
","""event"",""trial"",""time""
""fullscreenenter"",""1"",""1385""
","
",,null,run_exp/static/images/task_images/land.jpg,null,,,,,,,105,,,4,,,,,,,,,,,,,,
dig,132,481198,0.0-43.0-3.0,"""event"",""trial"",""time""
""fullscreenenter"",""1"",""1385""
","
","
","""event"",""trial"",""time""
""fullscreenenter"",""1"",""1385""
","
",,,,,,,,,,,,"[{""stimulus"":""run_exp/static/images/task_images/dig.jpg"",""time"":0.10000002384185791},{""stimulus"":""run_exp/static/images/task_images/land.jpg"",""time"":672.3999999761581},{""stimulus"":""run_exp/static/images/task_images/dig.jpg"",""time"":1348.300000011921}]",[],4,,,,,,,,,,,,,,
harvest,133,482209,0.0-43.0-4.0,"""event"",""trial"",""time""
""fullscreenenter"",""1"",""1385""
","
","
","""event"",""trial"",""time""
""fullscreenenter"",""1"",""1385""
","
",,null,run_exp/static/images/task_images/gems/105.jpg,null,,,,,,,51,,,4,,,,,105,0.485827141,0.485714286,,,,,,,
decision,134,482691,0.0-43.0-5.0,"""event"",""trial"",""time""
""fullscreenenter"",""1"",""1385""
","
","
","""event"",""trial"",""time""
""fullscreenenter"",""1"",""1385""
","
",,481,run_exp/static/images/task_images/land.jpg,65,,,,,,,51,,,4,,,,,,,,128969,1,0,FALSE,,,
dig,135,485213,0.0-44.0-0.0,"""event"",""trial"",""time""
""fullscreenenter"",""1"",""1385""
","
","
","""event"",""trial"",""time""
""fullscreenenter"",""1"",""1385""
","
",,,,,,,,,,,,"[{""stimulus"":""run_exp/static/images/task_images/dig.jpg"",""time"":0.09999996423721313},{""stimulus"":""run_exp/static/images/task_images/land.jpg"",""time"":840.5999999642372},{""stimulus"":""run_exp/static/images/task_images/dig.jpg"",""time"":1688.699999988079}]",[],4,,,,,,,,,,,,,,
harvest,136,486218,0.0-44.0-1.0,"""event"",""trial"",""time""
""fullscreenenter"",""1"",""1385""
","
","
","""event"",""trial"",""time""
""fullscreenenter"",""1"",""1385""
","
",,null,run_exp/static/images/task_images/gems/51.jpg,null,,,,,,,26,,,4,,,,,51,0.50194975,0.509803922,,,,,,,
decision,137,486323,0.0-44.0-2.0,"""event"",""trial"",""time""
""fullscreenenter"",""1"",""1385""
","
","
","""event"",""trial"",""time""
""fullscreenenter"",""1"",""1385""
","
",,104.1,run_exp/static/images/task_images/land.jpg,65,,,,,,,26,,,4,,,,,,,,132601,1,1,FALSE,,,
dig,138,489226,0.0-45.0-0.0,"""event"",""trial"",""time""
""fullscreenenter"",""1"",""1385""
","
","
","""event"",""trial"",""time""
""fullscreenenter"",""1"",""1385""
","
",,,,,,,,,,,,"[{""stimulus"":""run_exp/static/images/task_images/dig.jpg"",""time"":0.19999998807907104},{""stimulus"":""run_exp/static/images/task_images/land.jpg"",""time"":976.8000000119209},{""stimulus"":""run_exp/static/images/task_images/dig.jpg"",""time"":1943.300000011921}]",[],4,,,,,,,,,,,,,,
harvest,139,490234,0.0-45.0-1.0,"""event"",""trial"",""time""
""fullscreenenter"",""1"",""1385""
","
","
","""event"",""trial"",""time""
""fullscreenenter"",""1"",""1385""
","
",,null,run_exp/static/images/task_images/gems/26.jpg,null,,,,,,,14,,,4,,,,,26,0.530773434,0.538461538,,,,,,,
decision,140,490562,0.0-45.0-2.0,"""event"",""trial"",""time""
""fullscreenenter"",""1"",""1385""
","
","
","""event"",""trial"",""time""
""fullscreenenter"",""1"",""1385""
","
",,326.7,run_exp/static/images/task_images/land.jpg,65,,,,,,,14,,,4,,,,,,,,136840,1,2,FALSE,,,
dig,141,493242,0.0-46.0-0.0,"""event"",""trial"",""time""
""fullscreenenter"",""1"",""1385""
","
","
","""event"",""trial"",""time""
""fullscreenenter"",""1"",""1385""
","
",,,,,,,,,,,,"[{""stimulus"":""run_exp/static/images/task_images/dig.jpg"",""time"":0.09999996423721313},{""stimulus"":""run_exp/static/images/task_images/land.jpg"",""time"":896.6999999880791},{""stimulus"":""run_exp/static/images/task_images/dig.jpg"",""time"":1794.3999999761581}]",[],4,,,,,,,,,,,,,,
harvest,142,494252,0.0-46.0-1.0,"""event"",""trial"",""time""
""fullscreenenter"",""1"",""1385""
","
","
","""event"",""trial"",""time""
""fullscreenenter"",""1"",""1385""
","
",,null,run_exp/static/images/task_images/gems/14.jpg,null,,,,,,,8,,,4,,,,,14,0.536170361,0.571428571,,,,,,,
decision,143,494462,0.0-46.0-2.0,"""event"",""trial"",""time""
""fullscreenenter"",""1"",""1385""
","
","
","""event"",""trial"",""time""
""fullscreenenter"",""1"",""1385""
","
",,208.3,run_exp/static/images/task_images/land.jpg,65,,,,,,,8,,,4,,,,,,,,140740,1,3,FALSE,,,
dig,144,497263,0.0-47.0-0.0,"""event"",""trial"",""time""
""fullscreenenter"",""1"",""1385""
","
","
","""event"",""trial"",""time""
""fullscreenenter"",""1"",""1385""
","
",,,,,,,,,,,,"[{""stimulus"":""run_exp/static/images/task_images/dig.jpg"",""time"":0.19999998807907104},{""stimulus"":""run_exp/static/images/task_images/land.jpg"",""time"":936.1000000238419},{""stimulus"":""run_exp/static/images/task_images/dig.jpg"",""time"":1871.699999988079}]",[],4,,,,,,,,,,,,,,
harvest,145,498279,0.0-47.0-1.0,"""event"",""trial"",""time""
""fullscreenenter"",""1"",""1385""
","
","
","""event"",""trial"",""time""
""fullscreenenter"",""1"",""1385""
","
",,null,run_exp/static/images/task_images/gems/8.jpg,null,,,,,,,5,,,4,,,,,8,0.577157323,0.625,,,,,,,
decision,146,498530,0.0-47.0-2.0,"""event"",""trial"",""time""
""fullscreenenter"",""1"",""1385""
","
","
","""event"",""trial"",""time""
""fullscreenenter"",""1"",""1385""
","
",,249.8,run_exp/static/images/task_images/land.jpg,65,,,,,,,5,,,4,,,,,,,,144808,1,4,FALSE,,,
dig,147,501291,0.0-48.0-0.0,"""event"",""trial"",""time""
""fullscreenenter"",""1"",""1385""
","
","
","""event"",""trial"",""time""
""fullscreenenter"",""1"",""1385""
","
",,,,,,,,,,,,"[{""stimulus"":""run_exp/static/images/task_images/dig.jpg"",""time"":0.10000002384185791},{""stimulus"":""run_exp/static/images/task_images/land.jpg"",""time"":923.6000000238419},{""stimulus"":""run_exp/static/images/task_images/dig.jpg"",""time"":1833.199999988079}]",[],4,,,,,,,,,,,,,,
harvest,148,502296,0.0-48.0-1.0,"""event"",""trial"",""time""
""fullscreenenter"",""1"",""1385""
","
","
","""event"",""trial"",""time""
""fullscreenenter"",""1"",""1385""
","
",,null,run_exp/static/images/task_images/gems/5.jpg,null,,,,,,,2,,,4,,,,,5,0.398402773,0.4,,,,,,,
decision,149,502672,0.0-48.0-2.0,"""event"",""trial"",""time""
""fullscreenenter"",""1"",""1385""
","
","
","""event"",""trial"",""time""
""fullscreenenter"",""1"",""1385""
","
",,375.1,run_exp/static/images/task_images/land.jpg,65,,,,,,,2,,,4,,,,,,,,148951,1,5,FALSE,,,
dig,150,505299,0.0-49.0-0.0,"""event"",""trial"",""time""
""fullscreenenter"",""1"",""1385""
","
","
","""event"",""trial"",""time""
""fullscreenenter"",""1"",""1385""
","
",,,,,,,,,,,,"[{""stimulus"":""run_exp/static/images/task_images/dig.jpg"",""time"":0.09999996423721313},{""stimulus"":""run_exp/static/images/task_images/land.jpg"",""time"":881.5999999642372},{""stimulus"":""run_exp/static/images/task_images/dig.jpg"",""time"":1761.699999988079}]",[],4,,,,,,,,,,,,,,
harvest,151,506306,0.0-49.0-1.0,"""event"",""trial"",""time""
""fullscreenenter"",""1"",""1385""
","
","
","""event"",""trial"",""time""
""fullscreenenter"",""1"",""1385""
","
",,null,run_exp/static/images/task_images/gems/2.jpg,null,,,,,,,1,,,4,,,,,2,0.474653015,0.5,,,,,,,
decision,152,506672,0.0-49.0-2.0,"""event"",""trial"",""time""
""fullscreenenter"",""1"",""1385""
","
","
","""event"",""trial"",""time""
""fullscreenenter"",""1"",""1385""
","
",,364.7,run_exp/static/images/task_images/land.jpg,65,,,,,,,1,,,4,,,,,,,,152950,1,6,FALSE,,,
dig,153,509310,0.0-50.0-0.0,"""event"",""trial"",""time""
""fullscreenenter"",""1"",""1385""
","
","
","""event"",""trial"",""time""
""fullscreenenter"",""1"",""1385""
","
",,,,,,,,,,,,"[{""stimulus"":""run_exp/static/images/task_images/dig.jpg"",""time"":0.10000002384185791},{""stimulus"":""run_exp/static/images/task_images/land.jpg"",""time"":880.1000000238419},{""stimulus"":""run_exp/static/images/task_images/dig.jpg"",""time"":1759.199999988079}]",[],4,,,,,,,,,,,,,,
harvest,154,510326,0.0-50.0-1.0,"""event"",""trial"",""time""
""fullscreenenter"",""1"",""1385""
","
","
","""event"",""trial"",""time""
""fullscreenenter"",""1"",""1385""
","
",,null,run_exp/static/images/task_images/gems/1.jpg,null,,,,,,,1,,,4,,,,,1,0.501483081,1,,,,,,,
decision,155,510475,0.0-50.0-2.0,"""event"",""trial"",""time""
""fullscreenenter"",""1"",""1385""
","
","
","""event"",""trial"",""time""
""fullscreenenter"",""1"",""1385""
","
",,147.5,run_exp/static/images/task_images/land.jpg,65,,,,,,,1,,,4,,,,,,,,156753,1,7,FALSE,,,
dig,156,513331,0.0-51.0-0.0,"""event"",""trial"",""time""
""fullscreenenter"",""1"",""1385""
","
","
","""event"",""trial"",""time""
""fullscreenenter"",""1"",""1385""
","
",,,,,,,,,,,,"[{""stimulus"":""run_exp/static/images/task_images/dig.jpg"",""time"":0.09999996423721313},{""stimulus"":""run_exp/static/images/task_images/land.jpg"",""time"":962.5},{""stimulus"":""run_exp/static/images/task_images/dig.jpg"",""time"":1914}]",[],4,,,,,,,,,,,,,,
harvest,157,514341,0.0-51.0-1.0,"""event"",""trial"",""time""
""fullscreenenter"",""1"",""1385""
","
","
","""event"",""trial"",""time""
""fullscreenenter"",""1"",""1385""
","
",,null,run_exp/static/images/task_images/gems/1.jpg,null,,,,,,,0,,,4,,,,,1,0.499161058,0,,,,,,,
decision,158,514532,0.0-51.0-2.0,"""event"",""trial"",""time""
""fullscreenenter"",""1"",""1385""
","
","
","""event"",""trial"",""time""
""fullscreenenter"",""1"",""1385""
","
",,190.3,run_exp/static/images/task_images/land.jpg,65,,,,,,,0,,,4,,,,,,,,160810,1,8,FALSE,,,
dig,159,517354,0.0-52.0-0.0,"""event"",""trial"",""time""
""fullscreenenter"",""1"",""1385""
","
","
","""event"",""trial"",""time""
""fullscreenenter"",""1"",""1385""
","
",,,,,,,,,,,,"[{""stimulus"":""run_exp/static/images/task_images/dig.jpg"",""time"":0.10000002384185791},{""stimulus"":""run_exp/static/images/task_images/land.jpg"",""time"":949.8999999761581},{""stimulus"":""run_exp/static/images/task_images/dig.jpg"",""time"":1880}]",[],4,,,,,,,,,,,,,,
harvest,160,518367,0.0-52.0-1.0,"""event"",""trial"",""time""
""fullscreenenter"",""1"",""1385""
","
","
","""event"",""trial"",""time""
""fullscreenenter"",""1"",""1385""
","
",,null,run_exp/static/images/task_images/gems/0.jpg,null,,,,,,,0,,,4,,,,,0,0.629050323,NaN,,,,,,,
decision,161,519118,0.0-52.0-2.0,"""event"",""trial"",""time""
""fullscreenenter"",""1"",""1385""
","
","
","""event"",""trial"",""time""
""fullscreenenter"",""1"",""1385""
","
",,750.2,run_exp/static/images/task_images/land.jpg,76,,,,,,,0,,,4,,,,,,,,165396,1,9,TRUE,,,
travel,162,528373,0.0-53.0-0.0,"""event"",""trial"",""time""
""fullscreenenter"",""1"",""1385""
","
","
","""event"",""trial"",""time""
""fullscreenenter"",""1"",""1385""
","
",,,,,,,,,,,,"[{""stimulus"":""run_exp/static/images/task_images/rocket-01.jpg"",""time"":0},{""stimulus"":""run_exp/static/images/task_images/rocket-02.jpg"",""time"":1028},{""stimulus"":""run_exp/static/images/task_images/rocket-03.jpg"",""time"":2065.600000023842},{""stimulus"":""run_exp/static/images/task_images/rocket-04.jpg"",""time"":3090.899999976158},{""stimulus"":""run_exp/static/images/task_images/rocket-05.jpg"",""time"":4110.399999976158},{""stimulus"":""run_exp/static/images/task_images/rocket-06.jpg"",""time"":5137.399999976158},{""stimulus"":""run_exp/static/images/task_images/rocket-07.jpg"",""time"":6171.199999988079},{""stimulus"":""run_exp/static/images/task_images/rocket-08.jpg"",""time"":7195.100000023842},{""stimulus"":""run_exp/static/images/task_images/rocket-09.jpg"",""time"":8228.899999976158}]",[],4,,,,,,,,,,,,,,
alien_welcome,163,533388,0.0-53.0-1.0,"""event"",""trial"",""time""
""fullscreenenter"",""1"",""1385""
","
","
","""event"",""trial"",""time""
""fullscreenenter"",""1"",""1385""
","
",,null,run_exp/static/images/task_images/aliens/old_aliens/planet/alien_planet-29.jpg,null,,,,,,,,,,,,,29,"22,25,68,6,29,23,53,50,55,11,8,47,71,78,74,69,2,48,70,51,72,75,20,3,21,13,56,34,79,35,76",,,,,,,,,,
land,164,533890,0.0-53.0-2.0,"""event"",""trial"",""time""
""fullscreenenter"",""1"",""1385""
","
","
","""event"",""trial"",""time""
""fullscreenenter"",""1"",""1385""
","
",,null,run_exp/static/images/task_images/land.jpg,null,,,,,,,91,,,5,,,,,,,,,,,,,,
dig,165,535908,0.0-53.0-3.0,"""event"",""trial"",""time""
""fullscreenenter"",""1"",""1385""
","
","
","""event"",""trial"",""time""
""fullscreenenter"",""1"",""1385""
","
",,,,,,,,,,,,"[{""stimulus"":""run_exp/static/images/task_images/dig.jpg"",""time"":0.19999998807907104},{""stimulus"":""run_exp/static/images/task_images/land.jpg"",""time"":678.8000000119209},{""stimulus"":""run_exp/static/images/task_images/dig.jpg"",""time"":1336.300000011921}]",[],5,,,,,,,,,,,,,,
harvest,166,536915,0.0-53.0-4.0,"""event"",""trial"",""time""
""fullscreenenter"",""1"",""1385""
","
","
","""event"",""trial"",""time""
""fullscreenenter"",""1"",""1385""
","
",,null,run_exp/static/images/task_images/gems/91.jpg,null,,,,,,,36,,,5,,,,,91,0.391340077,0.395604396,,,,,,,
decision,167,537133,0.0-53.0-5.0,"""event"",""trial"",""time""
""fullscreenenter"",""1"",""1385""
","
","
","""event"",""trial"",""time""
""fullscreenenter"",""1"",""1385""
","
",,217.2,run_exp/static/images/task_images/land.jpg,65,,,,,,,36,,,5,,,,,,,,183411,1,0,FALSE,,,
dig,168,539932,0.0-54.0-0.0,"""event"",""trial"",""time""
""fullscreenenter"",""1"",""1385""
","
","
","""event"",""trial"",""time""
""fullscreenenter"",""1"",""1385""
","
",,,,,,,,,,,,"[{""stimulus"":""run_exp/static/images/task_images/dig.jpg"",""time"":0.09999996423721313},{""stimulus"":""run_exp/static/images/task_images/land.jpg"",""time"":937.3999999761581},{""stimulus"":""run_exp/static/images/task_images/dig.jpg"",""time"":1870}]",[],5,,,,,,,,,,,,,,
harvest,169,540938,0.0-54.0-1.0,"""event"",""trial"",""time""
""fullscreenenter"",""1"",""1385""
","
","
","""event"",""trial"",""time""
""fullscreenenter"",""1"",""1385""
","
",,null,run_exp/static/images/task_images/gems/36.jpg,null,,,,,,,16,,,5,,,,,36,0.438342536,0.444444444,,,,,,,
decision,170,541238,0.0-54.0-2.0,"""event"",""trial"",""time""
""fullscreenenter"",""1"",""1385""
","
","
","""event"",""trial"",""time""
""fullscreenenter"",""1"",""1385""
","
",,298.9,run_exp/static/images/task_images/land.jpg,65,,,,,,,16,,,5,,,,,,,,187517,1,1,FALSE,,,
dig,171,543946,0.0-55.0-0.0,"""event"",""trial"",""time""
""fullscreenenter"",""1"",""1385""
","
","
","""event"",""trial"",""time""
""fullscreenenter"",""1"",""1385""
","
",,,,,,,,,,,,"[{""stimulus"":""run_exp/static/images/task_images/dig.jpg"",""time"":0.10000002384185791},{""stimulus"":""run_exp/static/images/task_images/land.jpg"",""time"":911.1000000238419},{""stimulus"":""run_exp/static/images/task_images/dig.jpg"",""time"":1807.800000011921}]",[],5,,,,,,,,,,,,,,
harvest,172,544954,0.0-55.0-1.0,"""event"",""trial"",""time""
""fullscreenenter"",""1"",""1385""
","
","
","""event"",""trial"",""time""
""fullscreenenter"",""1"",""1385""
","
",,null,run_exp/static/images/task_images/gems/16.jpg,null,,,,,,,7,,,5,,,,,16,0.468427134,0.4375,,,,,,,
decision,173,545548,0.0-55.0-2.0,"""event"",""trial"",""time""
""fullscreenenter"",""1"",""1385""
","
","
","""event"",""trial"",""time""
""fullscreenenter"",""1"",""1385""
","
",,593.3,run_exp/static/images/task_images/land.jpg,65,,,,,,,7,,,5,,,,,,,,191826,1,2,FALSE,,,
dig,174,547961,0.0-56.0-0.0,"""event"",""trial"",""time""
""fullscreenenter"",""1"",""1385""
","
","
","""event"",""trial"",""time""
""fullscreenenter"",""1"",""1385""
","
",,,,,,,,,,,,"[{""stimulus"":""run_exp/static/images/task_images/dig.jpg"",""time"":0},{""stimulus"":""run_exp/static/images/task_images/land.jpg"",""time"":810.6999999880791},{""stimulus"":""run_exp/static/images/task_images/dig.jpg"",""time"":1606.699999988079}]",[],5,,,,,,,,,,,,,,
harvest,175,548965,0.0-56.0-1.0,"""event"",""trial"",""time""
""fullscreenenter"",""1"",""1385""
","
","
","""event"",""trial"",""time""
""fullscreenenter"",""1"",""1385""
","
",,null,run_exp/static/images/task_images/gems/7.jpg,null,,,,,,,3,,,5,,,,,7,0.499507412,0.428571429,,,,,,,
decision,176,549803,0.0-56.0-2.0,"""event"",""trial"",""time""
""fullscreenenter"",""1"",""1385""
","
","
","""event"",""trial"",""time""
""fullscreenenter"",""1"",""1385""
","
",,836.9,run_exp/static/images/task_images/land.jpg,65,,,,,,,3,,,5,,,,,,,,196081,1,3,FALSE,,,
dig,177,551970,0.0-57.0-0.0,"""event"",""trial"",""time""
""fullscreenenter"",""1"",""1385""
","
","
","""event"",""trial"",""time""
""fullscreenenter"",""1"",""1385""
","
",,,,,,,,,,,,"[{""stimulus"":""run_exp/static/images/task_images/dig.jpg"",""time"":0.09999996423721313},{""stimulus"":""run_exp/static/images/task_images/land.jpg"",""time"":730.6999999880791},{""stimulus"":""run_exp/static/images/task_images/dig.jpg"",""time"":1454.5}]",[],5,,,,,,,,,,,,,,
harvest,178,552980,0.0-57.0-1.0,"""event"",""trial"",""time""
""fullscreenenter"",""1"",""1385""
","
","
","""event"",""trial"",""time""
""fullscreenenter"",""1"",""1385""
","
",,null,run_exp/static/images/task_images/gems/3.jpg,null,,,,,,,1,,,5,,,,,3,0.478040571,0.333333333,,,,,,,
decision,179,553466,0.0-57.0-2.0,"""event"",""trial"",""time""
""fullscreenenter"",""1"",""1385""
","
","
","""event"",""trial"",""time""
""fullscreenenter"",""1"",""1385""
","
",,484.7,run_exp/static/images/task_images/land.jpg,65,,,,,,,1,,,5,,,,,,,,199744,1,4,FALSE,,,
dig,180,555992,0.0-58.0-0.0,"""event"",""trial"",""time""
""fullscreenenter"",""1"",""1385""
","
","
","""event"",""trial"",""time""
""fullscreenenter"",""1"",""1385""
","
",,,,,,,,,,,,"[{""stimulus"":""run_exp/static/images/task_images/dig.jpg"",""time"":0.10000002384185791},{""stimulus"":""run_exp/static/images/task_images/land.jpg"",""time"":853.1999999880791},{""stimulus"":""run_exp/static/images/task_images/dig.jpg"",""time"":1684.5}]",[],5,,,,,,,,,,,,,,
harvest,181,556998,0.0-58.0-1.0,"""event"",""trial"",""time""
""fullscreenenter"",""1"",""1385""
","
","
","""event"",""trial"",""time""
""fullscreenenter"",""1"",""1385""
","
",,null,run_exp/static/images/task_images/gems/1.jpg,null,,,,,,,0,,,5,,,,,1,0.454915096,0,,,,,,,
decision,182,557355,0.0-58.0-2.0,"""event"",""trial"",""time""
""fullscreenenter"",""1"",""1385""
","
","
","""event"",""trial"",""time""
""fullscreenenter"",""1"",""1385""
","
",,356.9,run_exp/static/images/task_images/land.jpg,76,,,,,,,0,,,5,,,,,,,,203633,1,5,TRUE,,,
travel,183,566999,0.0-59.0-0.0,"""event"",""trial"",""time""
""fullscreenenter"",""1"",""1385""
","
","
","""event"",""trial"",""time""
""fullscreenenter"",""1"",""1385""
","
",,,,,,,,,,,,"[{""stimulus"":""run_exp/static/images/task_images/rocket-01.jpg"",""time"":0.10000002384185791},{""stimulus"":""run_exp/static/images/task_images/rocket-02.jpg"",""time"":1074.3999999761581},{""stimulus"":""run_exp/static/images/task_images/rocket-03.jpg"",""time"":2149.199999988079},{""stimulus"":""run_exp/static/images/task_images/rocket-04.jpg"",""time"":3222.100000023842},{""stimulus"":""run_exp/static/images/task_images/rocket-05.jpg"",""time"":4290.199999988079},{""stimulus"":""run_exp/static/images/task_images/rocket-06.jpg"",""time"":5357.600000023842},{""stimulus"":""run_exp/static/images/task_images/rocket-07.jpg"",""time"":6432.300000011921},{""stimulus"":""run_exp/static/images/task_images/rocket-08.jpg"",""time"":7507.699999988079},{""stimulus"":""run_exp/static/images/task_images/rocket-09.jpg"",""time"":8574.5}]",[],5,,,,,,,,,,,,,,
alien_welcome,184,572006,0.0-59.0-1.0,"""event"",""trial"",""time""
""fullscreenenter"",""1"",""1385""
","
","
","""event"",""trial"",""time""
""fullscreenenter"",""1"",""1385""
","
",,null,run_exp/static/images/task_images/aliens/old_aliens/planet/alien_planet-23.jpg,null,,,,,,,,,,,,,23,"22,25,68,6,29,23,53,50,55,11,8,47,71,78,74,69,2,48,70,51,72,75,20,3,21,13,56,34,79,35,76",,,,,,,,,,
land,185,572521,0.0-59.0-2.0,"""event"",""trial"",""time""
""fullscreenenter"",""1"",""1385""
","
","
","""event"",""trial"",""time""
""fullscreenenter"",""1"",""1385""
","
",,null,run_exp/static/images/task_images/land.jpg,null,,,,,,,97,,,6,,,,,,,,,,,,,,
dig,186,574538,0.0-59.0-3.0,"""event"",""trial"",""time""
""fullscreenenter"",""1"",""1385""
","
","
","""event"",""trial"",""time""
""fullscreenenter"",""1"",""1385""
","
",,,,,,,,,,,,"[{""stimulus"":""run_exp/static/images/task_images/dig.jpg"",""time"":0.19999998807907104},{""stimulus"":""run_exp/static/images/task_images/land.jpg"",""time"":669.8999999761581},{""stimulus"":""run_exp/static/images/task_images/dig.jpg"",""time"":1341}]",[],6,,,,,,,,,,,,,,
harvest,187,575544,0.0-59.0-4.0,"""event"",""trial"",""time""
""fullscreenenter"",""1"",""1385""
","
","
","""event"",""trial"",""time""
""fullscreenenter"",""1"",""1385""
","
",,null,run_exp/static/images/task_images/gems/97.jpg,null,,,,,,,78,,,6,,,,,97,0.808855196,0.804123711,,,,,,,
decision,188,575809,0.0-59.0-5.0,"""event"",""trial"",""time""
""fullscreenenter"",""1"",""1385""
","
","
","""event"",""trial"",""time""
""fullscreenenter"",""1"",""1385""
","
",,263.4,run_exp/static/images/task_images/land.jpg,65,,,,,,,78,,,6,,,,,,,,222087,1,0,FALSE,,,
dig,189,578556,0.0-60.0-0.0,"""event"",""trial"",""time""
""fullscreenenter"",""1"",""1385""
","
","
","""event"",""trial"",""time""
""fullscreenenter"",""1"",""1385""
","
",,,,,,,,,,,,"[{""stimulus"":""run_exp/static/images/task_images/dig.jpg"",""time"":0.30000001192092896},{""stimulus"":""run_exp/static/images/task_images/land.jpg"",""time"":926.6000000238419},{""stimulus"":""run_exp/static/images/task_images/dig.jpg"",""time"":1836}]",[],6,,,,,,,,,,,,,,
harvest,190,579558,0.0-60.0-1.0,"""event"",""trial"",""time""
""fullscreenenter"",""1"",""1385""
","
","
","""event"",""trial"",""time""
""fullscreenenter"",""1"",""1385""
","
",,null,run_exp/static/images/task_images/gems/78.jpg,null,,,,,,,64,,,6,,,,,78,0.814170017,0.820512821,,,,,,,
decision,191,579806,0.0-60.0-2.0,"""event"",""trial"",""time""
""fullscreenenter"",""1"",""1385""
","
","
","""event"",""trial"",""time""
""fullscreenenter"",""1"",""1385""
","
",,247.2,run_exp/static/images/task_images/land.jpg,65,,,,,,,64,,,6,,,,,,,,226084,1,1,FALSE,,,
dig,192,582562,0.0-61.0-0.0,"""event"",""trial"",""time""
""fullscreenenter"",""1"",""1385""
","
","
","""event"",""trial"",""time""
""fullscreenenter"",""1"",""1385""
","
",,,,,,,,,,,,"[{""stimulus"":""run_exp/static/images/task_images/dig.jpg"",""time"":0},{""stimulus"":""run_exp/static/images/task_images/land.jpg"",""time"":920.3000000119209},{""stimulus"":""run_exp/static/images/task_images/dig.jpg"",""time"":1842.5}]",[],6,,,,,,,,,,,,,,
harvest,193,583565,0.0-61.0-1.0,"""event"",""trial"",""time""
""fullscreenenter"",""1"",""1385""
","
","
","""event"",""trial"",""time""
""fullscreenenter"",""1"",""1385""
","
",,null,run_exp/static/images/task_images/gems/64.jpg,null,,,,,,,51,,,6,,,,,64,0.791509596,0.796875,,,,,,,
decision,194,583920,0.0-61.0-2.0,"""event"",""trial"",""time""
""fullscreenenter"",""1"",""1385""
","
","
","""event"",""trial"",""time""
""fullscreenenter"",""1"",""1385""
","
",,353.4,run_exp/static/images/task_images/land.jpg,65,,,,,,,51,,,6,,,,,,,,230198,1,2,FALSE,,,
dig,195,586578,0.0-62.0-0.0,"""event"",""trial"",""time""
""fullscreenenter"",""1"",""1385""
","
","
","""event"",""trial"",""time""
""fullscreenenter"",""1"",""1385""
","
",,,,,,,,,,,,"[{""stimulus"":""run_exp/static/images/task_images/dig.jpg"",""time"":0.19999998807907104},{""stimulus"":""run_exp/static/images/task_images/land.jpg"",""time"":890.6999999880791},{""stimulus"":""run_exp/static/images/task_images/dig.jpg"",""time"":1772.0999999642372}]",[],6,,,,,,,,,,,,,,
harvest,196,587590,0.0-62.0-1.0,"""event"",""trial"",""time""
""fullscreenenter"",""1"",""1385""
","
","
","""event"",""trial"",""time""
""fullscreenenter"",""1"",""1385""
","
",,null,run_exp/static/images/task_images/gems/51.jpg,null,,,,,,,42,,,6,,,,,51,0.826217675,0.823529412,,,,,,,
decision,197,587897,0.0-62.0-2.0,"""event"",""trial"",""time""
""fullscreenenter"",""1"",""1385""
","
","
","""event"",""trial"",""time""
""fullscreenenter"",""1"",""1385""
","
",,305.8,run_exp/static/images/task_images/land.jpg,65,,,,,,,42,,,6,,,,,,,,234175,1,3,FALSE,,,
dig,198,590600,0.0-63.0-0.0,"""event"",""trial"",""time""
""fullscreenenter"",""1"",""1385""
","
","
","""event"",""trial"",""time""
""fullscreenenter"",""1"",""1385""
","
",,,,,,,,,,,,"[{""stimulus"":""run_exp/static/images/task_images/dig.jpg"",""time"":0.10000002384185791},{""stimulus"":""run_exp/static/images/task_images/land.jpg"",""time"":905.1999999880791},{""stimulus"":""run_exp/static/images/task_images/dig.jpg"",""time"":1801.699999988079}]",[],6,,,,,,,,,,,,,,
harvest,199,591605,0.0-63.0-1.0,"""event"",""trial"",""time""
""fullscreenenter"",""1"",""1385""
","
","
","""event"",""trial"",""time""
""fullscreenenter"",""1"",""1385""
","
",,null,run_exp/static/images/task_images/gems/42.jpg,null,,,,,,,38,,,6,,,,,42,0.906054023,0.904761905,,,,,,,
decision,200,591913,0.0-63.0-2.0,"""event"",""trial"",""time""
""fullscreenenter"",""1"",""1385""
","
","
","""event"",""trial"",""time""
""fullscreenenter"",""1"",""1385""
","
",,306.4,run_exp/static/images/task_images/land.jpg,65,,,,,,,38,,,6,,,,,,,,238191,1,4,FALSE,,,
dig,201,594622,0.0-64.0-0.0,"""event"",""trial"",""time""
""fullscreenenter"",""1"",""1385""
","
","
","""event"",""trial"",""time""
""fullscreenenter"",""1"",""1385""
","
",,,,,,,,,,,,"[{""stimulus"":""run_exp/static/images/task_images/dig.jpg"",""time"":0.10000002384185791},{""stimulus"":""run_exp/static/images/task_images/land.jpg"",""time"":905.3000000119209},{""stimulus"":""run_exp/static/images/task_images/dig.jpg"",""time"":1797}]",[],6,,,,,,,,,,,,,,
harvest,202,595634,0.0-64.0-1.0,"""event"",""trial"",""time""
""fullscreenenter"",""1"",""1385""
","
","
","""event"",""trial"",""time""
""fullscreenenter"",""1"",""1385""
","
",,null,run_exp/static/images/task_images/gems/38.jpg,null,,,,,,,29,,,6,,,,,38,0.760621399,0.763157895,,,,,,,
decision,203,596194,0.0-64.0-2.0,"""event"",""trial"",""time""
""fullscreenenter"",""1"",""1385""
","
","
","""event"",""trial"",""time""
""fullscreenenter"",""1"",""1385""
","
",,558.7,run_exp/static/images/task_images/land.jpg,65,,,,,,,29,,,6,,,,,,,,242472,1,5,FALSE,,,
dig,204,598648,0.0-65.0-0.0,"""event"",""trial"",""time""
""fullscreenenter"",""1"",""1385""
","
","
","""event"",""trial"",""time""
""fullscreenenter"",""1"",""1385""
","
",,,,,,,,,,,,"[{""stimulus"":""run_exp/static/images/task_images/dig.jpg"",""time"":0.19999998807907104},{""stimulus"":""run_exp/static/images/task_images/land.jpg"",""time"":816.0999999642372},{""stimulus"":""run_exp/static/images/task_images/dig.jpg"",""time"":1634.300000011921}]",[],6,,,,,,,,,,,,,,
harvest,205,599652,0.0-65.0-1.0,"""event"",""trial"",""time""
""fullscreenenter"",""1"",""1385""
","
","
","""event"",""trial"",""time""
""fullscreenenter"",""1"",""1385""
","
",,null,run_exp/static/images/task_images/gems/29.jpg,null,,,,,,,24,,,6,,,,,29,0.844118103,0.827586207,,,,,,,
decision,206,600030,0.0-65.0-2.0,"""event"",""trial"",""time""
""fullscreenenter"",""1"",""1385""
","
","
","""event"",""trial"",""time""
""fullscreenenter"",""1"",""1385""
","
",,377.1,run_exp/static/images/task_images/land.jpg,65,,,,,,,24,,,6,,,,,,,,246308,1,6,FALSE,,,
dig,207,602662,0.0-66.0-0.0,"""event"",""trial"",""time""
""fullscreenenter"",""1"",""1385""
","
","
","""event"",""trial"",""time""
""fullscreenenter"",""1"",""1385""
","
",,,,,,,,,,,,"[{""stimulus"":""run_exp/static/images/task_images/dig.jpg"",""time"":0.10000002384185791},{""stimulus"":""run_exp/static/images/task_images/land.jpg"",""time"":880.6999999880791},{""stimulus"":""run_exp/static/images/task_images/dig.jpg"",""time"":1763.1000000238419}]",[],6,,,,,,,,,,,,,,
harvest,208,603666,0.0-66.0-1.0,"""event"",""trial"",""time""
""fullscreenenter"",""1"",""1385""
","
","
","""event"",""trial"",""time""
""fullscreenenter"",""1"",""1385""
","
",,null,run_exp/static/images/task_images/gems/24.jpg,null,,,,,,,19,,,6,,,,,24,0.79798627,0.791666667,,,,,,,
decision,209,603707,0.0-66.0-2.0,"""event"",""trial"",""time""
""fullscreenenter"",""1"",""1385""
","
","
","""event"",""trial"",""time""
""fullscreenenter"",""1"",""1385""
","
",,39.80000001,run_exp/static/images/task_images/land.jpg,65,,,,,,,19,,,6,,,,,,,,249985,1,7,FALSE,,,
dig,210,606677,0.0-67.0-0.0,"""event"",""trial"",""time""
""fullscreenenter"",""1"",""1385""
","
","
","""event"",""trial"",""time""
""fullscreenenter"",""1"",""1385""
","
",,,,,,,,,,,,"[{""stimulus"":""run_exp/static/images/task_images/dig.jpg"",""time"":0.10000002384185791},{""stimulus"":""run_exp/static/images/task_images/land.jpg"",""time"":999.8999999761581},{""stimulus"":""run_exp/static/images/task_images/dig.jpg"",""time"":1979.800000011921}]",[],6,,,,,,,,,,,,,,
harvest,211,607682,0.0-67.0-1.0,"""event"",""trial"",""time""
""fullscreenenter"",""1"",""1385""
","
","
","""event"",""trial"",""time""
""fullscreenenter"",""1"",""1385""
","
",,null,run_exp/static/images/task_images/gems/19.jpg,null,,,,,,,14,,,6,,,,,19,0.730482693,0.736842105,,,,,,,
decision,212,607814,0.0-67.0-2.0,"""event"",""trial"",""time""
""fullscreenenter"",""1"",""1385""
","
","
","""event"",""trial"",""time""
""fullscreenenter"",""1"",""1385""
","
",,130.3,run_exp/static/images/task_images/land.jpg,65,,,,,,,14,,,6,,,,,,,,254092,1,8,FALSE,,,
dig,213,610697,0.0-68.0-0.0,"""event"",""trial"",""time""
""fullscreenenter"",""1"",""1385""
","
","
","""event"",""trial"",""time""
""fullscreenenter"",""1"",""1385""
","
",,,,,,,,,,,,"[{""stimulus"":""run_exp/static/images/task_images/dig.jpg"",""time"":0.19999998807907104},{""stimulus"":""run_exp/static/images/task_images/land.jpg"",""time"":962.6000000238419},{""stimulus"":""run_exp/static/images/task_images/dig.jpg"",""time"":1922.300000011921}]",[],6,,,,,,,,,,,,,,
harvest,214,611714,0.0-68.0-1.0,"""event"",""trial"",""time""
""fullscreenenter"",""1"",""1385""
","
","
","""event"",""trial"",""time""
""fullscreenenter"",""1"",""1385""
","
",,null,run_exp/static/images/task_images/gems/14.jpg,null,,,,,,,12,,,6,,,,,14,0.858193925,0.857142857,,,,,,,
decision,215,611881,0.0-68.0-2.0,"""event"",""trial"",""time""
""fullscreenenter"",""1"",""1385""
","
","
","""event"",""trial"",""time""
""fullscreenenter"",""1"",""1385""
","
",,165.5,run_exp/static/images/task_images/land.jpg,65,,,,,,,12,,,6,,,,,,,,258159,1,9,FALSE,,,
dig,216,614731,0.0-69.0-0.0,"""event"",""trial"",""time""
""fullscreenenter"",""1"",""1385""
","
","
","""event"",""trial"",""time""
""fullscreenenter"",""1"",""1385""
","
",,,,,,,,,,,,"[{""stimulus"":""run_exp/static/images/task_images/dig.jpg"",""time"":0.10000002384185791},{""stimulus"":""run_exp/static/images/task_images/land.jpg"",""time"":958.1000000238419},{""stimulus"":""run_exp/static/images/task_images/dig.jpg"",""time"":1899.9000000357628}]",[],6,,,,,,,,,,,,,,
harvest,217,615746,0.0-69.0-1.0,"""event"",""trial"",""time""
""fullscreenenter"",""1"",""1385""
","
","
","""event"",""trial"",""time""
""fullscreenenter"",""1"",""1385""
","
",,null,run_exp/static/images/task_images/gems/12.jpg,null,,,,,,,9,,,6,,,,,12,0.77469818,0.75,,,,,,,
decision,218,616046,0.0-69.0-2.0,"""event"",""trial"",""time""
""fullscreenenter"",""1"",""1385""
","
","
","""event"",""trial"",""time""
""fullscreenenter"",""1"",""1385""
","
",,298.3,run_exp/static/images/task_images/land.jpg,65,,,,,,,9,,,6,,,,,,,,262324,1,10,FALSE,,,
dig,219,618751,0.0-70.0-0.0,"""event"",""trial"",""time""
""fullscreenenter"",""1"",""1385""
","
","
","""event"",""trial"",""time""
""fullscreenenter"",""1"",""1385""
","
",,,,,,,,,,,,"[{""stimulus"":""run_exp/static/images/task_images/dig.jpg"",""time"":0.10000002384185791},{""stimulus"":""run_exp/static/images/task_images/land.jpg"",""time"":907},{""stimulus"":""run_exp/static/images/task_images/dig.jpg"",""time"":1805}]",[],6,,,,,,,,,,,,,,
harvest,220,619759,0.0-70.0-1.0,"""event"",""trial"",""time""
""fullscreenenter"",""1"",""1385""
","
","
","""event"",""trial"",""time""
""fullscreenenter"",""1"",""1385""
","
",,null,run_exp/static/images/task_images/gems/9.jpg,null,,,,,,,6,,,6,,,,,9,0.697109984,0.666666667,,,,,,,
decision,221,620205,0.0-70.0-2.0,"""event"",""trial"",""time""
""fullscreenenter"",""1"",""1385""
","
","
","""event"",""trial"",""time""
""fullscreenenter"",""1"",""1385""
","
",,445.7,run_exp/static/images/task_images/land.jpg,65,,,,,,,6,,,6,,,,,,,,266484,1,11,FALSE,,,
dig,222,622767,0.0-71.0-0.0,"""event"",""trial"",""time""
""fullscreenenter"",""1"",""1385""
","
","
","""event"",""trial"",""time""
""fullscreenenter"",""1"",""1385""
","
",,,,,,,,,,,,"[{""stimulus"":""run_exp/static/images/task_images/dig.jpg"",""time"":0.09999996423721313},{""stimulus"":""run_exp/static/images/task_images/land.jpg"",""time"":866.6999999880791},{""stimulus"":""run_exp/static/images/task_images/dig.jpg"",""time"":1715}]",[],6,,,,,,,,,,,,,,
harvest,223,623784,0.0-71.0-1.0,"""event"",""trial"",""time""
""fullscreenenter"",""1"",""1385""
","
","
","""event"",""trial"",""time""
""fullscreenenter"",""1"",""1385""
","
",,null,run_exp/static/images/task_images/gems/6.jpg,null,,,,,,,5,,,6,,,,,6,0.754316539,0.833333333,,,,,,,
decision,224,624097,0.0-71.0-2.0,"""event"",""trial"",""time""
""fullscreenenter"",""1"",""1385""
","
","
","""event"",""trial"",""time""
""fullscreenenter"",""1"",""1385""
","
",,312.4,run_exp/static/images/task_images/land.jpg,65,,,,,,,5,,,6,,,,,,,,270375,1,12,FALSE,,,
dig,225,626789,0.0-72.0-0.0,"""event"",""trial"",""time""
""fullscreenenter"",""1"",""1385""
","
","
","""event"",""trial"",""time""
""fullscreenenter"",""1"",""1385""
","
",,,,,,,,,,,,"[{""stimulus"":""run_exp/static/images/task_images/dig.jpg"",""time"":0.10000002384185791},{""stimulus"":""run_exp/static/images/task_images/land.jpg"",""time"":907},{""stimulus"":""run_exp/static/images/task_images/dig.jpg"",""time"":1805.800000011921}]",[],6,,,,,,,,,,,,,,
harvest,226,627799,0.0-72.0-1.0,"""event"",""trial"",""time""
""fullscreenenter"",""1"",""1385""
","
","
","""event"",""trial"",""time""
""fullscreenenter"",""1"",""1385""
","
",,null,run_exp/static/images/task_images/gems/5.jpg,null,,,,,,,4,,,6,,,,,5,0.86917919,0.8,,,,,,,
decision,227,627878,0.0-72.0-2.0,"""event"",""trial"",""time""
""fullscreenenter"",""1"",""1385""
","
","
","""event"",""trial"",""time""
""fullscreenenter"",""1"",""1385""
","
",,77.5,run_exp/static/images/task_images/land.jpg,76,,,,,,,4,,,6,,,,,,,,274156,1,13,TRUE,,,
travel,228,637807,0.0-73.0-0.0,"""event"",""trial"",""time""
""fullscreenenter"",""1"",""1385""
","
","
","""event"",""trial"",""time""
""fullscreenenter"",""1"",""1385""
","
",,,,,,,,,,,,"[{""stimulus"":""run_exp/static/images/task_images/rocket-01.jpg"",""time"":0.10000002384185791},{""stimulus"":""run_exp/static/images/task_images/rocket-02.jpg"",""time"":1116.7000000476837},{""stimulus"":""run_exp/static/images/task_images/rocket-03.jpg"",""time"":2213.300000011921},{""stimulus"":""run_exp/static/images/task_images/rocket-04.jpg"",""time"":3317.7000000476837},{""stimulus"":""run_exp/static/images/task_images/rocket-05.jpg"",""time"":4418.900000035763},{""stimulus"":""run_exp/static/images/task_images/rocket-06.jpg"",""time"":5519.700000047684},{""stimulus"":""run_exp/static/images/task_images/rocket-07.jpg"",""time"":6614.600000023842},{""stimulus"":""run_exp/static/images/task_images/rocket-08.jpg"",""time"":7717.700000047684},{""stimulus"":""run_exp/static/images/task_images/rocket-09.jpg"",""time"":8822.400000035763}]",[],6,,,,,,,,,,,,,,
alien_welcome,229,642816,0.0-73.0-1.0,"""event"",""trial"",""time""
""fullscreenenter"",""1"",""1385""
","
","
","""event"",""trial"",""time""
""fullscreenenter"",""1"",""1385""
","
",,null,run_exp/static/images/task_images/aliens/old_aliens/planet/alien_planet-53.jpg,null,,,,,,,,,,,,,53,"22,25,68,6,29,23,53,50,55,11,8,47,71,78,74,69,2,48,70,51,72,75,20,3,21,13,56,34,79,35,76",,,,,,,,,,
land,230,643332,0.0-73.0-2.0,"""event"",""trial"",""time""
""fullscreenenter"",""1"",""1385""
","
","
","""event"",""trial"",""time""
""fullscreenenter"",""1"",""1385""
","
",,null,run_exp/static/images/task_images/land.jpg,null,,,,,,,100,,,7,,,,,,,,,,,,,,
dig,231,645341,0.0-73.0-3.0,"""event"",""trial"",""time""
""fullscreenenter"",""1"",""1385""
","
","
","""event"",""trial"",""time""
""fullscreenenter"",""1"",""1385""
","
",,,,,,,,,,,,"[{""stimulus"":""run_exp/static/images/task_images/dig.jpg"",""time"":0.19999998807907104},{""stimulus"":""run_exp/static/images/task_images/land.jpg"",""time"":677.3000000119209},{""stimulus"":""run_exp/static/images/task_images/dig.jpg"",""time"":1347.5}]",[],7,,,,,,,,,,,,,,
harvest,232,646348,0.0-73.0-4.0,"""event"",""trial"",""time""
""fullscreenenter"",""1"",""1385""
","
","
","""event"",""trial"",""time""
""fullscreenenter"",""1"",""1385""
","
",,null,run_exp/static/images/task_images/gems/100.jpg,null,,,,,,,85,,,7,,,,,100,0.853002686,0.85,,,,,,,
decision,233,646511,0.0-73.0-5.0,"""event"",""trial"",""time""
""fullscreenenter"",""1"",""1385""
","
","
","""event"",""trial"",""time""
""fullscreenenter"",""1"",""1385""
","
",,161.9,run_exp/static/images/task_images/land.jpg,65,,,,,,,85,,,7,,,,,,,,292789,1,0,FALSE,,,
dig,234,649352,0.0-74.0-0.0,"""event"",""trial"",""time""
""fullscreenenter"",""1"",""1385""
","
","
","""event"",""trial"",""time""
""fullscreenenter"",""1"",""1385""
","
",,,,,,,,,,,,"[{""stimulus"":""run_exp/static/images/task_images/dig.jpg"",""time"":0.19999998807907104},{""stimulus"":""run_exp/static/images/task_images/land.jpg"",""time"":948.8999999761581},{""stimulus"":""run_exp/static/images/task_images/dig.jpg"",""time"":1894.6000000238419}]",[],7,,,,,,,,,,,,,,
harvest,235,650359,0.0-74.0-1.0,"""event"",""trial"",""time""
""fullscreenenter"",""1"",""1385""
","
","
","""event"",""trial"",""time""
""fullscreenenter"",""1"",""1385""
","
",,null,run_exp/static/images/task_images/gems/85.jpg,null,,,,,,,74,,,7,,,,,85,0.87608022,0.870588235,,,,,,,
decision,236,650660,0.0-74.0-2.0,"""event"",""trial"",""time""
""fullscreenenter"",""1"",""1385""
","
","
","""event"",""trial"",""time""
""fullscreenenter"",""1"",""1385""
","
",,299.8,run_exp/static/images/task_images/land.jpg,65,,,,,,,74,,,7,,,,,,,,296938,1,1,FALSE,,,
dig,237,653375,0.0-75.0-0.0,"""event"",""trial"",""time""
""fullscreenenter"",""1"",""1385""
","
","
","""event"",""trial"",""time""
""fullscreenenter"",""1"",""1385""
","
",,,,,,,,,,,,"[{""stimulus"":""run_exp/static/images/task_images/dig.jpg"",""time"":0.10000002384185791},{""stimulus"":""run_exp/static/images/task_images/land.jpg"",""time"":902.8000000119209},{""stimulus"":""run_exp/static/images/task_images/dig.jpg"",""time"":1815.9000000357628}]",[],7,,,,,,,,,,,,,,
harvest,238,654383,0.0-75.0-1.0,"""event"",""trial"",""time""
""fullscreenenter"",""1"",""1385""
","
","
","""event"",""trial"",""time""
""fullscreenenter"",""1"",""1385""
","
",,null,run_exp/static/images/task_images/gems/74.jpg,null,,,,,,,59,,,7,,,,,74,0.792750375,0.797297297,,,,,,,
decision,239,654666,0.0-75.0-2.0,"""event"",""trial"",""time""
""fullscreenenter"",""1"",""1385""
","
","
","""event"",""trial"",""time""
""fullscreenenter"",""1"",""1385""
","
",,282.5,run_exp/static/images/task_images/land.jpg,65,,,,,,,59,,,7,,,,,,,,300944,1,2,TRUE,,,
end_of_block_continue,240,663506,0.0-76.0-0.0,"""event"",""trial"",""time""
""fullscreenenter"",""1"",""1385""
","
","
","""event"",""trial"",""time""
""fullscreenenter"",""1"",""1385""
","
",,null,run_exp/static/audio/clip_32_block_end.m4a,,,,,,,null,,,,,,,,,,,,,,,,,,
alien_welcome,241,668509,0.0-77.0-0.0,"""event"",""trial"",""time""
""fullscreenenter"",""1"",""1385""
","
","
","""event"",""trial"",""time""
""fullscreenenter"",""1"",""1385""
","
",,null,run_exp/static/images/task_images/aliens/old_aliens/planet/alien_planet-50.jpg,null,,,,,,,,,,,,,50,"22,25,68,6,29,23,53,50,55,11,8,47,71,78,74,69,2,48,70,51,72,75,20,3,21,13,56,34,79,35,76",,,,,,,,,,
land,242,669018,0.0-77.0-1.0,"""event"",""trial"",""time""
""fullscreenenter"",""1"",""1385""
","
","
","""event"",""trial"",""time""
""fullscreenenter"",""1"",""1385""
","
",,null,run_exp/static/images/task_images/land.jpg,null,,,,,,,93,,,8,,,,,,,,,,,,,,
dig,243,671026,0.0-77.0-2.0,"""event"",""trial"",""time""
""fullscreenenter"",""1"",""1385""
","
","
","""event"",""trial"",""time""
""fullscreenenter"",""1"",""1385""
","
",,,,,,,,,,,,"[{""stimulus"":""run_exp/static/images/task_images/dig.jpg"",""time"":0.09999996423721313},{""stimulus"":""run_exp/static/images/task_images/land.jpg"",""time"":680.8000000119209},{""stimulus"":""run_exp/static/images/task_images/dig.jpg"",""time"":1336.5}]",[],8,,,,,,,,,,,,,,
harvest,244,672033,0.0-77.0-3.0,"""event"",""trial"",""time""
""fullscreenenter"",""1"",""1385""
","
","
","""event"",""trial"",""time""
""fullscreenenter"",""1"",""1385""
","
",,null,run_exp/static/images/task_images/gems/93.jpg,null,,,,,,,25,,,8,,,,,93,0.264822309,0.268817204,,,,,,,
decision,245,672651,0.0-77.0-4.0,"""event"",""trial"",""time""
""fullscreenenter"",""1"",""1385""
","
","
","""event"",""trial"",""time""
""fullscreenenter"",""1"",""1385""
","
",,616.9,run_exp/static/images/task_images/land.jpg,65,,,,,,,25,,,8,,,,,,,,9144,2,0,FALSE,,,
dig,246,675049,0.0-78.0-0.0,"""event"",""trial"",""time""
""fullscreenenter"",""1"",""1385""
","
","
","""event"",""trial"",""time""
""fullscreenenter"",""1"",""1385""
","
",,,,,,,,,,,,"[{""stimulus"":""run_exp/static/images/task_images/dig.jpg"",""time"":0.10000002384185791},{""stimulus"":""run_exp/static/images/task_images/land.jpg"",""time"":810.1999999880791},{""stimulus"":""run_exp/static/images/task_images/dig.jpg"",""time"":1593.1000000238419}]",[],8,,,,,,,,,,,,,,
harvest,247,676060,0.0-78.0-1.0,"""event"",""trial"",""time""
""fullscreenenter"",""1"",""1385""
","
","
","""event"",""trial"",""time""
""fullscreenenter"",""1"",""1385""
","
",,null,run_exp/static/images/task_images/gems/25.jpg,null,,,,,,,7,,,8,,,,,25,0.274758115,0.28,,,,,,,
decision,248,676646,0.0-78.0-2.0,"""event"",""trial"",""time""
""fullscreenenter"",""1"",""1385""
","
","
","""event"",""trial"",""time""
""fullscreenenter"",""1"",""1385""
","
",,585.9,run_exp/static/images/task_images/land.jpg,65,,,,,,,7,,,8,,,,,,,,13140,2,1,FALSE,,,
dig,249,679074,0.0-79.0-0.0,"""event"",""trial"",""time""
""fullscreenenter"",""1"",""1385""
","
","
","""event"",""trial"",""time""
""fullscreenenter"",""1"",""1385""
","
",,,,,,,,,,,,"[{""stimulus"":""run_exp/static/images/task_images/dig.jpg"",""time"":0.09999996423721313},{""stimulus"":""run_exp/static/images/task_images/land.jpg"",""time"":817.3999999761581},{""stimulus"":""run_exp/static/images/task_images/dig.jpg"",""time"":1618.3999999761581}]",[],8,,,,,,,,,,,,,,
harvest,250,680080,0.0-79.0-1.0,"""event"",""trial"",""time""
""fullscreenenter"",""1"",""1385""
","
","
","""event"",""trial"",""time""
""fullscreenenter"",""1"",""1385""
","
",,null,run_exp/static/images/task_images/gems/7.jpg,null,,,,,,,1,,,8,,,,,7,0.147424115,0.142857143,,,,,,,
decision,251,680591,0.0-79.0-2.0,"""event"",""trial"",""time""
""fullscreenenter"",""1"",""1385""
","
","
","""event"",""trial"",""time""
""fullscreenenter"",""1"",""1385""
","
",,509.7,run_exp/static/images/task_images/land.jpg,65,,,,,,,1,,,8,,,,,,,,17084,2,2,FALSE,,,
dig,252,683090,0.0-80.0-0.0,"""event"",""trial"",""time""
""fullscreenenter"",""1"",""1385""
","
","
","""event"",""trial"",""time""
""fullscreenenter"",""1"",""1385""
","
",,,,,,,,,,,,"[{""stimulus"":""run_exp/static/images/task_images/dig.jpg"",""time"":0.10000002384185791},{""stimulus"":""run_exp/static/images/task_images/land.jpg"",""time"":833.3999999761581},{""stimulus"":""run_exp/static/images/task_images/dig.jpg"",""time"":1665.8999999761581}]",[],8,,,,,,,,,,,,,,
harvest,253,684105,0.0-80.0-1.0,"""event"",""trial"",""time""
""fullscreenenter"",""1"",""1385""
","
","
","""event"",""trial"",""time""
""fullscreenenter"",""1"",""1385""
","
",,null,run_exp/static/images/task_images/gems/1.jpg,null,,,,,,,0,,,8,,,,,1,0.227474694,0,,,,,,,
decision,254,684149,0.0-80.0-2.0,"""event"",""trial"",""time""
""fullscreenenter"",""1"",""1385""
","
","
