trial_type,trial_index,time_elapsed,internal_node_id,interactions,blur_events,focus_events,fullscreenenter_events,fullscreenexit_events,success,rt,stimulus,key_press,prompt,subject_id,participant_id,age,gender,button_pressed,next_reward,animation_sequence,responses,planet,curr_prac_trial,n_prac_rounds,alien,aliens,reward_received,decay_rate_actual,decay_rate_exp,time_in_block,block_num,prt,last_trial_on_planet,button_html,bonus,num_failures
pavlovia,0,8,0.0-0.0,"""event"",""trial"",""time""
""focus"",""1"",""210""
""fullscreenenter"",""1"",""1240""
","
","""event"",""trial"",""time""
""focus"",""1"",""210""
","""event"",""trial"",""time""
""fullscreenenter"",""1"",""1240""
","
",,,,,,,,,,,,,,,,,,,,,,,,,,,,
fullscreen,1,2179,0.0-1.0,"""event"",""trial"",""time""
""focus"",""1"",""210""
""fullscreenenter"",""1"",""1240""
","
","""event"",""trial"",""time""
""focus"",""1"",""210""
","""event"",""trial"",""time""
""fullscreenenter"",""1"",""1240""
","
",TRUE,,,,,,,,,,,,,,,,,,,,,,,,,,,
instruc_welcome,2,11925,0.0-2.0,"""event"",""trial"",""time""
""focus"",""1"",""210""
""fullscreenenter"",""1"",""1240""
","
","""event"",""trial"",""time""
""focus"",""1"",""210""
","""event"",""trial"",""time""
""fullscreenenter"",""1"",""1240""
","
",,null,run_exp/static/audio/clip_1_welcome.m4a,null,"<p>Howdy! In this experiment, you’ll be an explorer traveling through space to collect space treasure.</p><p>Your mission is to collect as much treasure as possible.</p><br><br><p><img src='run_exp/static/images/task_images/opening_img-01.jpg' height='300' width='auto'></p>",7913,1059,23.5,Male,,,,,,,,,,,,,,,,,,,
audio-keyboard-response,3,28506,0.0-3.0,"""event"",""trial"",""time""
""focus"",""1"",""210""
""fullscreenenter"",""1"",""1240""
","
","""event"",""trial"",""time""
""focus"",""1"",""210""
","""event"",""trial"",""time""
""fullscreenenter"",""1"",""1240""
","
",,null,run_exp/static/audio/clip_2_move.m4a,null,,,,,,,,,,,,,,,,,,,,,,,,
welcome_dec,4,48860,0.0-4.0,"""event"",""trial"",""time""
""focus"",""1"",""210""
""fullscreenenter"",""1"",""1240""
","
","""event"",""trial"",""time""
""focus"",""1"",""210""
","""event"",""trial"",""time""
""fullscreenenter"",""1"",""1240""
","
",,20352,"<p>Howdy! In this experiment, you’ll be an explorer traveling through space to collect space treasure.</p><p>Your mission is to collect as much treasure as possible.</p><br><br><p><img src='run_exp/static/images/task_images/opening_img-01.jpg' height='300' width='auto'></p>",,,,,,,1,,,,,,,,,,,,,,,,,,
html-keyboard-response,5,50523,0.0-5.0,"""event"",""trial"",""time""
""focus"",""1"",""210""
""fullscreenenter"",""1"",""1240""
","
","""event"",""trial"",""time""
""focus"",""1"",""210""
","""event"",""trial"",""time""
""fullscreenenter"",""1"",""1240""
","
",,1654,"<p>Howdy! In this experiment, you’ll be an explorer traveling through space to collect space treasure.</p><p>Your mission is to collect as much treasure as possible.</p><br><br><p><img src='run_exp/static/images/task_images/opening_img-01.jpg' height='300' width='auto'></p><button class=""jspsych-html-btn-unchosen""><img src=""run_exp/static/images/task_images/planet-01.jpg"" height=""50""></button><button class=""jspsych-html-btn-chosen""><img src=""run_exp/static/images/task_images/planet-02.jpg"" height=""50""></button><p><b>[press the space bar to lock in your answer]<b><br></p>",32,,,,,,,,,,,,,,,,,,,,,,,,
instruc_goal,6,60585,0.0-6.0-0.0,"""event"",""trial"",""time""
""focus"",""1"",""210""
""fullscreenenter"",""1"",""1240""
","
","""event"",""trial"",""time""
""focus"",""1"",""210""
","""event"",""trial"",""time""
""fullscreenenter"",""1"",""1240""
","
",,null,run_exp/static/audio/clip_3_goal.m4a,null,"<p> As a space explorer, you’ll visit different planets to dig for space treasure, these pink gems.</p> <p> The more treasure you dig up, the more bonus money you’ll win! </p><br><br><p><img src='run_exp/static/images/task_images/pink_gem.jpg' height='300' width='auto'></p>",,,,,,,,,,,,,,,,,,,,,,,
instruc_goal,7,66125,0.0-6.0-1.0,"""event"",""trial"",""time""
""focus"",""1"",""210""
""fullscreenenter"",""1"",""1240""
","
","""event"",""trial"",""time""
""focus"",""1"",""210""
","""event"",""trial"",""time""
""fullscreenenter"",""1"",""1240""
","
",,5539,"<p> As a space explorer, you’ll visit different planets to dig for space treasure, these pink gems.</p> <p> The more treasure you dig up, the more bonus money you’ll win! </p><br><br><p><img src='run_exp/static/images/task_images/pink_gem.jpg' height='300' width='auto'></p>",,,,,,,1,,,,,,,,,,,,,,,,,,
html-keyboard-response,8,66892,0.0-6.0-2.0,"""event"",""trial"",""time""
""focus"",""1"",""210""
""fullscreenenter"",""1"",""1240""
","
","""event"",""trial"",""time""
""focus"",""1"",""210""
","""event"",""trial"",""time""
""fullscreenenter"",""1"",""1240""
","
",,765,"<p> As a space explorer, you’ll visit different planets to dig for space treasure, these pink gems.</p> <p> The more treasure you dig up, the more bonus money you’ll win! </p><br><br><p><img src='run_exp/static/images/task_images/pink_gem.jpg' height='300' width='auto'></p><button class=""jspsych-html-btn-unchosen""><img src=""run_exp/static/images/task_images/planet-01.jpg"" height=""50""></button><button class=""jspsych-html-btn-chosen""><img src=""run_exp/static/images/task_images/planet-02.jpg"" height=""50""></button><p><b>[press the space bar to lock in your answer]<b><br></p>",32,,,,,,,,,,,,,,,,,,,,,,,,
instruc_dig,9,82909,0.0-7.0-0.0,"""event"",""trial"",""time""
""focus"",""1"",""210""
""fullscreenenter"",""1"",""1240""
","
","""event"",""trial"",""time""
""focus"",""1"",""210""
","""event"",""trial"",""time""
""fullscreenenter"",""1"",""1240""
","
",,null,run_exp/static/audio/clip_4_dig.m4a,null,,,,,,,100,,,,,,,,,,,,,,,,,
instruc_dig_try,10,83382,0.0-7.0-1.0,"""event"",""trial"",""time""
""focus"",""1"",""210""
""fullscreenenter"",""1"",""1240""
","
","""event"",""trial"",""time""
""focus"",""1"",""210""
","""event"",""trial"",""time""
""fullscreenenter"",""1"",""1240""
","
",,472,"<p> When you’ve arrived at a new planet, you will dig once. </p> <p>Then, you get to decide if you want to stay on the planet and dig again or travel to a new planet and dig there.</p> <p> To stay and dig, press the letter <strong>‘A’</strong> on your keyboard. Try pressing it now! </p><p><img src='run_exp/static/images/task_images/land.jpg'  height='700' width='auto'></p>",65,"<p> When you’ve arrived at a new planet, you will dig once. </p> <p>Then, you get to decide if you want to stay on the planet and dig again or travel to a new planet and dig there.</p> <p> To stay and dig, press the letter <strong>‘A’</strong> on your keyboard. Try pressing it now! </p><p><img src='run_exp/static/images/task_images/land.jpg'  height='700' width='auto'></p>",,,,,,100,,,,,,,,,,,,,,,,,
dig_prac,11,85670,0.0-7.0-2.0,"""event"",""trial"",""time""
""focus"",""1"",""210""
""fullscreenenter"",""1"",""1240""
","
","""event"",""trial"",""time""
""focus"",""1"",""210""
","""event"",""trial"",""time""
""fullscreenenter"",""1"",""1240""
","
",,,,,,,,,,,,"[{""stimulus"":""run_exp/static/images/task_images/dig.jpg"",""time"":0},{""stimulus"":""run_exp/static/images/task_images/land.jpg"",""time"":668.9999999999854},{""stimulus"":""run_exp/static/images/task_images/dig.jpg"",""time"":1336.9999999999854}]",[],,,,,,,,,,,,,,,
instruc_travel,12,121724,0.0-7.0-3.0,"""event"",""trial"",""time""
""focus"",""1"",""210""
""fullscreenenter"",""1"",""1240""
","
","""event"",""trial"",""time""
""focus"",""1"",""210""
","""event"",""trial"",""time""
""fullscreenenter"",""1"",""1240""
","
",,null,run_exp/static/audio/clip_5_travel.m4a,null,"<p>Every time you dig up gems, there are less gems on the planet, so the more you dig on a planet the fewer gems you’ll get with each dig.</p><p>When gems are running low, you may want to travel to a new planet. </p> <p>  Planets are very far apart in this galaxy, so it will take some time to travel between them. </p> <br><p>There are lots and lots of planets for you to visit, so you won’t be able to return to any planets you’ve seen before. </p><br><p>To leave this planet and travel to a new one, press the letter <strong>‘L’</strong> on your keyboard. Try pressing it now! </p><p><img src='run_exp/static/images/task_images/rocket-01.jpg'  height='600' width='auto'></p>",,,,,,,,,,,,,,,,,,,,,,,
instruc_travel_try,13,125990,0.0-7.0-4.0,"""event"",""trial"",""time""
""focus"",""1"",""210""
""fullscreenenter"",""1"",""1240""
","
","""event"",""trial"",""time""
""focus"",""1"",""210""
","""event"",""trial"",""time""
""fullscreenenter"",""1"",""1240""
","
",,4264,"<p>Every time you dig up gems, there are less gems on the planet, so the more you dig on a planet the fewer gems you’ll get with each dig.</p><p>When gems are running low, you may want to travel to a new planet. </p> <p>  Planets are very far apart in this galaxy, so it will take some time to travel between them. </p> <br><p>There are lots and lots of planets for you to visit, so you won’t be able to return to any planets you’ve seen before. </p><br><p>To leave this planet and travel to a new one, press the letter <strong>‘L’</strong> on your keyboard. Try pressing it now! </p><p><img src='run_exp/static/images/task_images/rocket-01.jpg'  height='600' width='auto'></p>",76,"<p>Every time you dig up gems, there are less gems on the planet, so the more you dig on a planet the fewer gems you’ll get with each dig.</p><p>When gems are running low, you may want to travel to a new planet. </p> <p>  Planets are very far apart in this galaxy, so it will take some time to travel between them. </p> <br><p>There are lots and lots of planets for you to visit, so you won’t be able to return to any planets you’ve seen before. </p><br><p>To leave this planet and travel to a new one, press the letter <strong>‘L’</strong> on your keyboard. Try pressing it now! </p><p><img src='run_exp/static/images/task_images/rocket-01.jpg'  height='600' width='auto'></p>",,,,,,,,,,,,,,,,,,,,,,,
travel_prac,14,136013,0.0-7.0-5.0,"""event"",""trial"",""time""
""focus"",""1"",""210""
""fullscreenenter"",""1"",""1240""
","
","""event"",""trial"",""time""
""focus"",""1"",""210""
","""event"",""trial"",""time""
""fullscreenenter"",""1"",""1240""
","
",,,,,,,,,,,,"[{""stimulus"":""run_exp/static/images/task_images/rocket-01.jpg"",""time"":0},{""stimulus"":""run_exp/static/images/task_images/rocket-02.jpg"",""time"":1112},{""stimulus"":""run_exp/static/images/task_images/rocket-03.jpg"",""time"":2224},{""stimulus"":""run_exp/static/images/task_images/rocket-04.jpg"",""time"":3335},{""stimulus"":""run_exp/static/images/task_images/rocket-05.jpg"",""time"":4447},{""stimulus"":""run_exp/static/images/task_images/rocket-06.jpg"",""time"":5558},{""stimulus"":""run_exp/static/images/task_images/rocket-07.jpg"",""time"":6670},{""stimulus"":""run_exp/static/images/task_images/rocket-08.jpg"",""time"":7782},{""stimulus"":""run_exp/static/images/task_images/rocket-09.jpg"",""time"":8893}]",[],0,,,,,,,,,,,,,,
instruc_alien_greet,15,163226,0.0-7.0-6.0,"""event"",""trial"",""time""
""focus"",""1"",""210""
""fullscreenenter"",""1"",""1240""
","
","""event"",""trial"",""time""
""focus"",""1"",""210""
","""event"",""trial"",""time""
""fullscreenenter"",""1"",""1240""
","
",,null,run_exp/static/audio/clip_6_alien.m4a,null,"<p>When you arrive at a new planet, the alien who owns the treasure mine on that planet will greet you!</p><p>The better an alien takes care of their mine the easier it is to dig for gems. Some aliens take better care of their mine than others. So, you won’t get exactly the same amount of gems on each planet.</p><p>What the alien looks like does not tell you anything about how many gems there are on the planet.</p><br><p><img src=""run_exp/static/images/task_images/aliens/instructions_aliens/planet/alien_planet-1.jpg""  height=""600"" width=""auto""></p>",,,,,,,,,,,,,,,,,,,,,,,
instruc_alien_greet,16,167718,0.0-7.0-7.0,"""event"",""trial"",""time""
""focus"",""1"",""210""
""fullscreenenter"",""1"",""1240""
","
","""event"",""trial"",""time""
""focus"",""1"",""210""
","""event"",""trial"",""time""
""fullscreenenter"",""1"",""1240""
","
",,4491,"<p>When you arrive at a new planet, the alien who owns the treasure mine on that planet will greet you!</p><p>The better an alien takes care of their mine the easier it is to dig for gems. Some aliens take better care of their mine than others. So, you won’t get exactly the same amount of gems on each planet.</p><p>What the alien looks like does not tell you anything about how many gems there are on the planet.</p><br><p><img src=""run_exp/static/images/task_images/aliens/instructions_aliens/planet/alien_planet-1.jpg""  height=""600"" width=""auto""></p>",,,,,,,1,,,,,,,,,,,,,,,,,,
html-keyboard-response,17,168542,0.0-7.0-8.0,"""event"",""trial"",""time""
""focus"",""1"",""210""
""fullscreenenter"",""1"",""1240""
","
","""event"",""trial"",""time""
""focus"",""1"",""210""
","""event"",""trial"",""time""
""fullscreenenter"",""1"",""1240""
","
",,823,"<p>When you arrive at a new planet, the alien who owns the treasure mine on that planet will greet you!</p><p>The better an alien takes care of their mine the easier it is to dig for gems. Some aliens take better care of their mine than others. So, you won’t get exactly the same amount of gems on each planet.</p><p>What the alien looks like does not tell you anything about how many gems there are on the planet.</p><br><p><img src=""run_exp/static/images/task_images/aliens/instructions_aliens/planet/alien_planet-1.jpg""  height=""600"" width=""auto""></p><button class=""jspsych-html-btn-unchosen""><img src=""run_exp/static/images/task_images/planet-01.jpg"" height=""50""></button><button class=""jspsych-html-btn-chosen""><img src=""run_exp/static/images/task_images/planet-02.jpg"" height=""50""></button><p><b>[press the space bar to lock in your answer]<b><br></p>",32,,,,,,,,,,,,,,,,,,,,,,,,
time_out,18,179625,0.0-8.0-0.0,"""event"",""trial"",""time""
""focus"",""1"",""210""
""fullscreenenter"",""1"",""1240""
","
","""event"",""trial"",""time""
""focus"",""1"",""210""
","""event"",""trial"",""time""
""fullscreenenter"",""1"",""1240""
","
",,null,run_exp/static/audio/clip_7_timeout.m4a,null,"<p>If you don't make your choice fast enough, you’ll have to wait a few seconds before you can make another one.</p><p>You can’t dig for more gems or travel to new planets. You just have to sit and wait.</p><br><p><img src='run_exp/static/images/task_images/time_out.jpg'  height='600' width='auto'></p>",,,,,,,,,,,,,,,,,,,,,,,
time_out,19,181255,0.0-8.0-1.0,"""event"",""trial"",""time""
""focus"",""1"",""210""
""fullscreenenter"",""1"",""1240""
","
","""event"",""trial"",""time""
""focus"",""1"",""210""
","""event"",""trial"",""time""
""fullscreenenter"",""1"",""1240""
","
",,1625,"<p>If you don't make your choice fast enough, you’ll have to wait a few seconds before you can make another one.</p><p>You can’t dig for more gems or travel to new planets. You just have to sit and wait.</p><br><p><img src='run_exp/static/images/task_images/time_out.jpg'  height='600' width='auto'></p>",,,,,,,1,,,,,,,,,,,,,,,,,,
html-keyboard-response,20,182286,0.0-8.0-2.0,"""event"",""trial"",""time""
""focus"",""1"",""210""
""fullscreenenter"",""1"",""1240""
","
","""event"",""trial"",""time""
""focus"",""1"",""210""
","""event"",""trial"",""time""
""fullscreenenter"",""1"",""1240""
","
",,1030,"<p>If you don't make your choice fast enough, you’ll have to wait a few seconds before you can make another one.</p><p>You can’t dig for more gems or travel to new planets. You just have to sit and wait.</p><br><p><img src='run_exp/static/images/task_images/time_out.jpg'  height='600' width='auto'></p><button class=""jspsych-html-btn-unchosen""><img src=""run_exp/static/images/task_images/planet-01.jpg"" height=""50""></button><button class=""jspsych-html-btn-chosen""><img src=""run_exp/static/images/task_images/planet-02.jpg"" height=""50""></button><p><b>[press the space bar to lock in your answer]<b><br></p>",32,,,,,,,,,,,,,,,,,,,,,,,,
instruc_break,21,197980,0.0-9.0-0.0,"""event"",""trial"",""time""
""focus"",""1"",""210""
""fullscreenenter"",""1"",""1240""
","
","""event"",""trial"",""time""
""focus"",""1"",""210""
","""event"",""trial"",""time""
""fullscreenenter"",""1"",""1240""
","
",,null,run_exp/static/audio/clip_8_break.m4a,null,"<p> After digging and traveling for a while, you’ll be able to take a break at home base. </p><p>The game will last 20 minutes no matter what.</p><p>You will visit home base every 5 minutes, so, you will visit home base three times during the game.</p><br><p><img src='run_exp/static/images/task_images/home_base.jpg' height='600' width='auto'></p>",,,,,,,,,,,,,,,,,,,,,,,
instruc_break,22,206327,0.0-9.0-1.0,"""event"",""trial"",""time""
""focus"",""1"",""210""
""fullscreenenter"",""1"",""1240""
","
","""event"",""trial"",""time""
""focus"",""1"",""210""
","""event"",""trial"",""time""
""fullscreenenter"",""1"",""1240""
","
",,8346,"<p> After digging and traveling for a while, you’ll be able to take a break at home base. </p><p>The game will last 20 minutes no matter what.</p><p>You will visit home base every 5 minutes, so, you will visit home base three times during the game.</p><br><p><img src='run_exp/static/images/task_images/home_base.jpg' height='600' width='auto'></p>",,,,,,,1,,,,,,,,,,,,,,,,,,
html-keyboard-response,23,206910,0.0-9.0-2.0,"""event"",""trial"",""time""
""focus"",""1"",""210""
""fullscreenenter"",""1"",""1240""
","
","""event"",""trial"",""time""
""focus"",""1"",""210""
","""event"",""trial"",""time""
""fullscreenenter"",""1"",""1240""
","
",,582,"<p> After digging and traveling for a while, you’ll be able to take a break at home base. </p><p>The game will last 20 minutes no matter what.</p><p>You will visit home base every 5 minutes, so, you will visit home base three times during the game.</p><br><p><img src='run_exp/static/images/task_images/home_base.jpg' height='600' width='auto'></p><button class=""jspsych-html-btn-unchosen""><img src=""run_exp/static/images/task_images/planet-01.jpg"" height=""50""></button><button class=""jspsych-html-btn-chosen""><img src=""run_exp/static/images/task_images/planet-02.jpg"" height=""50""></button><p><b>[press the space bar to lock in your answer]<b><br></p>",32,,,,,,,,,,,,,,,,,,,,,,,,
instruc_prac_game,24,217035,0.0-10.0-0.0,"""event"",""trial"",""time""
""focus"",""1"",""210""
""fullscreenenter"",""1"",""1240""
","
","""event"",""trial"",""time""
""focus"",""1"",""210""
","""event"",""trial"",""time""
""fullscreenenter"",""1"",""1240""
","
",,null,run_exp/static/audio/clip_9_practice.m4a,null,"<p> Are you ready to play a practice game? </p> <p>In this practice game, you'll be digging up barrels of gems. But, in the real game, you'll be digging up the gems themselves. </p>",,,,,,,,,,,,,,,,,,,,,,,
html-button-response,25,233147,0.0-10.0-1.0,"""event"",""trial"",""time""
""focus"",""1"",""210""
""fullscreenenter"",""1"",""1240""
","
","""event"",""trial"",""time""
""focus"",""1"",""210""
","""event"",""trial"",""time""
""fullscreenenter"",""1"",""1240""
","
",,16111,"<p> Are you ready to play a practice game? </p> <p>In this practice game, you'll be digging up barrels of gems. But, in the real game, you'll be digging up the gems themselves. </p>",,,,,,,0,,,,,,,,,,,,,,,,,,
alien_welcome_prac,26,238152,0.0-11.0-0.0,"""event"",""trial"",""time""
""focus"",""1"",""210""
""fullscreenenter"",""1"",""1240""
","
","""event"",""trial"",""time""
""focus"",""1"",""210""
","""event"",""trial"",""time""
""fullscreenenter"",""1"",""1240""
","
",,null,run_exp/static/images/task_images/aliens/practice_aliens/planet/alien_planet-5.jpg,null,,,,,,,,,,,,,,,,,,,,,,,,
land_prac,27,238663,0.0-11.0-1.0,"""event"",""trial"",""time""
""focus"",""1"",""210""
""fullscreenenter"",""1"",""1240""
","
","""event"",""trial"",""time""
""focus"",""1"",""210""
","""event"",""trial"",""time""
""fullscreenenter"",""1"",""1240""
","
",,null,run_exp/static/images/task_images/land.jpg,null,,,,,,,97,,,0,,,,,,,,,,,,,,
dig_prac,28,240694,0.0-11.0-2.0,"""event"",""trial"",""time""
""focus"",""1"",""210""
""fullscreenenter"",""1"",""1240""
","
","""event"",""trial"",""time""
""focus"",""1"",""210""
","""event"",""trial"",""time""
""fullscreenenter"",""1"",""1240""
","
",,,,,,,,,,,,"[{""stimulus"":""run_exp/static/images/task_images/dig.jpg"",""time"":0},{""stimulus"":""run_exp/static/images/task_images/land.jpg"",""time"":669},{""stimulus"":""run_exp/static/images/task_images/dig.jpg"",""time"":1337}]",[],,,,,,,,,,,,,,,
harvest_prac,29,241696,0.0-11.0-3.0,"""event"",""trial"",""time""
""focus"",""1"",""210""
""fullscreenenter"",""1"",""1240""
","
","""event"",""trial"",""time""
""focus"",""1"",""210""
","""event"",""trial"",""time""
""fullscreenenter"",""1"",""1240""
","
",,null,run_exp/static/images/task_images/barrel_text.jpg,null,,,,,,,,,,,,,,,,,,,,,,,,
decision_prac,30,244700,0.0-11.0-4.0,"""event"",""trial"",""time""
""focus"",""1"",""210""
""fullscreenenter"",""1"",""1240""
","
","""event"",""trial"",""time""
""focus"",""1"",""210""
","""event"",""trial"",""time""
""fullscreenenter"",""1"",""1240""
","
",,null,run_exp/static/images/task_images/land.jpg,null,,,,,,,,,,,1,,,,,,,,,,,,,
time_out,31,246705,0.0-12.0-0.0,"""event"",""trial"",""time""
""focus"",""1"",""210""
""fullscreenenter"",""1"",""1240""
","
","""event"",""trial"",""time""
""focus"",""1"",""210""
","""event"",""trial"",""time""
""fullscreenenter"",""1"",""1240""
","
",,null,run_exp/static/images/task_images/time_out.jpg,null,,,,,,,,,,,,,,,,,,,,,,,,
decision_prac,32,247406,0.0-12.0-1.0,"""event"",""trial"",""time""
""focus"",""1"",""210""
""fullscreenenter"",""1"",""1240""
","
","""event"",""trial"",""time""
""focus"",""1"",""210""
","""event"",""trial"",""time""
""fullscreenenter"",""1"",""1240""
","
",,700,run_exp/static/images/task_images/land.jpg,76,,,,,,,,,,,2,,,,,,,,,,,,,
travel,33,256728,0.0-13.0-0.0,"""event"",""trial"",""time""
""focus"",""1"",""210""
""fullscreenenter"",""1"",""1240""
","
","""event"",""trial"",""time""
""focus"",""1"",""210""
","""event"",""trial"",""time""
""fullscreenenter"",""1"",""1240""
","
",,,,,,,,,,,,"[{""stimulus"":""run_exp/static/images/task_images/rocket-01.jpg"",""time"":0},{""stimulus"":""run_exp/static/images/task_images/rocket-02.jpg"",""time"":1034.999999999971},{""stimulus"":""run_exp/static/images/task_images/rocket-03.jpg"",""time"":2067.999999999971},{""stimulus"":""run_exp/static/images/task_images/rocket-04.jpg"",""time"":3102.999999999971},{""stimulus"":""run_exp/static/images/task_images/rocket-05.jpg"",""time"":4134.999999999971},{""stimulus"":""run_exp/static/images/task_images/rocket-06.jpg"",""time"":5167.999999999971},{""stimulus"":""run_exp/static/images/task_images/rocket-07.jpg"",""time"":6202},{""stimulus"":""run_exp/static/images/task_images/rocket-08.jpg"",""time"":7235},{""stimulus"":""run_exp/static/images/task_images/rocket-09.jpg"",""time"":8269}]",[],0,,,,,,,,,,,,,,
alien_welcome_prac,34,261730,0.0-13.0-1.0,"""event"",""trial"",""time""
""focus"",""1"",""210""
""fullscreenenter"",""1"",""1240""
","
","""event"",""trial"",""time""
""focus"",""1"",""210""
","""event"",""trial"",""time""
""fullscreenenter"",""1"",""1240""
","
",,null,run_exp/static/images/task_images/aliens/practice_aliens/planet/alien_planet-4.jpg,null,,,,,,,,,,,,,,,,,,,,,,,,
land_prac,35,262231,0.0-13.0-2.0,"""event"",""trial"",""time""
""focus"",""1"",""210""
""fullscreenenter"",""1"",""1240""
","
","""event"",""trial"",""time""
""focus"",""1"",""210""
","""event"",""trial"",""time""
""fullscreenenter"",""1"",""1240""
","
",,null,run_exp/static/images/task_images/land.jpg,null,,,,,,,98,,,0,,,,,,,,,,,,,,
dig_prac,36,264260,0.0-13.0-3.0,"""event"",""trial"",""time""
""focus"",""1"",""210""
""fullscreenenter"",""1"",""1240""
","
","""event"",""trial"",""time""
""focus"",""1"",""210""
","""event"",""trial"",""time""
""fullscreenenter"",""1"",""1240""
","
",,,,,,,,,,,,"[{""stimulus"":""run_exp/static/images/task_images/dig.jpg"",""time"":0},{""stimulus"":""run_exp/static/images/task_images/land.jpg"",""time"":668},{""stimulus"":""run_exp/static/images/task_images/dig.jpg"",""time"":1336}]",[],,,,,,,,,,,,,,,
harvest_prac,37,265261,0.0-13.0-4.0,"""event"",""trial"",""time""
""focus"",""1"",""210""
""fullscreenenter"",""1"",""1240""
","
","""event"",""trial"",""time""
""focus"",""1"",""210""
","""event"",""trial"",""time""
""fullscreenenter"",""1"",""1240""
","
",,null,run_exp/static/images/task_images/barrel_text.jpg,null,,,,,,,,,,,,,,,,,,,,,,,,
decision_prac,38,266062,0.0-13.0-5.0,"""event"",""trial"",""time""
""focus"",""1"",""210""
""fullscreenenter"",""1"",""1240""
","
","""event"",""trial"",""time""
""focus"",""1"",""210""
","""event"",""trial"",""time""
""fullscreenenter"",""1"",""1240""
","
",,800,run_exp/static/images/task_images/land.jpg,65,,,,,,,,,,,3,,,,,,,,,,,,,
dig_prac,39,268085,0.0-14.0-0.0,"""event"",""trial"",""time""
""focus"",""1"",""210""
""fullscreenenter"",""1"",""1240""
","
","""event"",""trial"",""time""
""focus"",""1"",""210""
","""event"",""trial"",""time""
""fullscreenenter"",""1"",""1240""
","
",,,,,,,,,,,,"[{""stimulus"":""run_exp/static/images/task_images/dig.jpg"",""time"":0},{""stimulus"":""run_exp/static/images/task_images/land.jpg"",""time"":668.0000000000582},{""stimulus"":""run_exp/static/images/task_images/dig.jpg"",""time"":1336}]",[],,,,,,,,,,,,,,,
harvest_prac,40,269088,0.0-14.0-1.0,"""event"",""trial"",""time""
""focus"",""1"",""210""
""fullscreenenter"",""1"",""1240""
","
","""event"",""trial"",""time""
""focus"",""1"",""210""
","""event"",""trial"",""time""
""fullscreenenter"",""1"",""1240""
","
",,null,run_exp/static/images/task_images/barrel_text.jpg,null,,,,,,,,,,,,,,,,,,,,,,,,
decision_prac,41,269246,0.0-14.0-2.0,"""event"",""trial"",""time""
""focus"",""1"",""210""
""fullscreenenter"",""1"",""1240""
","
","""event"",""trial"",""time""
""focus"",""1"",""210""
","""event"",""trial"",""time""
""fullscreenenter"",""1"",""1240""
","
",,157,run_exp/static/images/task_images/land.jpg,65,,,,,,,,,,,4,,,,,,,,,,,,,
dig_prac,42,271272,0.0-15.0-0.0,"""event"",""trial"",""time""
""focus"",""1"",""210""
""fullscreenenter"",""1"",""1240""
","
","""event"",""trial"",""time""
""focus"",""1"",""210""
","""event"",""trial"",""time""
""fullscreenenter"",""1"",""1240""
","
",,,,,,,,,,,,"[{""stimulus"":""run_exp/static/images/task_images/dig.jpg"",""time"":1},{""stimulus"":""run_exp/static/images/task_images/land.jpg"",""time"":670},{""stimulus"":""run_exp/static/images/task_images/dig.jpg"",""time"":1338}]",[],,,,,,,,,,,,,,,
harvest_prac,43,272273,0.0-15.0-1.0,"""event"",""trial"",""time""
""focus"",""1"",""210""
""fullscreenenter"",""1"",""1240""
","
","""event"",""trial"",""time""
""focus"",""1"",""210""
","""event"",""trial"",""time""
""fullscreenenter"",""1"",""1240""
","
",,null,run_exp/static/images/task_images/barrel_text.jpg,null,,,,,,,,,,,,,,,,,,,,,,,,
decision_prac,44,272774,0.0-15.0-2.0,"""event"",""trial"",""time""
""focus"",""1"",""210""
""fullscreenenter"",""1"",""1240""
","
","""event"",""trial"",""time""
""focus"",""1"",""210""
","""event"",""trial"",""time""
""fullscreenenter"",""1"",""1240""
","
",,500,run_exp/static/images/task_images/land.jpg,65,,,,,,,,,,,,1,,,,,,,,,,,,
quiz_instruc,45,291693,0.0-16.0-0.0,"""event"",""trial"",""time""
""focus"",""1"",""210""
""fullscreenenter"",""1"",""1240""
","
","""event"",""trial"",""time""
""focus"",""1"",""210""
","""event"",""trial"",""time""
""fullscreenenter"",""1"",""1240""
","
",,18915,run_exp/static/audio/clip_10_quiz.m4a,,,,,,,0,,,,,,,,,,,,,,,,,,
instruc_repeat,46,334240,0.0-16.0-1.0,"""event"",""trial"",""time""
""focus"",""1"",""210""
""fullscreenenter"",""1"",""1240""
","
","""event"",""trial"",""time""
""focus"",""1"",""210""
","""event"",""trial"",""time""
""fullscreenenter"",""1"",""1240""
","
",,null,"<p> Are you ready to play a practice game? </p> <p>In this practice game, you'll be digging up barrels of gems. But, in the real game, you'll be digging up the gems themselves. </p>",null,"<p>In this game, your goal is to collect as many gems as you can. That’s how you will win bonus money. </p> <p>The entire game will last 20 minutes no matter how many gems you collect or how many planets you visit. </p><p>To stay on a planet and dig again, press the letter A on your keyboard. To leave for a new planet, press the letter L.</p><p>The more you dig on a planet, the fewer gems you’ll get with each dig which is why you might consider leaving for a new planet. </p><p>When you arrive at a new planet, you’ll be greeted by an alien. What the alien looks like does not tell you anything about how much treasure is on the planet. </p>",,,,,,,,,,,,,,,,,,,,,,,
instruc_repeat_continue,47,339603,0.0-16.0-2.0,"""event"",""trial"",""time""
""focus"",""1"",""210""
""fullscreenenter"",""1"",""1240""
","
","""event"",""trial"",""time""
""focus"",""1"",""210""
","""event"",""trial"",""time""
""fullscreenenter"",""1"",""1240""
","
",,5361,"<p> Are you ready to play a practice game? </p> <p>In this practice game, you'll be digging up barrels of gems. But, in the real game, you'll be digging up the gems themselves. </p>",,,,,,,0,,,,,,,,,,,,,,,,,,
quiz_q_1_ask,48,353906,0.0-16.0-3.0,"""event"",""trial"",""time""
""focus"",""1"",""210""
""fullscreenenter"",""1"",""1240""
","
","""event"",""trial"",""time""
""focus"",""1"",""210""
","""event"",""trial"",""time""
""fullscreenenter"",""1"",""1240""
","
",,14302,run_exp/static/audio/clip_11_q1_ask.m4a,,,,,,,2,,,,,,,,,,,,,,,,,,
quiz_q_1_fb_correct,49,357755,0.0-17.0-0.0,"""event"",""trial"",""time""
""focus"",""1"",""210""
""fullscreenenter"",""1"",""1240""
","
","""event"",""trial"",""time""
""focus"",""1"",""210""
","""event"",""trial"",""time""
""fullscreenenter"",""1"",""1240""
","
",,null,run_exp/static/audio/clip_12_q1_correct.m4a,null,<p>That’s correct. You win extra money by collecting more gems.</p>,,,,,,,,,,,,,,,,,,,,,,,
quiz_q_2_ask,50,361194,0.0-17.0-1.0,"""event"",""trial"",""time""
""focus"",""1"",""210""
""fullscreenenter"",""1"",""1240""
","
","""event"",""trial"",""time""
""focus"",""1"",""210""
","""event"",""trial"",""time""
""fullscreenenter"",""1"",""1240""
","
",,3433,run_exp/static/audio/clip_14_q2_ask.m4a,,,,,,,1,,,,,,,,,,,,,,,,,,
quiz_q_2_fb_correct,51,365196,0.0-18.0-0.0,"""event"",""trial"",""time""
""focus"",""1"",""210""
""fullscreenenter"",""1"",""1240""
","
","""event"",""trial"",""time""
""focus"",""1"",""210""
","""event"",""trial"",""time""
""fullscreenenter"",""1"",""1240""
","
",,null,run_exp/static/audio/clip_15_q2_correct.m4a,null,<p>That’s correct. The experiment is 20 minutes no matter what.</p>,,,,,,,,,,,,,,,,,,,,,,,
quiz_q_3_ask,52,400983,0.0-18.0-1.0,"""event"",""trial"",""time""
""focus"",""1"",""210""
""fullscreenenter"",""1"",""1240""
","
","""event"",""trial"",""time""
""focus"",""1"",""210""
","""event"",""trial"",""time""
""fullscreenenter"",""1"",""1240""
","
",,35785,run_exp/static/audio/clip_17_q3_ask.m4a,,,,,,,1,,,,,,,,,,,,,,,,,,
quiz_q_3_fb_correct,53,404963,0.0-19.0-0.0,"""event"",""trial"",""time""
""focus"",""1"",""210""
""fullscreenenter"",""1"",""1240""
","
","""event"",""trial"",""time""
""focus"",""1"",""210""
","""event"",""trial"",""time""
""fullscreenenter"",""1"",""1240""
","
",,null,run_exp/static/audio/clip_18_q3_correct.m4a,null,<p> That’s correct. You press the letter L to travel to a new planet.</p>,,,,,,,,,,,,,,,,,,,,,,,
quiz_q_4_ask,54,407288,0.0-19.0-1.0,"""event"",""trial"",""time""
""focus"",""1"",""210""
""fullscreenenter"",""1"",""1240""
","
","""event"",""trial"",""time""
""focus"",""1"",""210""
","""event"",""trial"",""time""
""fullscreenenter"",""1"",""1240""
","
",,2320,run_exp/static/audio/clip_20_q4_ask.m4a,,,,,,,1,,,,,,,,,,,,,,,,,,
quiz_q_4_fb_incorrect,55,413122,0.0-20.0-0.0,"""event"",""trial"",""time""
""focus"",""1"",""210""
""fullscreenenter"",""1"",""1240""
","
","""event"",""trial"",""time""
""focus"",""1"",""210""
","""event"",""trial"",""time""
""fullscreenenter"",""1"",""1240""
","
",,null,run_exp/static/audio/clip_22_q4_incorrect.m4a,null,<p>That’s incorrect.  The more you dig on a planet the fewer gems you’ll get with each dig.</p>,,,,,,,,,,,,,,,,,,,,,,,
quiz_q_5_ask,56,423854,0.0-20.0-1.0,"""event"",""trial"",""time""
""focus"",""1"",""210""
""fullscreenenter"",""1"",""1240""
","
","""event"",""trial"",""time""
""focus"",""1"",""210""
","""event"",""trial"",""time""
""fullscreenenter"",""1"",""1240""
","
",,10732,run_exp/static/audio/clip_23_q5_ask.m4a,,,,,,,0,,,,,,,,,,,,,,,,,,
quiz_q_5_fb_incorrect,57,429568,0.0-21.0-0.0,"""event"",""trial"",""time""
""focus"",""1"",""210""
""fullscreenenter"",""1"",""1240""
","
","""event"",""trial"",""time""
""focus"",""1"",""210""
","""event"",""trial"",""time""
""fullscreenenter"",""1"",""1240""
","
",,null,run_exp/static/audio/clip_25_q5_incorrect.m4a,null,<p>That’s incorrect. The alien tells you nothing about how much treasure is on the planet.</p>,,,,,,,,,,,,,,,,,,,,,,,
quiz_incorrect,58,435148,0.0-22.0-0.0,"""event"",""trial"",""time""
""focus"",""1"",""210""
""fullscreenenter"",""1"",""1240""
","
","""event"",""trial"",""time""
""focus"",""1"",""210""
","""event"",""trial"",""time""
""fullscreenenter"",""1"",""1240""
","
",,null,run_exp/static/audio/clip_27_incorrect_quiz.m4a,null,,,,,,,,,,,,,,,,,,,,,,,,
quiz_incorrect_continue,59,435823,0.0-22.0-1.0,"""event"",""trial"",""time""
""focus"",""1"",""210""
""fullscreenenter"",""1"",""1240""
","
","""event"",""trial"",""time""
""focus"",""1"",""210""
","""event"",""trial"",""time""
""fullscreenenter"",""1"",""1240""
","
",,675,"<p>Oops, you missed some questions.</p><p>Now that you’ve heard the correct answers. Try the quiz again!</p>",,,,,,,0,,,,,,,,,,,,,,,,,,
quiz_q_1_ask,60,437093,0.0-22.0-2.0,"""event"",""trial"",""time""
""focus"",""1"",""210""
""fullscreenenter"",""1"",""1240""
","
","""event"",""trial"",""time""
""focus"",""1"",""210""
","""event"",""trial"",""time""
""fullscreenenter"",""1"",""1240""
","
",,1266,run_exp/static/audio/clip_11_q1_ask.m4a,,,,,,,2,,,,,,,,,,,,,,,,,,
quiz_q_1_fb_correct,61,441013,0.0-23.0-0.0,"""event"",""trial"",""time""
""focus"",""1"",""210""
""fullscreenenter"",""1"",""1240""
","
","""event"",""trial"",""time""
""focus"",""1"",""210""
","""event"",""trial"",""time""
""fullscreenenter"",""1"",""1240""
","
",,null,run_exp/static/audio/clip_12_q1_correct.m4a,null,<p>That’s correct. You win extra money by collecting more gems.</p>,,,,,,,,,,,,,,,,,,,,,,,
quiz_q_2_ask,62,441994,0.0-23.0-1.0,"""event"",""trial"",""time""
""focus"",""1"",""210""
""fullscreenenter"",""1"",""1240""
","
","""event"",""trial"",""time""
""focus"",""1"",""210""
","""event"",""trial"",""time""
""fullscreenenter"",""1"",""1240""
","
",,977,run_exp/static/audio/clip_14_q2_ask.m4a,,,,,,,1,,,,,,,,,,,,,,,,,,
quiz_q_2_fb_correct,63,446038,0.0-24.0-0.0,"""event"",""trial"",""time""
""focus"",""1"",""210""
""fullscreenenter"",""1"",""1240""
","
","""event"",""trial"",""time""
""focus"",""1"",""210""
","""event"",""trial"",""time""
""fullscreenenter"",""1"",""1240""
","
",,null,run_exp/static/audio/clip_15_q2_correct.m4a,null,<p>That’s correct. The experiment is 20 minutes no matter what.</p>,,,,,,,,,,,,,,,,,,,,,,,
quiz_q_3_ask,64,459897,0.0-24.0-1.0,"""event"",""trial"",""time""
""focus"",""1"",""210""
""fullscreenenter"",""1"",""1240""
","
","""event"",""trial"",""time""
""focus"",""1"",""210""
","""event"",""trial"",""time""
""fullscreenenter"",""1"",""1240""
","
",,13858,run_exp/static/audio/clip_17_q3_ask.m4a,,,,,,,1,,,,,,,,,,,,,,,,,,
quiz_q_3_fb_correct,65,463930,0.0-25.0-0.0,"""event"",""trial"",""time""
""focus"",""1"",""210""
""fullscreenenter"",""1"",""1240""
","
","""event"",""trial"",""time""
""focus"",""1"",""210""
","""event"",""trial"",""time""
""fullscreenenter"",""1"",""1240""
","
",,null,run_exp/static/audio/clip_18_q3_correct.m4a,null,<p> That’s correct. You press the letter L to travel to a new planet.</p>,,,,,,,,,,,,,,,,,,,,,,,
quiz_q_4_ask,66,473533,0.0-25.0-1.0,"""event"",""trial"",""time""
""focus"",""1"",""210""
""fullscreenenter"",""1"",""1240""
","
","""event"",""trial"",""time""
""focus"",""1"",""210""
","""event"",""trial"",""time""
""fullscreenenter"",""1"",""1240""
","
",,9601,run_exp/static/audio/clip_20_q4_ask.m4a,,,,,,,1,,,,,,,,,,,,,,,,,,
quiz_q_4_fb_incorrect,67,479417,0.0-26.0-0.0,"""event"",""trial"",""time""
""focus"",""1"",""210""
""fullscreenenter"",""1"",""1240""
","
","""event"",""trial"",""time""
""focus"",""1"",""210""
","""event"",""trial"",""time""
""fullscreenenter"",""1"",""1240""
","
",,null,run_exp/static/audio/clip_22_q4_incorrect.m4a,null,<p>That’s incorrect.  The more you dig on a planet the fewer gems you’ll get with each dig.</p>,,,,,,,,,,,,,,,,,,,,,,,
quiz_q_5_ask,68,485471,0.0-26.0-1.0,"""event"",""trial"",""time""
""focus"",""1"",""210""
""fullscreenenter"",""1"",""1240""
","
","""event"",""trial"",""time""
""focus"",""1"",""210""
","""event"",""trial"",""time""
""fullscreenenter"",""1"",""1240""
","
",,6049,run_exp/static/audio/clip_23_q5_ask.m4a,,,,,,,1,,,,,,,,,,,,,,,,,,
quiz_q_5_fb_correct,69,490476,0.0-27.0-0.0,"""event"",""trial"",""time""
""focus"",""1"",""210""
""fullscreenenter"",""1"",""1240""
","
","""event"",""trial"",""time""
""focus"",""1"",""210""
","""event"",""trial"",""time""
""fullscreenenter"",""1"",""1240""
","
",,null,run_exp/static/audio/clip_24_q5_correct.m4a,null,<p> That’s correct. The alien tells you nothing about how much treasure is on the planet.</p>,,,,,,,,,,,,,,,,,,,,,,,
quiz_correct,70,493946,0.0-28.0-0.0,"""event"",""trial"",""time""
""focus"",""1"",""210""
""fullscreenenter"",""1"",""1240""
","
","""event"",""trial"",""time""
""focus"",""1"",""210""
","""event"",""trial"",""time""
""fullscreenenter"",""1"",""1240""
","
",,null,run_exp/static/audio/clip_26_correct_quiz.m4a,null,,,,,,,,,,,,,,,,,,,,,,,,
quiz_correct_continue,71,502206,0.0-28.0-1.0,"""event"",""trial"",""time""
""focus"",""1"",""210""
""fullscreenenter"",""1"",""1240""
","
","""event"",""trial"",""time""
""focus"",""1"",""210""
","""event"",""trial"",""time""
""fullscreenenter"",""1"",""1240""
","
",,8259,<p>Good job! You're now ready to move on to the real game!</p>,,,,,,,0,,,,,,,,,,,,,,,,,,
audio-keyboard-response,72,512332,0.0-28.0-2.0,"""event"",""trial"",""time""
""focus"",""1"",""210""
""fullscreenenter"",""1"",""1240""
","
","""event"",""trial"",""time""
""focus"",""1"",""210""
","""event"",""trial"",""time""
""fullscreenenter"",""1"",""1240""
","
",,null,run_exp/static/audio/clip_28_real_game.m4a,null,,,,,,,,,,,,,,,,,,,,,,,,
instruc_begin_exp_contine,73,544431,0.0-28.0-3.0,"""event"",""trial"",""time""
""focus"",""1"",""210""
""fullscreenenter"",""1"",""1240""
","
","""event"",""trial"",""time""
""focus"",""1"",""210""
","""event"",""trial"",""time""
""fullscreenenter"",""1"",""1240""
","
",,32099,"<p>Now that you know how  to dig for space treasure and travel to new planets,you can start exploring! </p><p>Do you want to go over the instructions again or get started with the real game?</p>",,,,,,,1,,,,,,1,,,,,,,,,,,,
alien_welcome,74,549436,0.0-29.0-0.0,"""event"",""trial"",""time""
""focus"",""1"",""210""
""fullscreenenter"",""1"",""1240""
","
","""event"",""trial"",""time""
""focus"",""1"",""210""
","""event"",""trial"",""time""
""fullscreenenter"",""1"",""1240""
","
",,null,run_exp/static/images/task_images/aliens/old_aliens/planet/alien_planet-53.jpg,null,,,,,,,,,,,,,53,"53,5,30,29,9,54,32,34,31,65,28,57,22,62,74,26,15,72,21,46,27,39,69",,,,,,,,,,
land,75,549938,0.0-29.0-1.0,"""event"",""trial"",""time""
""focus"",""1"",""210""
""fullscreenenter"",""1"",""1240""
","
","""event"",""trial"",""time""
""focus"",""1"",""210""
","""event"",""trial"",""time""
""fullscreenenter"",""1"",""1240""
","
",,null,run_exp/static/images/task_images/land.jpg,null,,,,,,,97,,,1,,,,,,,,,,,,,,
dig,76,551960,0.0-29.0-2.0,"""event"",""trial"",""time""
""focus"",""1"",""210""
""fullscreenenter"",""1"",""1240""
","
","""event"",""trial"",""time""
""focus"",""1"",""210""
","""event"",""trial"",""time""
""fullscreenenter"",""1"",""1240""
","
",,,,,,,,,,,,"[{""stimulus"":""run_exp/static/images/task_images/dig.jpg"",""time"":0},{""stimulus"":""run_exp/static/images/task_images/land.jpg"",""time"":669},{""stimulus"":""run_exp/static/images/task_images/dig.jpg"",""time"":1336.0000000001164}]",[],1,,,,,,,,,,,,,,
harvest,77,552962,0.0-29.0-3.0,"""event"",""trial"",""time""
""focus"",""1"",""210""
""fullscreenenter"",""1"",""1240""
","
","""event"",""trial"",""time""
""focus"",""1"",""210""
","""event"",""trial"",""time""
""fullscreenenter"",""1"",""1240""
","
",,null,run_exp/static/images/task_images/gems/97.jpg,null,,,,,,,15,,,1,,,,,97,0.159203263,0.154639175,,,,,,,
decision,78,553984,0.0-29.0-4.0,"""event"",""trial"",""time""
""focus"",""1"",""210""
""fullscreenenter"",""1"",""1240""
","
","""event"",""trial"",""time""
""focus"",""1"",""210""
","""event"",""trial"",""time""
""fullscreenenter"",""1"",""1240""
","
",,1019,run_exp/static/images/task_images/land.jpg,65,,,,,,,15,,,1,,,,,,,,9550,1,0,FALSE,,,
dig,79,555993,0.0-30.0-0.0,"""event"",""trial"",""time""
""focus"",""1"",""210""
""fullscreenenter"",""1"",""1240""
","
","""event"",""trial"",""time""
""focus"",""1"",""210""
","""event"",""trial"",""time""
""fullscreenenter"",""1"",""1240""
","
",,,,,,,,,,,,"[{""stimulus"":""run_exp/static/images/task_images/dig.jpg"",""time"":0},{""stimulus"":""run_exp/static/images/task_images/land.jpg"",""time"":662},{""stimulus"":""run_exp/static/images/task_images/dig.jpg"",""time"":1322}]",[],1,,,,,,,,,,,,,,
harvest,80,556994,0.0-30.0-1.0,"""event"",""trial"",""time""
""focus"",""1"",""210""
""fullscreenenter"",""1"",""1240""
","
","""event"",""trial"",""time""
""focus"",""1"",""210""
","""event"",""trial"",""time""
""fullscreenenter"",""1"",""1240""
","
",,null,run_exp/static/images/task_images/gems/15.jpg,null,,,,,,,4,,,1,,,,,15,0.239555591,0.266666667,,,,,,,
decision,81,559390,0.0-30.0-2.0,"""event"",""trial"",""time""
""focus"",""1"",""210""
""fullscreenenter"",""1"",""1240""
","
","""event"",""trial"",""time""
""focus"",""1"",""210""
","""event"",""trial"",""time""
""fullscreenenter"",""1"",""1240""
","
",,2395,run_exp/static/images/task_images/land.jpg,65,,,,,,,4,,,1,,,,,,,,14956,1,1,FALSE,,,
dig,82,560134,0.0-31.0-0.0,"""event"",""trial"",""time""
""focus"",""1"",""210""
""fullscreenenter"",""1"",""1240""
","
","""event"",""trial"",""time""
""focus"",""1"",""210""
","""event"",""trial"",""time""
""fullscreenenter"",""1"",""1240""
","
",,,,,,,,,,,,"[{""stimulus"":""run_exp/static/images/task_images/dig.jpg"",""time"":1},{""stimulus"":""run_exp/static/images/task_images/land.jpg"",""time"":323},{""stimulus"":""run_exp/static/images/task_images/dig.jpg"",""time"":523}]",[],1,,,,,,,,,,,,,,
harvest,83,561135,0.0-31.0-1.0,"""event"",""trial"",""time""
""focus"",""1"",""210""
""fullscreenenter"",""1"",""1240""
","
","""event"",""trial"",""time""
""focus"",""1"",""210""
","""event"",""trial"",""time""
""fullscreenenter"",""1"",""1240""
","
",,null,run_exp/static/images/task_images/gems/4.jpg,null,,,,,,,1,,,1,,,,,4,0.280059453,0.25,,,,,,,
decision,84,562086,0.0-31.0-2.0,"""event"",""trial"",""time""
""focus"",""1"",""210""
""fullscreenenter"",""1"",""1240""
","
","""event"",""trial"",""time""
""focus"",""1"",""210""
","""event"",""trial"",""time""
""fullscreenenter"",""1"",""1240""
","
",,950,run_exp/static/images/task_images/land.jpg,65,,,,,,,1,,,1,,,,,,,,17652,1,2,FALSE,,,
dig,85,564160,0.0-32.0-0.0,"""event"",""trial"",""time""
""focus"",""1"",""210""
""fullscreenenter"",""1"",""1240""
","
","""event"",""trial"",""time""
""focus"",""1"",""210""
","""event"",""trial"",""time""
""fullscreenenter"",""1"",""1240""
","
",,,,,,,,,,,,"[{""stimulus"":""run_exp/static/images/task_images/dig.jpg"",""time"":1},{""stimulus"":""run_exp/static/images/task_images/land.jpg"",""time"":686},{""stimulus"":""run_exp/static/images/task_images/dig.jpg"",""time"":1369}]",[],1,,,,,,,,,,,,,,
harvest,86,565161,0.0-32.0-1.0,"""event"",""trial"",""time""
""focus"",""1"",""210""
""fullscreenenter"",""1"",""1240""
","
","""event"",""trial"",""time""
""focus"",""1"",""210""
","""event"",""trial"",""time""
""fullscreenenter"",""1"",""1240""
","
",,null,run_exp/static/images/task_images/gems/1.jpg,null,,,,,,,0,,,1,,,,,1,0.150965942,0,,,,,,,
decision,87,565358,0.0-32.0-2.0,"""event"",""trial"",""time""
""focus"",""1"",""210""
""fullscreenenter"",""1"",""1240""
","
","""event"",""trial"",""time""
""focus"",""1"",""210""
","""event"",""trial"",""time""
""fullscreenenter"",""1"",""1240""
","
",,196,run_exp/static/images/task_images/land.jpg,76,,,,,,,0,,,1,,,,,,,,20924,1,3,TRUE,,,
travel,88,575193,0.0-33.0-0.0,"""event"",""trial"",""time""
""focus"",""1"",""210""
""fullscreenenter"",""1"",""1240""
","
","""event"",""trial"",""time""
""focus"",""1"",""210""
","""event"",""trial"",""time""
""fullscreenenter"",""1"",""1240""
","
",,,,,,,,,,,,"[{""stimulus"":""run_exp/static/images/task_images/rocket-01.jpg"",""time"":1},{""stimulus"":""run_exp/static/images/task_images/rocket-02.jpg"",""time"":1091},{""stimulus"":""run_exp/static/images/task_images/rocket-03.jpg"",""time"":2181},{""stimulus"":""run_exp/static/images/task_images/rocket-04.jpg"",""time"":3271},{""stimulus"":""run_exp/static/images/task_images/rocket-05.jpg"",""time"":4360},{""stimulus"":""run_exp/static/images/task_images/rocket-06.jpg"",""time"":5451.000000000116},{""stimulus"":""run_exp/static/images/task_images/rocket-07.jpg"",""time"":6540},{""stimulus"":""run_exp/static/images/task_images/rocket-08.jpg"",""time"":7630},{""stimulus"":""run_exp/static/images/task_images/rocket-09.jpg"",""time"":8720}]",[],1,,,,,,,,,,,,,,
alien_welcome,89,580196,0.0-33.0-1.0,"""event"",""trial"",""time""
""focus"",""1"",""210""
""fullscreenenter"",""1"",""1240""
","
","""event"",""trial"",""time""
""focus"",""1"",""210""
","""event"",""trial"",""time""
""fullscreenenter"",""1"",""1240""
","
",,null,run_exp/static/images/task_images/aliens/old_aliens/planet/alien_planet-5.jpg,null,,,,,,,,,,,,,5,"53,5,30,29,9,54,32,34,31,65,28,57,22,62,74,26,15,72,21,46,27,39,69",,,,,,,,,,
land,90,580698,0.0-33.0-2.0,"""event"",""trial"",""time""
""focus"",""1"",""210""
""fullscreenenter"",""1"",""1240""
","
","""event"",""trial"",""time""
""focus"",""1"",""210""
","""event"",""trial"",""time""
""fullscreenenter"",""1"",""1240""
","
",,null,run_exp/static/images/task_images/land.jpg,null,,,,,,,93,,,2,,,,,,,,,,,,,,
dig,91,582721,0.0-33.0-3.0,"""event"",""trial"",""time""
""focus"",""1"",""210""
""fullscreenenter"",""1"",""1240""
","
","""event"",""trial"",""time""
""focus"",""1"",""210""
","""event"",""trial"",""time""
""fullscreenenter"",""1"",""1240""
","
",,,,,,,,,,,,"[{""stimulus"":""run_exp/static/images/task_images/dig.jpg"",""time"":0},{""stimulus"":""run_exp/static/images/task_images/land.jpg"",""time"":669},{""stimulus"":""run_exp/static/images/task_images/dig.jpg"",""time"":1336}]",[],2,,,,,,,,,,,,,,
harvest,92,583723,0.0-33.0-4.0,"""event"",""trial"",""time""
""focus"",""1"",""210""
""fullscreenenter"",""1"",""1240""
","
","""event"",""trial"",""time""
""focus"",""1"",""210""
","""event"",""trial"",""time""
""fullscreenenter"",""1"",""1240""
","
",,null,run_exp/static/images/task_images/gems/93.jpg,null,,,,,,,25,,,2,,,,,93,0.266827197,0.268817204,,,,,,,
decision,93,584190,0.0-33.0-5.0,"""event"",""trial"",""time""
""focus"",""1"",""210""
""fullscreenenter"",""1"",""1240""
","
","""event"",""trial"",""time""
""focus"",""1"",""210""
","""event"",""trial"",""time""
""fullscreenenter"",""1"",""1240""
","
",,466,run_exp/static/images/task_images/land.jpg,65,,,,,,,25,,,2,,,,,,,,39756,1,0,FALSE,,,
dig,94,586747,0.0-34.0-0.0,"""event"",""trial"",""time""
""focus"",""1"",""210""
""fullscreenenter"",""1"",""1240""
","
","""event"",""trial"",""time""
""focus"",""1"",""210""
","""event"",""trial"",""time""
""fullscreenenter"",""1"",""1240""
","
",,,,,,,,,,,,"[{""stimulus"":""run_exp/static/images/task_images/dig.jpg"",""time"":0},{""stimulus"":""run_exp/static/images/task_images/land.jpg"",""time"":846},{""stimulus"":""run_exp/static/images/task_images/dig.jpg"",""time"":1691}]",[],2,,,,,,,,,,,,,,
harvest,95,587750,0.0-34.0-1.0,"""event"",""trial"",""time""
""focus"",""1"",""210""
""fullscreenenter"",""1"",""1240""
","
","""event"",""trial"",""time""
""focus"",""1"",""210""
","""event"",""trial"",""time""
""fullscreenenter"",""1"",""1240""
","
",,null,run_exp/static/images/task_images/gems/25.jpg,null,,,,,,,5,,,2,,,,,25,0.219019472,0.2,,,,,,,
decision,96,588158,0.0-34.0-2.0,"""event"",""trial"",""time""
""focus"",""1"",""210""
""fullscreenenter"",""1"",""1240""
","
","""event"",""trial"",""time""
""focus"",""1"",""210""
","""event"",""trial"",""time""
""fullscreenenter"",""1"",""1240""
","
",,408,run_exp/static/images/task_images/land.jpg,76,,,,,,,5,,,2,,,,,,,,43724,1,1,TRUE,,,
travel,97,597774,0.0-35.0-0.0,"""event"",""trial"",""time""
""focus"",""1"",""210""
""fullscreenenter"",""1"",""1240""
","
","""event"",""trial"",""time""
""focus"",""1"",""210""
","""event"",""trial"",""time""
""fullscreenenter"",""1"",""1240""
","
",,,,,,,,,,,,"[{""stimulus"":""run_exp/static/images/task_images/rocket-01.jpg"",""time"":0},{""stimulus"":""run_exp/static/images/task_images/rocket-02.jpg"",""time"":1067},{""stimulus"":""run_exp/static/images/task_images/rocket-03.jpg"",""time"":2132.0000000001164},{""stimulus"":""run_exp/static/images/task_images/rocket-04.jpg"",""time"":3198},{""stimulus"":""run_exp/static/images/task_images/rocket-05.jpg"",""time"":4264},{""stimulus"":""run_exp/static/images/task_images/rocket-06.jpg"",""time"":5329.000000000116},{""stimulus"":""run_exp/static/images/task_images/rocket-07.jpg"",""time"":6394},{""stimulus"":""run_exp/static/images/task_images/rocket-08.jpg"",""time"":7459.000000000116},{""stimulus"":""run_exp/static/images/task_images/rocket-09.jpg"",""time"":8525}]",[],2,,,,,,,,,,,,,,
alien_welcome,98,602776,0.0-35.0-1.0,"""event"",""trial"",""time""
""focus"",""1"",""210""
""fullscreenenter"",""1"",""1240""
","
","""event"",""trial"",""time""
""focus"",""1"",""210""
","""event"",""trial"",""time""
""fullscreenenter"",""1"",""1240""
","
",,null,run_exp/static/images/task_images/aliens/old_aliens/planet/alien_planet-30.jpg,null,,,,,,,,,,,,,30,"53,5,30,29,9,54,32,34,31,65,28,57,22,62,74,26,15,72,21,46,27,39,69",,,,,,,,,,
land,99,603278,0.0-35.0-2.0,"""event"",""trial"",""time""
""focus"",""1"",""210""
""fullscreenenter"",""1"",""1240""
","
","""event"",""trial"",""time""
""focus"",""1"",""210""
","""event"",""trial"",""time""
""fullscreenenter"",""1"",""1240""
","
",,null,run_exp/static/images/task_images/land.jpg,null,,,,,,,97,,,3,,,,,,,,,,,,,,
dig,100,605303,0.0-35.0-3.0,"""event"",""trial"",""time""
""focus"",""1"",""210""
""fullscreenenter"",""1"",""1240""
","
","""event"",""trial"",""time""
""focus"",""1"",""210""
","""event"",""trial"",""time""
""fullscreenenter"",""1"",""1240""
","
",,,,,,,,,,,,"[{""stimulus"":""run_exp/static/images/task_images/dig.jpg"",""time"":0},{""stimulus"":""run_exp/static/images/task_images/land.jpg"",""time"":669},{""stimulus"":""run_exp/static/images/task_images/dig.jpg"",""time"":1336}]",[],3,,,,,,,,,,,,,,
harvest,101,606304,0.0-35.0-4.0,"""event"",""trial"",""time""
""focus"",""1"",""210""
""fullscreenenter"",""1"",""1240""
","
","""event"",""trial"",""time""
""focus"",""1"",""210""
","""event"",""trial"",""time""
""fullscreenenter"",""1"",""1240""
","
",,null,run_exp/static/images/task_images/gems/97.jpg,null,,,,,,,53,,,3,,,,,97,0.545820557,0.546391753,,,,,,,
decision,102,606670,0.0-35.0-5.0,"""event"",""trial"",""time""
""focus"",""1"",""210""
""fullscreenenter"",""1"",""1240""
","
","""event"",""trial"",""time""
""focus"",""1"",""210""
","""event"",""trial"",""time""
""fullscreenenter"",""1"",""1240""
","
",,365,run_exp/static/images/task_images/land.jpg,65,,,,,,,53,,,3,,,,,,,,62236,1,0,FALSE,,,
dig,103,609330,0.0-36.0-0.0,"""event"",""trial"",""time""
""focus"",""1"",""210""
""fullscreenenter"",""1"",""1240""
","
","""event"",""trial"",""time""
""focus"",""1"",""210""
","""event"",""trial"",""time""
""fullscreenenter"",""1"",""1240""
","
",,,,,,,,,,,,"[{""stimulus"":""run_exp/static/images/task_images/dig.jpg"",""time"":0},{""stimulus"":""run_exp/static/images/task_images/land.jpg"",""time"":880},{""stimulus"":""run_exp/static/images/task_images/dig.jpg"",""time"":1759}]",[],3,,,,,,,,,,,,,,
harvest,104,610333,0.0-36.0-1.0,"""event"",""trial"",""time""
""focus"",""1"",""210""
""fullscreenenter"",""1"",""1240""
","
","""event"",""trial"",""time""
""focus"",""1"",""210""
","""event"",""trial"",""time""
""fullscreenenter"",""1"",""1240""
","
",,null,run_exp/static/images/task_images/gems/53.jpg,null,,,,,,,28,,,3,,,,,53,0.533913412,0.528301887,,,,,,,
decision,105,611054,0.0-36.0-2.0,"""event"",""trial"",""time""
""focus"",""1"",""210""
""fullscreenenter"",""1"",""1240""
","
","""event"",""trial"",""time""
""focus"",""1"",""210""
","""event"",""trial"",""time""
""fullscreenenter"",""1"",""1240""
","
",,721,run_exp/static/images/task_images/land.jpg,65,,,,,,,28,,,3,,,,,,,,66620,1,1,FALSE,,,
dig,106,613368,0.0-37.0-0.0,"""event"",""trial"",""time""
""focus"",""1"",""210""
""fullscreenenter"",""1"",""1240""
","
","""event"",""trial"",""time""
""focus"",""1"",""210""
","""event"",""trial"",""time""
""fullscreenenter"",""1"",""1240""
","
",,,,,,,,,,,,"[{""stimulus"":""run_exp/static/images/task_images/dig.jpg"",""time"":0},{""stimulus"":""run_exp/static/images/task_images/land.jpg"",""time"":761},{""stimulus"":""run_exp/static/images/task_images/dig.jpg"",""time"":1521}]",[],3,,,,,,,,,,,,,,
harvest,107,614370,0.0-37.0-1.0,"""event"",""trial"",""time""
""focus"",""1"",""210""
""fullscreenenter"",""1"",""1240""
","
","""event"",""trial"",""time""
""focus"",""1"",""210""
","""event"",""trial"",""time""
""fullscreenenter"",""1"",""1240""
","
",,null,run_exp/static/images/task_images/gems/28.jpg,null,,,,,,,13,,,3,,,,,28,0.480370053,0.464285714,,,,,,,
decision,108,615406,0.0-37.0-2.0,"""event"",""trial"",""time""
""focus"",""1"",""210""
""fullscreenenter"",""1"",""1240""
","
","""event"",""trial"",""time""
""focus"",""1"",""210""
","""event"",""trial"",""time""
""fullscreenenter"",""1"",""1240""
","
",,1035,run_exp/static/images/task_images/land.jpg,65,,,,,,,13,,,3,,,,,,,,70972,1,2,FALSE,,,
dig,109,617395,0.0-38.0-0.0,"""event"",""trial"",""time""
""focus"",""1"",""210""
""fullscreenenter"",""1"",""1240""
","
","""event"",""trial"",""time""
""focus"",""1"",""210""
","""event"",""trial"",""time""
""fullscreenenter"",""1"",""1240""
","
",,,,,,,,,,,,"[{""stimulus"":""run_exp/static/images/task_images/dig.jpg"",""time"":0},{""stimulus"":""run_exp/static/images/task_images/land.jpg"",""time"":656},{""stimulus"":""run_exp/static/images/task_images/dig.jpg"",""time"":1312.0000000001164}]",[],3,,,,,,,,,,,,,,
harvest,110,618396,0.0-38.0-1.0,"""event"",""trial"",""time""
""focus"",""1"",""210""
""fullscreenenter"",""1"",""1240""
","
","""event"",""trial"",""time""
""focus"",""1"",""210""
","""event"",""trial"",""time""
""fullscreenenter"",""1"",""1240""
","
",,null,run_exp/static/images/task_images/gems/13.jpg,null,,,,,,,7,,,3,,,,,13,0.549458787,0.538461538,,,,,,,
decision,111,619134,0.0-38.0-2.0,"""event"",""trial"",""time""
""focus"",""1"",""210""
""fullscreenenter"",""1"",""1240""
","
","""event"",""trial"",""time""
""focus"",""1"",""210""
","""event"",""trial"",""time""
""fullscreenenter"",""1"",""1240""
","
",,737,run_exp/static/images/task_images/land.jpg,65,,,,,,,7,,,3,,,,,,,,74700,1,3,FALSE,,,
dig,112,621420,0.0-39.0-0.0,"""event"",""trial"",""time""
""focus"",""1"",""210""
""fullscreenenter"",""1"",""1240""
","
","""event"",""trial"",""time""
""focus"",""1"",""210""
","""event"",""trial"",""time""
""fullscreenenter"",""1"",""1240""
","
",,,,,,,,,,,,"[{""stimulus"":""run_exp/static/images/task_images/dig.jpg"",""time"":0},{""stimulus"":""run_exp/static/images/task_images/land.jpg"",""time"":756},{""stimulus"":""run_exp/static/images/task_images/dig.jpg"",""time"":1511}]",[],3,,,,,,,,,,,,,,
harvest,113,622422,0.0-39.0-1.0,"""event"",""trial"",""time""
""focus"",""1"",""210""
""fullscreenenter"",""1"",""1240""
","
","""event"",""trial"",""time""
""focus"",""1"",""210""
","""event"",""trial"",""time""
""fullscreenenter"",""1"",""1240""
","
",,null,run_exp/static/images/task_images/gems/7.jpg,null,,,,,,,3,,,3,,,,,7,0.481816978,0.428571429,,,,,,,
decision,114,622798,0.0-39.0-2.0,"""event"",""trial"",""time""
""focus"",""1"",""210""
""fullscreenenter"",""1"",""1240""
","
","""event"",""trial"",""time""
""focus"",""1"",""210""
","""event"",""trial"",""time""
""fullscreenenter"",""1"",""1240""
","
",,375,run_exp/static/images/task_images/land.jpg,65,,,,,,,3,,,3,,,,,,,,78364,1,4,FALSE,,,
dig,115,625448,0.0-40.0-0.0,"""event"",""trial"",""time""
""focus"",""1"",""210""
""fullscreenenter"",""1"",""1240""
","
","""event"",""trial"",""time""
""focus"",""1"",""210""
","""event"",""trial"",""time""
""fullscreenenter"",""1"",""1240""
","
",,,,,,,,,,,,"[{""stimulus"":""run_exp/static/images/task_images/dig.jpg"",""time"":0},{""stimulus"":""run_exp/static/images/task_images/land.jpg"",""time"":876},{""stimulus"":""run_exp/static/images/task_images/dig.jpg"",""time"":1752}]",[],3,,,,,,,,,,,,,,
harvest,116,626450,0.0-40.0-1.0,"""event"",""trial"",""time""
""focus"",""1"",""210""
""fullscreenenter"",""1"",""1240""
","
","""event"",""trial"",""time""
""focus"",""1"",""210""
","""event"",""trial"",""time""
""fullscreenenter"",""1"",""1240""
","
",,null,run_exp/static/images/task_images/gems/3.jpg,null,,,,,,,2,,,3,,,,,3,0.531149589,0.666666667,,,,,,,
decision,117,626830,0.0-40.0-2.0,"""event"",""trial"",""time""
""focus"",""1"",""210""
""fullscreenenter"",""1"",""1240""
","
","""event"",""trial"",""time""
""focus"",""1"",""210""
","""event"",""trial"",""time""
""fullscreenenter"",""1"",""1240""
","
",,378,run_exp/static/images/task_images/land.jpg,65,,,,,,,2,,,3,,,,,,,,82396,1,5,FALSE,,,
dig,118,629476,0.0-41.0-0.0,"""event"",""trial"",""time""
""focus"",""1"",""210""
""fullscreenenter"",""1"",""1240""
","
","""event"",""trial"",""time""
""focus"",""1"",""210""
","""event"",""trial"",""time""
""fullscreenenter"",""1"",""1240""
","
",,,,,,,,,,,,"[{""stimulus"":""run_exp/static/images/task_images/dig.jpg"",""time"":0},{""stimulus"":""run_exp/static/images/task_images/land.jpg"",""time"":876},{""stimulus"":""run_exp/static/images/task_images/dig.jpg"",""time"":1750}]",[],3,,,,,,,,,,,,,,
harvest,119,630479,0.0-41.0-1.0,"""event"",""trial"",""time""
""focus"",""1"",""210""
""fullscreenenter"",""1"",""1240""
","
","""event"",""trial"",""time""
""focus"",""1"",""210""
","""event"",""trial"",""time""
""fullscreenenter"",""1"",""1240""
","
",,null,run_exp/static/images/task_images/gems/2.jpg,null,,,,,,,1,,,3,,,,,2,0.42723863,0.5,,,,,,,
decision,120,630806,0.0-41.0-2.0,"""event"",""trial"",""time""
""focus"",""1"",""210""
""fullscreenenter"",""1"",""1240""
","
","""event"",""trial"",""time""
""focus"",""1"",""210""
","""event"",""trial"",""time""
""fullscreenenter"",""1"",""1240""
","
",,327,run_exp/static/images/task_images/land.jpg,65,,,,,,,1,,,3,,,,,,,,86372,1,6,FALSE,,,
dig,121,633504,0.0-42.0-0.0,"""event"",""trial"",""time""
""focus"",""1"",""210""
""fullscreenenter"",""1"",""1240""
","
","""event"",""trial"",""time""
""focus"",""1"",""210""
","""event"",""trial"",""time""
""fullscreenenter"",""1"",""1240""
","
",,,,,,,,,,,,"[{""stimulus"":""run_exp/static/images/task_images/dig.jpg"",""time"":0},{""stimulus"":""run_exp/static/images/task_images/land.jpg"",""time"":893},{""stimulus"":""run_exp/static/images/task_images/dig.jpg"",""time"":1785}]",[],3,,,,,,,,,,,,,,
harvest,122,634507,0.0-42.0-1.0,"""event"",""trial"",""time""
""focus"",""1"",""210""
""fullscreenenter"",""1"",""1240""
","
","""event"",""trial"",""time""
""focus"",""1"",""210""
","""event"",""trial"",""time""
""fullscreenenter"",""1"",""1240""
","
",,null,run_exp/static/images/task_images/gems/1.jpg,null,,,,,,,0,,,3,,,,,1,0.441122677,0,,,,,,,
decision,123,634966,0.0-42.0-2.0,"""event"",""trial"",""time""
""focus"",""1"",""210""
""fullscreenenter"",""1"",""1240""
","
","""event"",""trial"",""time""
""focus"",""1"",""210""
","""event"",""trial"",""time""
""fullscreenenter"",""1"",""1240""
","
",,458,run_exp/static/images/task_images/land.jpg,65,,,,,,,0,,,3,,,,,,,,90532,1,7,FALSE,,,
dig,124,637532,0.0-43.0-0.0,"""event"",""trial"",""time""
""focus"",""1"",""210""
""fullscreenenter"",""1"",""1240""
","
","""event"",""trial"",""time""
""focus"",""1"",""210""
","""event"",""trial"",""time""
""fullscreenenter"",""1"",""1240""
","
",,,,,,,,,,,,"[{""stimulus"":""run_exp/static/images/task_images/dig.jpg"",""time"":0},{""stimulus"":""run_exp/static/images/task_images/land.jpg"",""time"":849},{""stimulus"":""run_exp/static/images/task_images/dig.jpg"",""time"":1697}]",[],3,,,,,,,,,,,,,,
harvest,125,638534,0.0-43.0-1.0,"""event"",""trial"",""time""
""focus"",""1"",""210""
""fullscreenenter"",""1"",""1240""
","
","""event"",""trial"",""time""
""focus"",""1"",""210""
","""event"",""trial"",""time""
""fullscreenenter"",""1"",""1240""
","
",,null,run_exp/static/images/task_images/gems/0.jpg,null,,,,,,,0,,,3,,,,,0,0.534385414,NaN,,,,,,,
decision,126,638894,0.0-43.0-2.0,"""event"",""trial"",""time""
""focus"",""1"",""210""
""fullscreenenter"",""1"",""1240""
","
","""event"",""trial"",""time""
""focus"",""1"",""210""
","""event"",""trial"",""time""
""fullscreenenter"",""1"",""1240""
","
",,360,run_exp/static/images/task_images/land.jpg,76,,,,,,,0,,,3,,,,,,,,94460,1,8,TRUE,,,
travel,127,648562,0.0-44.0-0.0,"""event"",""trial"",""time""
""focus"",""1"",""210""
""fullscreenenter"",""1"",""1240""
","
","""event"",""trial"",""time""
""focus"",""1"",""210""
","""event"",""trial"",""time""
""fullscreenenter"",""1"",""1240""
","
",,,,,,,,,,,,"[{""stimulus"":""run_exp/static/images/task_images/rocket-01.jpg"",""time"":1},{""stimulus"":""run_exp/static/images/task_images/rocket-02.jpg"",""time"":1073},{""stimulus"":""run_exp/static/images/task_images/rocket-03.jpg"",""time"":2144},{""stimulus"":""run_exp/static/images/task_images/rocket-04.jpg"",""time"":3216},{""stimulus"":""run_exp/static/images/task_images/rocket-05.jpg"",""time"":4288},{""stimulus"":""run_exp/static/images/task_images/rocket-06.jpg"",""time"":5360},{""stimulus"":""run_exp/static/images/task_images/rocket-07.jpg"",""time"":6432},{""stimulus"":""run_exp/static/images/task_images/rocket-08.jpg"",""time"":7504},{""stimulus"":""run_exp/static/images/task_images/rocket-09.jpg"",""time"":8576}]",[],3,,,,,,,,,,,,,,
alien_welcome,128,653564,0.0-44.0-1.0,"""event"",""trial"",""time""
""focus"",""1"",""210""
""fullscreenenter"",""1"",""1240""
","
","""event"",""trial"",""time""
""focus"",""1"",""210""
","""event"",""trial"",""time""
""fullscreenenter"",""1"",""1240""
","
",,null,run_exp/static/images/task_images/aliens/old_aliens/planet/alien_planet-29.jpg,null,,,,,,,,,,,,,29,"53,5,30,29,9,54,32,34,31,65,28,57,22,62,74,26,15,72,21,46,27,39,69",,,,,,,,,,
land,129,654067,0.0-44.0-2.0,"""event"",""trial"",""time""
""focus"",""1"",""210""
""fullscreenenter"",""1"",""1240""
","
","""event"",""trial"",""time""
""focus"",""1"",""210""
","""event"",""trial"",""time""
""fullscreenenter"",""1"",""1240""
","
",,null,run_exp/static/images/task_images/land.jpg,null,,,,,,,108,,,4,,,,,,,,,,,,,,
dig,130,656088,0.0-44.0-3.0,"""event"",""trial"",""time""
""focus"",""1"",""210""
""fullscreenenter"",""1"",""1240""
","
","""event"",""trial"",""time""
""focus"",""1"",""210""
","""event"",""trial"",""time""
""fullscreenenter"",""1"",""1240""
","
",,,,,,,,,,,,"[{""stimulus"":""run_exp/static/images/task_images/dig.jpg"",""time"":0},{""stimulus"":""run_exp/static/images/task_images/land.jpg"",""time"":667.9999999998836},{""stimulus"":""run_exp/static/images/task_images/dig.jpg"",""time"":1334.9999999998836}]",[],4,,,,,,,,,,,,,,
harvest,131,657090,0.0-44.0-4.0,"""event"",""trial"",""time""
""focus"",""1"",""210""
""fullscreenenter"",""1"",""1240""
","
","""event"",""trial"",""time""
""focus"",""1"",""210""
","""event"",""trial"",""time""
""fullscreenenter"",""1"",""1240""
","
",,null,run_exp/static/images/task_images/gems/108.jpg,null,,,,,,,67,,,4,,,,,108,0.61765836,0.62037037,,,,,,,
decision,132,657646,0.0-44.0-5.0,"""event"",""trial"",""time""
""focus"",""1"",""210""
""fullscreenenter"",""1"",""1240""
","
","""event"",""trial"",""time""
""focus"",""1"",""210""
","""event"",""trial"",""time""
""fullscreenenter"",""1"",""1240""
","
",,555,run_exp/static/images/task_images/land.jpg,76,,,,,,,67,,,4,,,,,,,,113212,1,0,TRUE,,,
travel,133,667119,0.0-45.0-0.0,"""event"",""trial"",""time""
""focus"",""1"",""210""
""fullscreenenter"",""1"",""1240""
","
","""event"",""trial"",""time""
""focus"",""1"",""210""
","""event"",""trial"",""time""
""fullscreenenter"",""1"",""1240""
","
",,,,,,,,,,,,"[{""stimulus"":""run_exp/static/images/task_images/rocket-01.jpg"",""time"":0},{""stimulus"":""run_exp/static/images/task_images/rocket-02.jpg"",""time"":1051},{""stimulus"":""run_exp/static/images/task_images/rocket-03.jpg"",""time"":2101},{""stimulus"":""run_exp/static/images/task_images/rocket-04.jpg"",""time"":3151},{""stimulus"":""run_exp/static/images/task_images/rocket-05.jpg"",""time"":4201},{""stimulus"":""run_exp/static/images/task_images/rocket-06.jpg"",""time"":5250},{""stimulus"":""run_exp/static/images/task_images/rocket-07.jpg"",""time"":6301},{""stimulus"":""run_exp/static/images/task_images/rocket-08.jpg"",""time"":7350.000000000116},{""stimulus"":""run_exp/static/images/task_images/rocket-09.jpg"",""time"":8400}]",[],4,,,,,,,,,,,,,,
alien_welcome,134,672121,0.0-45.0-1.0,"""event"",""trial"",""time""
""focus"",""1"",""210""
""fullscreenenter"",""1"",""1240""
","
","""event"",""trial"",""time""
""focus"",""1"",""210""
","""event"",""trial"",""time""
""fullscreenenter"",""1"",""1240""
","
",,null,run_exp/static/images/task_images/aliens/old_aliens/planet/alien_planet-9.jpg,null,,,,,,,,,,,,,9,"53,5,30,29,9,54,32,34,31,65,28,57,22,62,74,26,15,72,21,46,27,39,69",,,,,,,,,,
land,135,672625,0.0-45.0-2.0,"""event"",""trial"",""time""
""focus"",""1"",""210""
""fullscreenenter"",""1"",""1240""
","
","""event"",""trial"",""time""
""focus"",""1"",""210""
","""event"",""trial"",""time""
""fullscreenenter"",""1"",""1240""
","
",,null,run_exp/static/images/task_images/land.jpg,null,,,,,,,96,,,5,,,,,,,,,,,,,,
dig,136,674649,0.0-45.0-3.0,"""event"",""trial"",""time""
""focus"",""1"",""210""
""fullscreenenter"",""1"",""1240""
","
","""event"",""trial"",""time""
""focus"",""1"",""210""
","""event"",""trial"",""time""
""fullscreenenter"",""1"",""1240""
","
",,,,,,,,,,,,"[{""stimulus"":""run_exp/static/images/task_images/dig.jpg"",""time"":0},{""stimulus"":""run_exp/static/images/task_images/land.jpg"",""time"":668},{""stimulus"":""run_exp/static/images/task_images/dig.jpg"",""time"":1336}]",[],5,,,,,,,,,,,,,,
harvest,137,675651,0.0-45.0-4.0,"""event"",""trial"",""time""
""focus"",""1"",""210""
""fullscreenenter"",""1"",""1240""
","
","""event"",""trial"",""time""
""focus"",""1"",""210""
","""event"",""trial"",""time""
""fullscreenenter"",""1"",""1240""
","
",,null,run_exp/static/images/task_images/gems/96.jpg,null,,,,,,,42,,,5,,,,,96,0.436053583,0.4375,,,,,,,
decision,138,676134,0.0-45.0-5.0,"""event"",""trial"",""time""
""focus"",""1"",""210""
""fullscreenenter"",""1"",""1240""
","
","""event"",""trial"",""time""
""focus"",""1"",""210""
","""event"",""trial"",""time""
""fullscreenenter"",""1"",""1240""
","
",,482,run_exp/static/images/task_images/land.jpg,65,,,,,,,42,,,5,,,,,,,,131700,1,0,FALSE,,,
dig,139,678675,0.0-46.0-0.0,"""event"",""trial"",""time""
""focus"",""1"",""210""
""fullscreenenter"",""1"",""1240""
","
","""event"",""trial"",""time""
""focus"",""1"",""210""
","""event"",""trial"",""time""
""fullscreenenter"",""1"",""1240""
","
",,,,,,,,,,,,"[{""stimulus"":""run_exp/static/images/task_images/dig.jpg"",""time"":0},{""stimulus"":""run_exp/static/images/task_images/land.jpg"",""time"":840},{""stimulus"":""run_exp/static/images/task_images/dig.jpg"",""time"":1680.0000000001164}]",[],5,,,,,,,,,,,,,,
harvest,140,679677,0.0-46.0-1.0,"""event"",""trial"",""time""
""focus"",""1"",""210""
""fullscreenenter"",""1"",""1240""
","
","""event"",""trial"",""time""
""focus"",""1"",""210""
","""event"",""trial"",""time""
""fullscreenenter"",""1"",""1240""
","
",,null,run_exp/static/images/task_images/gems/42.jpg,null,,,,,,,24,,,5,,,,,42,0.568202944,0.571428571,,,,,,,
decision,141,680390,0.0-46.0-2.0,"""event"",""trial"",""time""
""focus"",""1"",""210""
""fullscreenenter"",""1"",""1240""
","
","""event"",""trial"",""time""
""focus"",""1"",""210""
","""event"",""trial"",""time""
""fullscreenenter"",""1"",""1240""
","
",,713,run_exp/static/images/task_images/land.jpg,76,,,,,,,24,,,5,,,,,,,,135958,1,1,TRUE,,,
travel,142,689710,0.0-47.0-0.0,"""event"",""trial"",""time""
""focus"",""1"",""210""
""fullscreenenter"",""1"",""1240""
","
","""event"",""trial"",""time""
""focus"",""1"",""210""
","""event"",""trial"",""time""
""fullscreenenter"",""1"",""1240""
","
",,,,,,,,,,,,"[{""stimulus"":""run_exp/static/images/task_images/rocket-01.jpg"",""time"":1},{""stimulus"":""run_exp/static/images/task_images/rocket-02.jpg"",""time"":1033},{""stimulus"":""run_exp/static/images/task_images/rocket-03.jpg"",""time"":2065},{""stimulus"":""run_exp/static/images/task_images/rocket-04.jpg"",""time"":3096},{""stimulus"":""run_exp/static/images/task_images/rocket-05.jpg"",""time"":4128},{""stimulus"":""run_exp/static/images/task_images/rocket-06.jpg"",""time"":5160},{""stimulus"":""run_exp/static/images/task_images/rocket-07.jpg"",""time"":6192},{""stimulus"":""run_exp/static/images/task_images/rocket-08.jpg"",""time"":7224},{""stimulus"":""run_exp/static/images/task_images/rocket-09.jpg"",""time"":8256}]",[],5,,,,,,,,,,,,,,
alien_welcome,143,694713,0.0-47.0-1.0,"""event"",""trial"",""time""
""focus"",""1"",""210""
""fullscreenenter"",""1"",""1240""
","
","""event"",""trial"",""time""
""focus"",""1"",""210""
","""event"",""trial"",""time""
""fullscreenenter"",""1"",""1240""
","
",,null,run_exp/static/images/task_images/aliens/old_aliens/planet/alien_planet-54.jpg,null,,,,,,,,,,,,,54,"53,5,30,29,9,54,32,34,31,65,28,57,22,62,74,26,15,72,21,46,27,39,69",,,,,,,,,,
land,144,695215,0.0-47.0-2.0,"""event"",""trial"",""time""
""focus"",""1"",""210""
""fullscreenenter"",""1"",""1240""
","
","""event"",""trial"",""time""
""focus"",""1"",""210""
","""event"",""trial"",""time""
""fullscreenenter"",""1"",""1240""
","
",,null,run_exp/static/images/task_images/land.jpg,null,,,,,,,103,,,6,,,,,,,,,,,,,,
dig,145,697239,0.0-47.0-3.0,"""event"",""trial"",""time""
""focus"",""1"",""210""
""fullscreenenter"",""1"",""1240""
","
","""event"",""trial"",""time""
""focus"",""1"",""210""
","""event"",""trial"",""time""
""fullscreenenter"",""1"",""1240""
","
",,,,,,,,,,,,"[{""stimulus"":""run_exp/static/images/task_images/dig.jpg"",""time"":0},{""stimulus"":""run_exp/static/images/task_images/land.jpg"",""time"":668},{""stimulus"":""run_exp/static/images/task_images/dig.jpg"",""time"":1336}]",[],6,,,,,,,,,,,,,,
harvest,146,698241,0.0-47.0-4.0,"""event"",""trial"",""time""
""focus"",""1"",""210""
""fullscreenenter"",""1"",""1240""
","
","""event"",""trial"",""time""
""focus"",""1"",""210""
","""event"",""trial"",""time""
""fullscreenenter"",""1"",""1240""
","
",,null,run_exp/static/images/task_images/gems/103.jpg,null,,,,,,,85,,,6,,,,,103,0.82116647,0.825242718,,,,,,,
decision,147,699558,0.0-47.0-5.0,"""event"",""trial"",""time""
""focus"",""1"",""210""
""fullscreenenter"",""1"",""1240""
","
","""event"",""trial"",""time""
""focus"",""1"",""210""
","""event"",""trial"",""time""
""fullscreenenter"",""1"",""1240""
","
",,1316,run_exp/static/images/task_images/land.jpg,65,,,,,,,85,,,6,,,,,,,,155124,1,0,FALSE,,,
dig,148,701265,0.0-48.0-0.0,"""event"",""trial"",""time""
""focus"",""1"",""210""
""fullscreenenter"",""1"",""1240""
","
","""event"",""trial"",""time""
""focus"",""1"",""210""
","""event"",""trial"",""time""
""fullscreenenter"",""1"",""1240""
","
",,,,,,,,,,,,"[{""stimulus"":""run_exp/static/images/task_images/dig.jpg"",""time"":0.9999999998835847},{""stimulus"":""run_exp/static/images/task_images/land.jpg"",""time"":561.9999999998836},{""stimulus"":""run_exp/static/images/task_images/dig.jpg"",""time"":1123.9999999998836}]",[],6,,,,,,,,,,,,,,
harvest,149,702267,0.0-48.0-1.0,"""event"",""trial"",""time""
""focus"",""1"",""210""
""fullscreenenter"",""1"",""1240""
","
","""event"",""trial"",""time""
""focus"",""1"",""210""
","""event"",""trial"",""time""
""fullscreenenter"",""1"",""1240""
","
",,null,run_exp/static/images/task_images/gems/85.jpg,null,,,,,,,70,,,6,,,,,85,0.820943031,0.823529412,,,,,,,
decision,150,702838,0.0-48.0-2.0,"""event"",""trial"",""time""
""focus"",""1"",""210""
""fullscreenenter"",""1"",""1240""
","
","""event"",""trial"",""time""
""focus"",""1"",""210""
","""event"",""trial"",""time""
""fullscreenenter"",""1"",""1240""
","
",,570,run_exp/static/images/task_images/land.jpg,65,,,,,,,70,,,6,,,,,,,,158404,1,1,FALSE,,,
dig,151,705294,0.0-49.0-0.0,"""event"",""trial"",""time""
""focus"",""1"",""210""
""fullscreenenter"",""1"",""1240""
","
","""event"",""trial"",""time""
""focus"",""1"",""210""
","""event"",""trial"",""time""
""fullscreenenter"",""1"",""1240""
","
",,,,,,,,,,,,"[{""stimulus"":""run_exp/static/images/task_images/dig.jpg"",""time"":1},{""stimulus"":""run_exp/static/images/task_images/land.jpg"",""time"":812},{""stimulus"":""run_exp/static/images/task_images/dig.jpg"",""time"":1623}]",[],6,,,,,,,,,,,,,,
harvest,152,706295,0.0-49.0-1.0,"""event"",""trial"",""time""
""focus"",""1"",""210""
""fullscreenenter"",""1"",""1240""
","
","""event"",""trial"",""time""
""focus"",""1"",""210""
","""event"",""trial"",""time""
""fullscreenenter"",""1"",""1240""
","
",,null,run_exp/static/images/task_images/gems/70.jpg,null,,,,,,,61,,,6,,,,,70,0.869975449,0.871428571,,,,,,,
decision,153,707702,0.0-49.0-2.0,"""event"",""trial"",""time""
""focus"",""1"",""210""
""fullscreenenter"",""1"",""1240""
","
","""event"",""trial"",""time""
""focus"",""1"",""210""
","""event"",""trial"",""time""
""fullscreenenter"",""1"",""1240""
","
",,1405,run_exp/static/images/task_images/land.jpg,65,,,,,,,61,,,6,,,,,,,,163268,1,2,FALSE,,,
dig,154,709320,0.0-50.0-0.0,"""event"",""trial"",""time""
""focus"",""1"",""210""
""fullscreenenter"",""1"",""1240""
","
","""event"",""trial"",""time""
""focus"",""1"",""210""
","""event"",""trial"",""time""
""fullscreenenter"",""1"",""1240""
","
",,,,,,,,,,,,"[{""stimulus"":""run_exp/static/images/task_images/dig.jpg"",""time"":0},{""stimulus"":""run_exp/static/images/task_images/land.jpg"",""time"":533},{""stimulus"":""run_exp/static/images/task_images/dig.jpg"",""time"":1065}]",[],6,,,,,,,,,,,,,,
harvest,155,710322,0.0-50.0-1.0,"""event"",""trial"",""time""
""focus"",""1"",""210""
""fullscreenenter"",""1"",""1240""
","
","""event"",""trial"",""time""
""focus"",""1"",""210""
","""event"",""trial"",""time""
""fullscreenenter"",""1"",""1240""
","
",,null,run_exp/static/images/task_images/gems/61.jpg,null,,,,,,,50,,,6,,,,,61,0.822835453,0.819672131,,,,,,,
decision,156,710750,0.0-50.0-2.0,"""event"",""trial"",""time""
""focus"",""1"",""210""
""fullscreenenter"",""1"",""1240""
","
","""event"",""trial"",""time""
""focus"",""1"",""210""
","""event"",""trial"",""time""
""fullscreenenter"",""1"",""1240""
","
",,428,run_exp/static/images/task_images/land.jpg,65,,,,,,,50,,,6,,,,,,,,166316,1,3,FALSE,,,
dig,157,713345,0.0-51.0-0.0,"""event"",""trial"",""time""
""focus"",""1"",""210""
""fullscreenenter"",""1"",""1240""
","
","""event"",""trial"",""time""
""focus"",""1"",""210""
","""event"",""trial"",""time""
""fullscreenenter"",""1"",""1240""
","
",,,,,,,,,,,,"[{""stimulus"":""run_exp/static/images/task_images/dig.jpg"",""time"":0},{""stimulus"":""run_exp/static/images/task_images/land.jpg"",""time"":858},{""stimulus"":""run_exp/static/images/task_images/dig.jpg"",""time"":1715}]",[],6,,,,,,,,,,,,,,
harvest,158,714347,0.0-51.0-1.0,"""event"",""trial"",""time""
""focus"",""1"",""210""
""fullscreenenter"",""1"",""1240""
","
","""event"",""trial"",""time""
""focus"",""1"",""210""
","""event"",""trial"",""time""
""fullscreenenter"",""1"",""1240""
","
",,null,run_exp/static/images/task_images/gems/50.jpg,null,,,,,,,41,,,6,,,,,50,0.822531473,0.82,,,,,,,
decision,159,714790,0.0-51.0-2.0,"""event"",""trial"",""time""
""focus"",""1"",""210""
""fullscreenenter"",""1"",""1240""
","
","""event"",""trial"",""time""
""focus"",""1"",""210""
","""event"",""trial"",""time""
""fullscreenenter"",""1"",""1240""
","
",,441,run_exp/static/images/task_images/land.jpg,65,,,,,,,41,,,6,,,,,,,,170356,1,4,FALSE,,,
dig,160,717371,0.0-52.0-0.0,"""event"",""trial"",""time""
""focus"",""1"",""210""
""fullscreenenter"",""1"",""1240""
","
","""event"",""trial"",""time""
""focus"",""1"",""210""
","""event"",""trial"",""time""
""fullscreenenter"",""1"",""1240""
","
",,,,,,,,,,,,"[{""stimulus"":""run_exp/static/images/task_images/dig.jpg"",""time"":0},{""stimulus"":""run_exp/static/images/task_images/land.jpg"",""time"":853.9999999998836},{""stimulus"":""run_exp/static/images/task_images/dig.jpg"",""time"":1707}]",[],6,,,,,,,,,,,,,,
harvest,161,718373,0.0-52.0-1.0,"""event"",""trial"",""time""
""focus"",""1"",""210""
""fullscreenenter"",""1"",""1240""
","
","""event"",""trial"",""time""
""focus"",""1"",""210""
","""event"",""trial"",""time""
""fullscreenenter"",""1"",""1240""
","
",,null,run_exp/static/images/task_images/gems/41.jpg,null,,,,,,,31,,,6,,,,,41,0.759146331,0.756097561,,,,,,,
decision,162,718838,0.0-52.0-2.0,"""event"",""trial"",""time""
""focus"",""1"",""210""
""fullscreenenter"",""1"",""1240""
","
","""event"",""trial"",""time""
""focus"",""1"",""210""
","""event"",""trial"",""time""
""fullscreenenter"",""1"",""1240""
","
",,465,run_exp/static/images/task_images/land.jpg,65,,,,,,,31,,,6,,,,,,,,174404,1,5,FALSE,,,
dig,163,721399,0.0-53.0-0.0,"""event"",""trial"",""time""
""focus"",""1"",""210""
""fullscreenenter"",""1"",""1240""
","
","""event"",""trial"",""time""
""focus"",""1"",""210""
","""event"",""trial"",""time""
""fullscreenenter"",""1"",""1240""
","
",,,,,,,,,,,,"[{""stimulus"":""run_exp/static/images/task_images/dig.jpg"",""time"":0},{""stimulus"":""run_exp/static/images/task_images/land.jpg"",""time"":847},{""stimulus"":""run_exp/static/images/task_images/dig.jpg"",""time"":1692}]",[],6,,,,,,,,,,,,,,
harvest,164,722401,0.0-53.0-1.0,"""event"",""trial"",""time""
""focus"",""1"",""210""
""fullscreenenter"",""1"",""1240""
","
","""event"",""trial"",""time""
""focus"",""1"",""210""
","""event"",""trial"",""time""
""fullscreenenter"",""1"",""1240""
","
",,null,run_exp/static/images/task_images/gems/31.jpg,null,,,,,,,26,,,6,,,,,31,0.853087677,0.838709677,,,,,,,
decision,165,725403,0.0-53.0-2.0,"""event"",""trial"",""time""
""focus"",""1"",""210""
""fullscreenenter"",""1"",""1240""
","
","""event"",""trial"",""time""
""focus"",""1"",""210""
","""event"",""trial"",""time""
""fullscreenenter"",""1"",""1240""
","
",,null,run_exp/static/images/task_images/land.jpg,null,,,,,,,26,,,6,,,,,,,,180969,1,6,FALSE,,,
time_out,166,727408,0.0-54.0-0.0,"""event"",""trial"",""time""
""focus"",""1"",""210""
""fullscreenenter"",""1"",""1240""
","
","""event"",""trial"",""time""
""focus"",""1"",""210""
","""event"",""trial"",""time""
""fullscreenenter"",""1"",""1240""
","
",,null,run_exp/static/images/task_images/time_out.jpg,null,,,,,,,26,,,,,,,,,,,,,,,,,
decision,167,730411,0.0-54.0-1.0,"""event"",""trial"",""time""
""focus"",""1"",""210""
""fullscreenenter"",""1"",""1240""
","
","""event"",""trial"",""time""
""focus"",""1"",""210""
","""event"",""trial"",""time""
""fullscreenenter"",""1"",""1240""
","
",,null,run_exp/static/images/task_images/land.jpg,null,,,,,,,26,,,6,,,,,,,,185977,1,6,FALSE,,,
time_out,168,732415,0.0-55.0-0.0,"""event"",""trial"",""time""
""focus"",""1"",""210""
""fullscreenenter"",""1"",""1240""
","
","""event"",""trial"",""time""
""focus"",""1"",""210""
","""event"",""trial"",""time""
""fullscreenenter"",""1"",""1240""
","
",,null,run_exp/static/images/task_images/time_out.jpg,null,,,,,,,26,,,,,,,,,,,,,,,,,
decision,169,735418,0.0-55.0-1.0,"""event"",""trial"",""time""
""focus"",""1"",""210""
""fullscreenenter"",""1"",""1240""
","
","""event"",""trial"",""time""
""focus"",""1"",""210""
","""event"",""trial"",""time""
""fullscreenenter"",""1"",""1240""
","
",,null,run_exp/static/images/task_images/land.jpg,null,,,,,,,26,,,6,,,,,,,,190984,1,6,FALSE,,,
time_out,170,737422,0.0-56.0-0.0,"""event"",""trial"",""time""
""focus"",""1"",""210""
""fullscreenenter"",""1"",""1240""
","
","""event"",""trial"",""time""
""focus"",""1"",""210""
","""event"",""trial"",""time""
""fullscreenenter"",""1"",""1240""
","
",,null,run_exp/static/images/task_images/time_out.jpg,null,,,,,,,26,,,,,,,,,,,,,,,,,
decision,171,738790,0.0-56.0-1.0,"""event"",""trial"",""time""
""focus"",""1"",""210""
""fullscreenenter"",""1"",""1240""
","
","""event"",""trial"",""time""
""focus"",""1"",""210""
","""event"",""trial"",""time""
""fullscreenenter"",""1"",""1240""
","
",,1367,run_exp/static/images/task_images/land.jpg,76,,,,,,,26,,,6,,,,,,,,194356,1,6,TRUE,,,
travel,172,747456,0.0-57.0-0.0,"""event"",""trial"",""time""
""focus"",""1"",""210""
""fullscreenenter"",""1"",""1240""
","
","""event"",""trial"",""time""
""focus"",""1"",""210""
","""event"",""trial"",""time""
""fullscreenenter"",""1"",""1240""
","
",,,,,,,,,,,,"[{""stimulus"":""run_exp/static/images/task_images/rocket-01.jpg"",""time"":1},{""stimulus"":""run_exp/static/images/task_images/rocket-02.jpg"",""time"":961},{""stimulus"":""run_exp/static/images/task_images/rocket-03.jpg"",""time"":1921},{""stimulus"":""run_exp/static/images/task_images/rocket-04.jpg"",""time"":2880},{""stimulus"":""run_exp/static/images/task_images/rocket-05.jpg"",""time"":3840},{""stimulus"":""run_exp/static/images/task_images/rocket-06.jpg"",""time"":4800},{""stimulus"":""run_exp/static/images/task_images/rocket-07.jpg"",""time"":5760},{""stimulus"":""run_exp/static/images/task_images/rocket-08.jpg"",""time"":6719},{""stimulus"":""run_exp/static/images/task_images/rocket-09.jpg"",""time"":7680}]",[],6,,,,,,,,,,,,,,
alien_welcome,173,752458,0.0-57.0-1.0,"""event"",""trial"",""time""
""focus"",""1"",""210""
""fullscreenenter"",""1"",""1240""
","
","""event"",""trial"",""time""
""focus"",""1"",""210""
","""event"",""trial"",""time""
""fullscreenenter"",""1"",""1240""
","
",,null,run_exp/static/images/task_images/aliens/old_aliens/planet/alien_planet-32.jpg,null,,,,,,,,,,,,,32,"53,5,30,29,9,54,32,34,31,65,28,57,22,62,74,26,15,72,21,46,27,39,69",,,,,,,,,,
land,174,752961,0.0-57.0-2.0,"""event"",""trial"",""time""
""focus"",""1"",""210""
""fullscreenenter"",""1"",""1240""
","
","""event"",""trial"",""time""
""focus"",""1"",""210""
","""event"",""trial"",""time""
""fullscreenenter"",""1"",""1240""
","
",,null,run_exp/static/images/task_images/land.jpg,null,,,,,,,92,,,7,,,,,,,,,,,,,,
dig,175,754984,0.0-57.0-3.0,"""event"",""trial"",""time""
""focus"",""1"",""210""
""fullscreenenter"",""1"",""1240""
","
","""event"",""trial"",""time""
""focus"",""1"",""210""
","""event"",""trial"",""time""
""fullscreenenter"",""1"",""1240""
","
",,,,,,,,,,,,"[{""stimulus"":""run_exp/static/images/task_images/dig.jpg"",""time"":1},{""stimulus"":""run_exp/static/images/task_images/land.jpg"",""time"":669},{""stimulus"":""run_exp/static/images/task_images/dig.jpg"",""time"":1337}]",[],7,,,,,,,,,,,,,,
harvest,176,755986,0.0-57.0-4.0,"""event"",""trial"",""time""
""focus"",""1"",""210""
""fullscreenenter"",""1"",""1240""
","
","""event"",""trial"",""time""
""focus"",""1"",""210""
","""event"",""trial"",""time""
""fullscreenenter"",""1"",""1240""
","
",,null,run_exp/static/images/task_images/gems/92.jpg,null,,,,,,,76,,,7,,,,,92,0.830963077,0.826086957,,,,,,,
decision,177,756870,0.0-57.0-5.0,"""event"",""trial"",""time""
""focus"",""1"",""210""
""fullscreenenter"",""1"",""1240""
","
","""event"",""trial"",""time""
""focus"",""1"",""210""
","""event"",""trial"",""time""
""fullscreenenter"",""1"",""1240""
","
",,883,run_exp/static/images/task_images/land.jpg,65,,,,,,,76,,,7,,,,,,,,212436,1,0,FALSE,,,
dig,178,759010,0.0-58.0-0.0,"""event"",""trial"",""time""
""focus"",""1"",""210""
""fullscreenenter"",""1"",""1240""
","
","""event"",""trial"",""time""
""focus"",""1"",""210""
","""event"",""trial"",""time""
""fullscreenenter"",""1"",""1240""
","
",,,,,,,,,,,,"[{""stimulus"":""run_exp/static/images/task_images/dig.jpg"",""time"":0},{""stimulus"":""run_exp/static/images/task_images/land.jpg"",""time"":707},{""stimulus"":""run_exp/static/images/task_images/dig.jpg"",""time"":1413}]",[],7,,,,,,,,,,,,,,
harvest,179,760012,0.0-58.0-1.0,"""event"",""trial"",""time""
""focus"",""1"",""210""
""fullscreenenter"",""1"",""1240""
","
","""event"",""trial"",""time""
""focus"",""1"",""210""
","""event"",""trial"",""time""
""fullscreenenter"",""1"",""1240""
","
",,null,run_exp/static/images/task_images/gems/76.jpg,null,,,,,,,56,,,7,,,,,76,0.732191974,0.736842105,,,,,,,
decision,180,760942,0.0-58.0-2.0,"""event"",""trial"",""time""
""focus"",""1"",""210""
""fullscreenenter"",""1"",""1240""
","
","""event"",""trial"",""time""
""focus"",""1"",""210""
","""event"",""trial"",""time""
""fullscreenenter"",""1"",""1240""
","
",,930,run_exp/static/images/task_images/land.jpg,65,,,,,,,56,,,7,,,,,,,,216508,1,1,FALSE,,,
dig,181,763036,0.0-59.0-0.0,"""event"",""trial"",""time""
""focus"",""1"",""210""
""fullscreenenter"",""1"",""1240""
","
","""event"",""trial"",""time""
""focus"",""1"",""210""
","""event"",""trial"",""time""
""fullscreenenter"",""1"",""1240""
","
",,,,,,,,,,,,"[{""stimulus"":""run_exp/static/images/task_images/dig.jpg"",""time"":0},{""stimulus"":""run_exp/static/images/task_images/land.jpg"",""time"":691},{""stimulus"":""run_exp/static/images/task_images/dig.jpg"",""time"":1382}]",[],7,,,,,,,,,,,,,,
harvest,182,764038,0.0-59.0-1.0,"""event"",""trial"",""time""
""focus"",""1"",""210""
""fullscreenenter"",""1"",""1240""
","
","""event"",""trial"",""time""
""focus"",""1"",""210""
","""event"",""trial"",""time""
""fullscreenenter"",""1"",""1240""
","
",,null,run_exp/static/images/task_images/gems/56.jpg,null,,,,,,,43,,,7,,,,,56,0.763509268,0.767857143,,,,,,,
decision,183,764678,0.0-59.0-2.0,"""event"",""trial"",""time""
""focus"",""1"",""210""
""fullscreenenter"",""1"",""1240""
","
","""event"",""trial"",""time""
""focus"",""1"",""210""
","""event"",""trial"",""time""
""fullscreenenter"",""1"",""1240""
","
",,639,run_exp/static/images/task_images/land.jpg,65,,,,,,,43,,,7,,,,,,,,220244,1,2,FALSE,,,
dig,184,767065,0.0-60.0-0.0,"""event"",""trial"",""time""
""focus"",""1"",""210""
""fullscreenenter"",""1"",""1240""
","
","""event"",""trial"",""time""
""focus"",""1"",""210""
","""event"",""trial"",""time""
""fullscreenenter"",""1"",""1240""
","
",,,,,,,,,,,,"[{""stimulus"":""run_exp/static/images/task_images/dig.jpg"",""time"":1},{""stimulus"":""run_exp/static/images/task_images/land.jpg"",""time"":790.0000000001164},{""stimulus"":""run_exp/static/images/task_images/dig.jpg"",""time"":1578}]",[],7,,,,,,,,,,,,,,
harvest,185,768066,0.0-60.0-1.0,"""event"",""trial"",""time""
""focus"",""1"",""210""
""fullscreenenter"",""1"",""1240""
","
","""event"",""trial"",""time""
""focus"",""1"",""210""
","""event"",""trial"",""time""
""fullscreenenter"",""1"",""1240""
","
",,null,run_exp/static/images/task_images/gems/43.jpg,null,,,,,,,33,,,7,,,,,43,0.763060296,0.76744186,,,,,,,
decision,186,769942,0.0-60.0-2.0,"""event"",""trial"",""time""
""focus"",""1"",""210""
""fullscreenenter"",""1"",""1240""
","
","""event"",""trial"",""time""
""focus"",""1"",""210""
","""event"",""trial"",""time""
""fullscreenenter"",""1"",""1240""
","
",,1875,run_exp/static/images/task_images/land.jpg,65,,,,,,,33,,,7,,,,,,,,225508,1,3,FALSE,,,
dig,187,771101,0.0-61.0-0.0,"""event"",""trial"",""time""
""focus"",""1"",""210""
""fullscreenenter"",""1"",""1240""
","
","""event"",""trial"",""time""
""focus"",""1"",""210""
","""event"",""trial"",""time""
""fullscreenenter"",""1"",""1240""
","
",,,,,,,,,,,,"[{""stimulus"":""run_exp/static/images/task_images/dig.jpg"",""time"":0},{""stimulus"":""run_exp/static/images/task_images/land.jpg"",""time"":377},{""stimulus"":""run_exp/static/images/task_images/dig.jpg"",""time"":757.0000000001164}]",[],7,,,,,,,,,,,,,,
harvest,188,772103,0.0-61.0-1.0,"""event"",""trial"",""time""
""focus"",""1"",""210""
""fullscreenenter"",""1"",""1240""
","
","""event"",""trial"",""time""
""focus"",""1"",""210""
","""event"",""trial"",""time""
""fullscreenenter"",""1"",""1240""
","
",,null,run_exp/static/images/task_images/gems/33.jpg,null,,,,,,,27,,,7,,,,,33,0.818483211,0.818181818,,,,,,,
decision,189,773766,0.0-61.0-2.0,"""event"",""trial"",""time""
""focus"",""1"",""210""
""fullscreenenter"",""1"",""1240""
","
","""event"",""trial"",""time""
""focus"",""1"",""210""
","""event"",""trial"",""time""
""fullscreenenter"",""1"",""1240""
","
",,1661,run_exp/static/images/task_images/land.jpg,65,,,,,,,27,,,7,,,,,,,,229332,1,4,FALSE,,,
dig,190,775130,0.0-62.0-0.0,"""event"",""trial"",""time""
""focus"",""1"",""210""
""fullscreenenter"",""1"",""1240""
","
","""event"",""trial"",""time""
""focus"",""1"",""210""
","""event"",""trial"",""time""
""fullscreenenter"",""1"",""1240""
","
",,,,,,,,,,,,"[{""stimulus"":""run_exp/static/images/task_images/dig.jpg"",""time"":0},{""stimulus"":""run_exp/static/images/task_images/land.jpg"",""time"":448},{""stimulus"":""run_exp/static/images/task_images/dig.jpg"",""time"":895}]",[],7,,,,,,,,,,,,,,
harvest,191,776132,0.0-62.0-1.0,"""event"",""trial"",""time""
""focus"",""1"",""210""
""fullscreenenter"",""1"",""1240""
","
","""event"",""trial"",""time""
""focus"",""1"",""210""
","""event"",""trial"",""time""
""fullscreenenter"",""1"",""1240""
","
",,null,run_exp/static/images/task_images/gems/27.jpg,null,,,,,,,22,,,7,,,,,27,0.807517666,0.814814815,,,,,,,
decision,192,777878,0.0-62.0-2.0,"""event"",""trial"",""time""
""focus"",""1"",""210""
""fullscreenenter"",""1"",""1240""
","
","""event"",""trial"",""time""
""focus"",""1"",""210""
","""event"",""trial"",""time""
""fullscreenenter"",""1"",""1240""
","
",,1745,run_exp/static/images/task_images/land.jpg,65,,,,,,,22,,,7,,,,,,,,233444,1,5,FALSE,,,
dig,193,779157,0.0-63.0-0.0,"""event"",""trial"",""time""
""focus"",""1"",""210""
""fullscreenenter"",""1"",""1240""
","
","""event"",""trial"",""time""
""focus"",""1"",""210""
","""event"",""trial"",""time""
""fullscreenenter"",""1"",""1240""
","
",,,,,,,,,,,,"[{""stimulus"":""run_exp/static/images/task_images/dig.jpg"",""time"":0},{""stimulus"":""run_exp/static/images/task_images/land.jpg"",""time"":420},{""stimulus"":""run_exp/static/images/task_images/dig.jpg"",""time"":839.0000000001164}]",[],7,,,,,,,,,,,,,,
harvest,194,780160,0.0-63.0-1.0,"""event"",""trial"",""time""
""focus"",""1"",""210""
""fullscreenenter"",""1"",""1240""
","
","""event"",""trial"",""time""
""focus"",""1"",""210""
","""event"",""trial"",""time""
""fullscreenenter"",""1"",""1240""
","
",,null,run_exp/static/images/task_images/gems/22.jpg,null,,,,,,,16,,,7,,,,,22,0.745585932,0.727272727,,,,,,,
decision,195,782046,0.0-63.0-2.0,"""event"",""trial"",""time""
""focus"",""1"",""210""
""fullscreenenter"",""1"",""1240""
","
","""event"",""trial"",""time""
""focus"",""1"",""210""
","""event"",""trial"",""time""
""fullscreenenter"",""1"",""1240""
","
",,1885,run_exp/static/images/task_images/land.jpg,65,,,,,,,16,,,7,,,,,,,,237612,1,6,FALSE,,,
dig,196,783185,0.0-64.0-0.0,"""event"",""trial"",""time""
""focus"",""1"",""210""
""fullscreenenter"",""1"",""1240""
","
","""event"",""trial"",""time""
""focus"",""1"",""210""
","""event"",""trial"",""time""
""fullscreenenter"",""1"",""1240""
","
",,,,,,,,,,,,"[{""stimulus"":""run_exp/static/images/task_images/dig.jpg"",""time"":0},{""stimulus"":""run_exp/static/images/task_images/land.jpg"",""time"":373.0000000001164},{""stimulus"":""run_exp/static/images/task_images/dig.jpg"",""time"":744}]",[],7,,,,,,,,,,,,,,
harvest,197,784186,0.0-64.0-1.0,"""event"",""trial"",""time""
""focus"",""1"",""210""
""fullscreenenter"",""1"",""1240""
","
","""event"",""trial"",""time""
""focus"",""1"",""210""
","""event"",""trial"",""time""
""fullscreenenter"",""1"",""1240""
","
",,null,run_exp/static/images/task_images/gems/16.jpg,null,,,,,,,13,,,7,,,,,16,0.837750168,0.8125,,,,,,,
decision,198,787188,0.0-64.0-2.0,"""event"",""trial"",""time""
""focus"",""1"",""210""
""fullscreenenter"",""1"",""1240""
","
","""event"",""trial"",""time""
""focus"",""1"",""210""
","""event"",""trial"",""time""
""fullscreenenter"",""1"",""1240""
","
",,null,run_exp/static/images/task_images/land.jpg,null,,,,,,,13,,,7,,,,,,,,242754,1,7,FALSE,,,
time_out,199,789195,0.0-65.0-0.0,"""event"",""trial"",""time""
""focus"",""1"",""210""
""fullscreenenter"",""1"",""1240""
","
","""event"",""trial"",""time""
""focus"",""1"",""210""
","""event"",""trial"",""time""
""fullscreenenter"",""1"",""1240""
","
",,null,run_exp/static/images/task_images/time_out.jpg,null,,,,,,,13,,,,,,,,,,,,,,,,,
decision,200,790166,0.0-65.0-1.0,"""event"",""trial"",""time""
""focus"",""1"",""210""
""fullscreenenter"",""1"",""1240""
","
","""event"",""trial"",""time""
""focus"",""1"",""210""
","""event"",""trial"",""time""
""fullscreenenter"",""1"",""1240""
","
",,970,run_exp/static/images/task_images/land.jpg,76,,,,,,,13,,,7,,,,,,,,245732,1,7,TRUE,,,
travel,201,799226,0.0-66.0-0.0,"""event"",""trial"",""time""
""focus"",""1"",""210""
""fullscreenenter"",""1"",""1240""
","
","""event"",""trial"",""time""
""focus"",""1"",""210""
","""event"",""trial"",""time""
""fullscreenenter"",""1"",""1240""
","
",,,,,,,,,,,,"[{""stimulus"":""run_exp/static/images/task_images/rocket-01.jpg"",""time"":1},{""stimulus"":""run_exp/static/images/task_images/rocket-02.jpg"",""time"":1005},{""stimulus"":""run_exp/static/images/task_images/rocket-03.jpg"",""time"":2009},{""stimulus"":""run_exp/static/images/task_images/rocket-04.jpg"",""time"":3014},{""stimulus"":""run_exp/static/images/task_images/rocket-05.jpg"",""time"":4018},{""stimulus"":""run_exp/static/images/task_images/rocket-06.jpg"",""time"":5022.000000000116},{""stimulus"":""run_exp/static/images/task_images/rocket-07.jpg"",""time"":6026},{""stimulus"":""run_exp/static/images/task_images/rocket-08.jpg"",""time"":7030},{""stimulus"":""run_exp/static/images/task_images/rocket-09.jpg"",""time"":8034}]",[],7,,,,,,,,,,,,,,
alien_welcome,202,804228,0.0-66.0-1.0,"""event"",""trial"",""time""
""focus"",""1"",""210""
""fullscreenenter"",""1"",""1240""
","
","""event"",""trial"",""time""
""focus"",""1"",""210""
","""event"",""trial"",""time""
""fullscreenenter"",""1"",""1240""
","
",,null,run_exp/static/images/task_images/aliens/old_aliens/planet/alien_planet-34.jpg,null,,,,,,,,,,,,,34,"53,5,30,29,9,54,32,34,31,65,28,57,22,62,74,26,15,72,21,46,27,39,69",,,,,,,,,,
land,203,804730,0.0-66.0-2.0,"""event"",""trial"",""time""
""focus"",""1"",""210""
""fullscreenenter"",""1"",""1240""
","
","""event"",""trial"",""time""
""focus"",""1"",""210""
","""event"",""trial"",""time""
""fullscreenenter"",""1"",""1240""
","
",,null,run_exp/static/images/task_images/land.jpg,null,,,,,,,103,,,8,,,,,,,,,,,,,,
dig,204,806753,0.0-66.0-3.0,"""event"",""trial"",""time""
""focus"",""1"",""210""
""fullscreenenter"",""1"",""1240""
","
","""event"",""trial"",""time""
""focus"",""1"",""210""
","""event"",""trial"",""time""
""fullscreenenter"",""1"",""1240""
","
",,,,,,,,,,,,"[{""stimulus"":""run_exp/static/images/task_images/dig.jpg"",""time"":0},{""stimulus"":""run_exp/static/images/task_images/land.jpg"",""time"":668},{""stimulus"":""run_exp/static/images/task_images/dig.jpg"",""time"":1336}]",[],8,,,,,,,,,,,,,,
harvest,205,807755,0.0-66.0-4.0,"""event"",""trial"",""time""
""focus"",""1"",""210""
""fullscreenenter"",""1"",""1240""
","
","""event"",""trial"",""time""
""focus"",""1"",""210""
","""event"",""trial"",""time""
""fullscreenenter"",""1"",""1240""
","
",,null,run_exp/static/images/task_images/gems/103.jpg,null,,,,,,,79,,,8,,,,,103,0.766470296,0.766990291,,,,,,,
decision,206,809638,0.0-66.0-5.0,"""event"",""trial"",""time""
""focus"",""1"",""210""
""fullscreenenter"",""1"",""1240""
","
","""event"",""trial"",""time""
""focus"",""1"",""210""
","""event"",""trial"",""time""
""fullscreenenter"",""1"",""1240""
","
",,1882,run_exp/static/images/task_images/land.jpg,65,,,,,,,79,,,8,,,,,,,,265204,1,0,FALSE,,,
dig,207,810779,0.0-67.0-0.0,"""event"",""trial"",""time""
""focus"",""1"",""210""
""fullscreenenter"",""1"",""1240""
","
","""event"",""trial"",""time""
""focus"",""1"",""210""
","""event"",""trial"",""time""
""fullscreenenter"",""1"",""1240""
","
",,,,,,,,,,,,"[{""stimulus"":""run_exp/static/images/task_images/dig.jpg"",""time"":0},{""stimulus"":""run_exp/static/images/task_images/land.jpg"",""time"":374},{""stimulus"":""run_exp/static/images/task_images/dig.jpg"",""time"":748.0000000001164}]",[],8,,,,,,,,,,,,,,
harvest,208,811781,0.0-67.0-1.0,"""event"",""trial"",""time""
""focus"",""1"",""210""
""fullscreenenter"",""1"",""1240""
","
","""event"",""trial"",""time""
""focus"",""1"",""210""
","""event"",""trial"",""time""
""fullscreenenter"",""1"",""1240""
","
",,null,run_exp/static/images/task_images/gems/79.jpg,null,,,,,,,59,,,8,,,,,79,0.751755017,0.746835443,,,,,,,
decision,209,814478,0.0-67.0-2.0,"""event"",""trial"",""time""
""focus"",""1"",""210""
""fullscreenenter"",""1"",""1240""
","
","""event"",""trial"",""time""
""focus"",""1"",""210""
","""event"",""trial"",""time""
""fullscreenenter"",""1"",""1240""
","
",,2696,run_exp/static/images/task_images/land.jpg,65,,,,,,,59,,,8,,,,,,,,270044,1,1,FALSE,,,
dig,210,815028,0.0-68.0-0.0,"""event"",""trial"",""time""
""focus"",""1"",""210""
""fullscreenenter"",""1"",""1240""
","
","""event"",""trial"",""time""
""focus"",""1"",""210""
","""event"",""trial"",""time""
""fullscreenenter"",""1"",""1240""
","
",,,,,,,,,,,,"[{""stimulus"":""run_exp/static/images/task_images/dig.jpg"",""time"":1},{""stimulus"":""run_exp/static/images/task_images/land.jpg"",""time"":324},{""stimulus"":""run_exp/static/images/task_images/dig.jpg"",""time"":426}]",[],8,,,,,,,,,,,,,,
harvest,211,816030,0.0-68.0-1.0,"""event"",""trial"",""time""
""focus"",""1"",""210""
""fullscreenenter"",""1"",""1240""
","
","""event"",""trial"",""time""
""focus"",""1"",""210""
","""event"",""trial"",""time""
""fullscreenenter"",""1"",""1240""
","
",,null,run_exp/static/images/task_images/gems/59.jpg,null,,,,,,,42,,,8,,,,,59,0.716870361,0.711864407,,,,,,,
decision,212,816950,0.0-68.0-2.0,"""event"",""trial"",""time""
""focus"",""1"",""210""
""fullscreenenter"",""1"",""1240""
","
","""event"",""trial"",""time""
""focus"",""1"",""210""
","""event"",""trial"",""time""
""fullscreenenter"",""1"",""1240""
","
",,919,run_exp/static/images/task_images/land.jpg,65,,,,,,,42,,,8,,,,,,,,272516,1,2,FALSE,,,
dig,213,819053,0.0-69.0-0.0,"""event"",""trial"",""time""
""focus"",""1"",""210""
""fullscreenenter"",""1"",""1240""
","
","""event"",""trial"",""time""
""focus"",""1"",""210""
","""event"",""trial"",""time""
""fullscreenenter"",""1"",""1240""
","
",,,,,,,,,,,,"[{""stimulus"":""run_exp/static/images/task_images/dig.jpg"",""time"":0},{""stimulus"":""run_exp/static/images/task_images/land.jpg"",""time"":695},{""stimulus"":""run_exp/static/images/task_images/dig.jpg"",""time"":1388.0000000001164}]",[],8,,,,,,,,,,,,,,
harvest,214,820055,0.0-69.0-1.0,"""event"",""trial"",""time""
""focus"",""1"",""210""
""fullscreenenter"",""1"",""1240""
","
","""event"",""trial"",""time""
""focus"",""1"",""210""
","""event"",""trial"",""time""
""fullscreenenter"",""1"",""1240""
","
",,null,run_exp/static/images/task_images/gems/42.jpg,null,,,,,,,36,,,8,,,,,42,0.860377275,0.857142857,,,,,,,
decision,215,821166,0.0-69.0-2.0,"""event"",""trial"",""time""
