trial_type,trial_index,time_elapsed,internal_node_id,interactions,blur_events,focus_events,fullscreenenter_events,fullscreenexit_events,success,rt,stimulus,key_press,prompt,subject_id,participant_id,age,gender,button_pressed,next_reward,animation_sequence,responses,planet,curr_prac_trial,n_prac_rounds,alien,aliens,reward_received,decay_rate_actual,decay_rate_exp,time_in_block,block_num,prt,last_trial_on_planet,button_html,bonus,num_failures
pavlovia,0,11,0.0-0.0,"""event"",""trial"",""time""
""fullscreenenter"",""1"",""10272""
","
","
","""event"",""trial"",""time""
""fullscreenenter"",""1"",""10272""
","
",,,,,,,,,,,,,,,,,,,,,,,,,,,,
fullscreen,1,11251,0.0-1.0,"""event"",""trial"",""time""
""fullscreenenter"",""1"",""10272""
","
","
","""event"",""trial"",""time""
""fullscreenenter"",""1"",""10272""
","
",TRUE,,,,,,,,,,,,,,,,,,,,,,,,,,,
instruc_welcome,2,21274,0.0-2.0,"""event"",""trial"",""time""
""fullscreenenter"",""1"",""10272""
","
","
","""event"",""trial"",""time""
""fullscreenenter"",""1"",""10272""
","
",,null,run_exp/static/audio/clip_1_welcome.m4a,null,"<p>Howdy! In this experiment, you’ll be an explorer traveling through space to collect space treasure.</p><p>Your mission is to collect as much treasure as possible.</p><br><br><p><img src='run_exp/static/images/task_images/opening_img-01.jpg' height='300' width='auto'></p>",14297,1403,10.25,Female,,,,,,,,,,,,,,,,,,,
audio-keyboard-response,3,37890,0.0-3.0,"""event"",""trial"",""time""
""fullscreenenter"",""1"",""10272""
","
","
","""event"",""trial"",""time""
""fullscreenenter"",""1"",""10272""
","
",,null,run_exp/static/audio/clip_2_move.m4a,null,,,,,,,,,,,,,,,,,,,,,,,,
welcome_dec,4,47102,0.0-4.0,"""event"",""trial"",""time""
""fullscreenenter"",""1"",""10272""
","
","
","""event"",""trial"",""time""
""fullscreenenter"",""1"",""10272""
","
",,9208.6,"<p>Howdy! In this experiment, you’ll be an explorer traveling through space to collect space treasure.</p><p>Your mission is to collect as much treasure as possible.</p><br><br><p><img src='run_exp/static/images/task_images/opening_img-01.jpg' height='300' width='auto'></p>",,,,,,,1,,,,,,,,,,,,,,,,,,
html-keyboard-response,5,48955,0.0-5.0,"""event"",""trial"",""time""
""fullscreenenter"",""1"",""10272""
","
","
","""event"",""trial"",""time""
""fullscreenenter"",""1"",""10272""
","
",,1851.1,"<p>Howdy! In this experiment, you’ll be an explorer traveling through space to collect space treasure.</p><p>Your mission is to collect as much treasure as possible.</p><br><br><p><img src='run_exp/static/images/task_images/opening_img-01.jpg' height='300' width='auto'></p><button class=""jspsych-html-btn-unchosen""><img src=""run_exp/static/images/task_images/planet-01.jpg"" height=""50""></button><button class=""jspsych-html-btn-chosen""><img src=""run_exp/static/images/task_images/planet-02.jpg"" height=""50""></button><p><b>[press the space bar to lock in your answer]<b><br></p>",32,,,,,,,,,,,,,,,,,,,,,,,,
instruc_goal,6,59017,0.0-6.0-0.0,"""event"",""trial"",""time""
""fullscreenenter"",""1"",""10272""
","
","
","""event"",""trial"",""time""
""fullscreenenter"",""1"",""10272""
","
",,null,run_exp/static/audio/clip_3_goal.m4a,null,"<p> As a space explorer, you’ll visit different planets to dig for space treasure, these pink gems.</p> <p> The more treasure you dig up, the more bonus money you’ll win! </p><br><br><p><img src='run_exp/static/images/task_images/pink_gem.jpg' height='300' width='auto'></p>",,,,,,,,,,,,,,,,,,,,,,,
instruc_goal,7,60716,0.0-6.0-1.0,"""event"",""trial"",""time""
""fullscreenenter"",""1"",""10272""
","
","
","""event"",""trial"",""time""
""fullscreenenter"",""1"",""10272""
","
",,1696.5,"<p> As a space explorer, you’ll visit different planets to dig for space treasure, these pink gems.</p> <p> The more treasure you dig up, the more bonus money you’ll win! </p><br><br><p><img src='run_exp/static/images/task_images/pink_gem.jpg' height='300' width='auto'></p>",,,,,,,1,,,,,,,,,,,,,,,,,,
html-keyboard-response,8,62261,0.0-6.0-2.0,"""event"",""trial"",""time""
""fullscreenenter"",""1"",""10272""
","
","
","""event"",""trial"",""time""
""fullscreenenter"",""1"",""10272""
","
",,1543.6,"<p> As a space explorer, you’ll visit different planets to dig for space treasure, these pink gems.</p> <p> The more treasure you dig up, the more bonus money you’ll win! </p><br><br><p><img src='run_exp/static/images/task_images/pink_gem.jpg' height='300' width='auto'></p><button class=""jspsych-html-btn-unchosen""><img src=""run_exp/static/images/task_images/planet-01.jpg"" height=""50""></button><button class=""jspsych-html-btn-chosen""><img src=""run_exp/static/images/task_images/planet-02.jpg"" height=""50""></button><p><b>[press the space bar to lock in your answer]<b><br></p>",32,,,,,,,,,,,,,,,,,,,,,,,,
instruc_dig,9,78298,0.0-7.0-0.0,"""event"",""trial"",""time""
""fullscreenenter"",""1"",""10272""
","
","
","""event"",""trial"",""time""
""fullscreenenter"",""1"",""10272""
","
",,null,run_exp/static/audio/clip_4_dig.m4a,null,,,,,,,100,,,,,,,,,,,,,,,,,
instruc_dig_try,10,79836,0.0-7.0-1.0,"""event"",""trial"",""time""
""fullscreenenter"",""1"",""10272""
","
","
","""event"",""trial"",""time""
""fullscreenenter"",""1"",""10272""
","
",,1536.3,"<p> When you’ve arrived at a new planet, you will dig once. </p> <p>Then, you get to decide if you want to stay on the planet and dig again or travel to a new planet and dig there.</p> <p> To stay and dig, press the letter <strong>‘A’</strong> on your keyboard. Try pressing it now! </p><p><img src='run_exp/static/images/task_images/land.jpg'  height='700' width='auto'></p>",65,"<p> When you’ve arrived at a new planet, you will dig once. </p> <p>Then, you get to decide if you want to stay on the planet and dig again or travel to a new planet and dig there.</p> <p> To stay and dig, press the letter <strong>‘A’</strong> on your keyboard. Try pressing it now! </p><p><img src='run_exp/static/images/task_images/land.jpg'  height='700' width='auto'></p>",,,,,,100,,,,,,,,,,,,,,,,,
dig_prac,11,81866,0.0-7.0-2.0,"""event"",""trial"",""time""
""fullscreenenter"",""1"",""10272""
","
","
","""event"",""trial"",""time""
""fullscreenenter"",""1"",""10272""
","
",,,,,,,,,,,,"[{""stimulus"":""run_exp/static/images/task_images/dig.jpg"",""time"":0.6999999999534339},{""stimulus"":""run_exp/static/images/task_images/land.jpg"",""time"":670},{""stimulus"":""run_exp/static/images/task_images/dig.jpg"",""time"":1343}]",[],,,,,,,,,,,,,,,
instruc_travel,12,118138,0.0-7.0-3.0,"""event"",""trial"",""time""
""fullscreenenter"",""1"",""10272""
","
","
","""event"",""trial"",""time""
""fullscreenenter"",""1"",""10272""
","
",,null,run_exp/static/audio/clip_5_travel.m4a,null,"<p>Every time you dig up gems, there are less gems on the planet, so the more you dig on a planet the fewer gems you’ll get with each dig.</p><p>When gems are running low, you may want to travel to a new planet. </p> <p>  Planets are very far apart in this galaxy, so it will take some time to travel between them. </p> <br><p>There are lots and lots of planets for you to visit, so you won’t be able to return to any planets you’ve seen before. </p><br><p>To leave this planet and travel to a new one, press the letter <strong>‘L’</strong> on your keyboard. Try pressing it now! </p><p><img src='run_exp/static/images/task_images/rocket-01.jpg'  height='600' width='auto'></p>",,,,,,,,,,,,,,,,,,,,,,,
instruc_travel_try,13,119815,0.0-7.0-4.0,"""event"",""trial"",""time""
""fullscreenenter"",""1"",""10272""
","
","
","""event"",""trial"",""time""
""fullscreenenter"",""1"",""10272""
","
",,1673,"<p>Every time you dig up gems, there are less gems on the planet, so the more you dig on a planet the fewer gems you’ll get with each dig.</p><p>When gems are running low, you may want to travel to a new planet. </p> <p>  Planets are very far apart in this galaxy, so it will take some time to travel between them. </p> <br><p>There are lots and lots of planets for you to visit, so you won’t be able to return to any planets you’ve seen before. </p><br><p>To leave this planet and travel to a new one, press the letter <strong>‘L’</strong> on your keyboard. Try pressing it now! </p><p><img src='run_exp/static/images/task_images/rocket-01.jpg'  height='600' width='auto'></p>",76,"<p>Every time you dig up gems, there are less gems on the planet, so the more you dig on a planet the fewer gems you’ll get with each dig.</p><p>When gems are running low, you may want to travel to a new planet. </p> <p>  Planets are very far apart in this galaxy, so it will take some time to travel between them. </p> <br><p>There are lots and lots of planets for you to visit, so you won’t be able to return to any planets you’ve seen before. </p><br><p>To leave this planet and travel to a new one, press the letter <strong>‘L’</strong> on your keyboard. Try pressing it now! </p><p><img src='run_exp/static/images/task_images/rocket-01.jpg'  height='600' width='auto'></p>",,,,,,,,,,,,,,,,,,,,,,,
travel_prac,14,129825,0.0-7.0-5.0,"""event"",""trial"",""time""
""fullscreenenter"",""1"",""10272""
","
","
","""event"",""trial"",""time""
""fullscreenenter"",""1"",""10272""
","
",,,,,,,,,,,,"[{""stimulus"":""run_exp/static/images/task_images/rocket-01.jpg"",""time"":0.40000000002328306},{""stimulus"":""run_exp/static/images/task_images/rocket-02.jpg"",""time"":1118.2000000000698},{""stimulus"":""run_exp/static/images/task_images/rocket-03.jpg"",""time"":2228.20000000007},{""stimulus"":""run_exp/static/images/task_images/rocket-04.jpg"",""time"":3338.4000000000233},{""stimulus"":""run_exp/static/images/task_images/rocket-05.jpg"",""time"":4458.5},{""stimulus"":""run_exp/static/images/task_images/rocket-06.jpg"",""time"":5568.300000000047},{""stimulus"":""run_exp/static/images/task_images/rocket-07.jpg"",""time"":6677.900000000023},{""stimulus"":""run_exp/static/images/task_images/rocket-08.jpg"",""time"":7788.20000000007},{""stimulus"":""run_exp/static/images/task_images/rocket-09.jpg"",""time"":8897.900000000023}]",[],0,,,,,,,,,,,,,,
instruc_alien_greet,15,157028,0.0-7.0-6.0,"""event"",""trial"",""time""
""fullscreenenter"",""1"",""10272""
","
","
","""event"",""trial"",""time""
""fullscreenenter"",""1"",""10272""
","
",,null,run_exp/static/audio/clip_6_alien.m4a,null,"<p>When you arrive at a new planet, the alien who owns the treasure mine on that planet will greet you!</p><p>The better an alien takes care of their mine the easier it is to dig for gems. Some aliens take better care of their mine than others. So, you won’t get exactly the same amount of gems on each planet.</p><p>What the alien looks like does not tell you anything about how many gems there are on the planet.</p><br><p><img src=""run_exp/static/images/task_images/aliens/instructions_aliens/planet/alien_planet-1.jpg""  height=""600"" width=""auto""></p>",,,,,,,,,,,,,,,,,,,,,,,
instruc_alien_greet,16,162488,0.0-7.0-7.0,"""event"",""trial"",""time""
""fullscreenenter"",""1"",""10272""
","
","
","""event"",""trial"",""time""
""fullscreenenter"",""1"",""10272""
","
",,5456.5,"<p>When you arrive at a new planet, the alien who owns the treasure mine on that planet will greet you!</p><p>The better an alien takes care of their mine the easier it is to dig for gems. Some aliens take better care of their mine than others. So, you won’t get exactly the same amount of gems on each planet.</p><p>What the alien looks like does not tell you anything about how many gems there are on the planet.</p><br><p><img src=""run_exp/static/images/task_images/aliens/instructions_aliens/planet/alien_planet-1.jpg""  height=""600"" width=""auto""></p>",,,,,,,1,,,,,,,,,,,,,,,,,,
html-keyboard-response,17,166667,0.0-7.0-8.0,"""event"",""trial"",""time""
""fullscreenenter"",""1"",""10272""
","
","
","""event"",""trial"",""time""
""fullscreenenter"",""1"",""10272""
","
",,4178,"<p>When you arrive at a new planet, the alien who owns the treasure mine on that planet will greet you!</p><p>The better an alien takes care of their mine the easier it is to dig for gems. Some aliens take better care of their mine than others. So, you won’t get exactly the same amount of gems on each planet.</p><p>What the alien looks like does not tell you anything about how many gems there are on the planet.</p><br><p><img src=""run_exp/static/images/task_images/aliens/instructions_aliens/planet/alien_planet-1.jpg""  height=""600"" width=""auto""></p><button class=""jspsych-html-btn-unchosen""><img src=""run_exp/static/images/task_images/planet-01.jpg"" height=""50""></button><button class=""jspsych-html-btn-chosen""><img src=""run_exp/static/images/task_images/planet-02.jpg"" height=""50""></button><p><b>[press the space bar to lock in your answer]<b><br></p>",32,,,,,,,,,,,,,,,,,,,,,,,,
time_out,18,177746,0.0-8.0-0.0,"""event"",""trial"",""time""
""fullscreenenter"",""1"",""10272""
","
","
","""event"",""trial"",""time""
""fullscreenenter"",""1"",""10272""
","
",,null,run_exp/static/audio/clip_7_timeout.m4a,null,"<p>If you don't make your choice fast enough, you’ll have to wait a few seconds before you can make another one.</p><p>You can’t dig for more gems or travel to new planets. You just have to sit and wait.</p><br><p><img src='run_exp/static/images/task_images/time_out.jpg'  height='600' width='auto'></p>",,,,,,,,,,,,,,,,,,,,,,,
time_out,19,179031,0.0-8.0-1.0,"""event"",""trial"",""time""
""fullscreenenter"",""1"",""10272""
","
","
","""event"",""trial"",""time""
""fullscreenenter"",""1"",""10272""
","
",,1281.5,"<p>If you don't make your choice fast enough, you’ll have to wait a few seconds before you can make another one.</p><p>You can’t dig for more gems or travel to new planets. You just have to sit and wait.</p><br><p><img src='run_exp/static/images/task_images/time_out.jpg'  height='600' width='auto'></p>",,,,,,,1,,,,,,,,,,,,,,,,,,
html-keyboard-response,20,181350,0.0-8.0-2.0,"""event"",""trial"",""time""
""fullscreenenter"",""1"",""10272""
","
","
","""event"",""trial"",""time""
""fullscreenenter"",""1"",""10272""
","
",,2317,"<p>If you don't make your choice fast enough, you’ll have to wait a few seconds before you can make another one.</p><p>You can’t dig for more gems or travel to new planets. You just have to sit and wait.</p><br><p><img src='run_exp/static/images/task_images/time_out.jpg'  height='600' width='auto'></p><button class=""jspsych-html-btn-unchosen""><img src=""run_exp/static/images/task_images/planet-01.jpg"" height=""50""></button><button class=""jspsych-html-btn-chosen""><img src=""run_exp/static/images/task_images/planet-02.jpg"" height=""50""></button><p><b>[press the space bar to lock in your answer]<b><br></p>",32,,,,,,,,,,,,,,,,,,,,,,,,
instruc_break,21,197009,0.0-9.0-0.0,"""event"",""trial"",""time""
""fullscreenenter"",""1"",""10272""
","
","
","""event"",""trial"",""time""
""fullscreenenter"",""1"",""10272""
","
",,null,run_exp/static/audio/clip_8_break.m4a,null,"<p> After digging and traveling for a while, you’ll be able to take a break at home base. </p><p>The game will last 20 minutes no matter what.</p><p>You will visit home base every 5 minutes, so, you will visit home base three times during the game.</p><br><p><img src='run_exp/static/images/task_images/home_base.jpg' height='600' width='auto'></p>",,,,,,,,,,,,,,,,,,,,,,,
instruc_break,22,198768,0.0-9.0-1.0,"""event"",""trial"",""time""
""fullscreenenter"",""1"",""10272""
","
","
","""event"",""trial"",""time""
""fullscreenenter"",""1"",""10272""
","
",,1752.4,"<p> After digging and traveling for a while, you’ll be able to take a break at home base. </p><p>The game will last 20 minutes no matter what.</p><p>You will visit home base every 5 minutes, so, you will visit home base three times during the game.</p><br><p><img src='run_exp/static/images/task_images/home_base.jpg' height='600' width='auto'></p>",,,,,,,1,,,,,,,,,,,,,,,,,,
html-keyboard-response,23,202360,0.0-9.0-2.0,"""event"",""trial"",""time""
""fullscreenenter"",""1"",""10272""
","
","
","""event"",""trial"",""time""
""fullscreenenter"",""1"",""10272""
","
",,3586.3,"<p> After digging and traveling for a while, you’ll be able to take a break at home base. </p><p>The game will last 20 minutes no matter what.</p><p>You will visit home base every 5 minutes, so, you will visit home base three times during the game.</p><br><p><img src='run_exp/static/images/task_images/home_base.jpg' height='600' width='auto'></p><button class=""jspsych-html-btn-unchosen""><img src=""run_exp/static/images/task_images/planet-01.jpg"" height=""50""></button><button class=""jspsych-html-btn-chosen""><img src=""run_exp/static/images/task_images/planet-02.jpg"" height=""50""></button><p><b>[press the space bar to lock in your answer]<b><br></p>",32,,,,,,,,,,,,,,,,,,,,,,,,
instruc_prac_game,24,212488,0.0-10.0-0.0,"""event"",""trial"",""time""
""fullscreenenter"",""1"",""10272""
","
","
","""event"",""trial"",""time""
""fullscreenenter"",""1"",""10272""
","
",,null,run_exp/static/audio/clip_9_practice.m4a,null,"<p> Are you ready to play a practice game? </p> <p>In this practice game, you'll be digging up barrels of gems. But, in the real game, you'll be digging up the gems themselves. </p>",,,,,,,,,,,,,,,,,,,,,,,
html-button-response,25,214808,0.0-10.0-1.0,"""event"",""trial"",""time""
""fullscreenenter"",""1"",""10272""
","
","
","""event"",""trial"",""time""
""fullscreenenter"",""1"",""10272""
","
",,2318.3,"<p> Are you ready to play a practice game? </p> <p>In this practice game, you'll be digging up barrels of gems. But, in the real game, you'll be digging up the gems themselves. </p>",,,,,,,0,,,,,,,,,,,,,,,,,,
alien_welcome_prac,26,219816,0.0-11.0-0.0,"""event"",""trial"",""time""
""fullscreenenter"",""1"",""10272""
","
","
","""event"",""trial"",""time""
""fullscreenenter"",""1"",""10272""
","
",,null,run_exp/static/images/task_images/aliens/practice_aliens/planet/alien_planet-5.jpg,null,,,,,,,,,,,,,,,,,,,,,,,,
land_prac,27,220326,0.0-11.0-1.0,"""event"",""trial"",""time""
""fullscreenenter"",""1"",""10272""
","
","
","""event"",""trial"",""time""
""fullscreenenter"",""1"",""10272""
","
",,null,run_exp/static/images/task_images/land.jpg,null,,,,,,,102,,,0,,,,,,,,,,,,,,
dig_prac,28,222335,0.0-11.0-2.0,"""event"",""trial"",""time""
""fullscreenenter"",""1"",""10272""
","
","
","""event"",""trial"",""time""
""fullscreenenter"",""1"",""10272""
","
",,,,,,,,,,,,"[{""stimulus"":""run_exp/static/images/task_images/dig.jpg"",""time"":0.5},{""stimulus"":""run_exp/static/images/task_images/land.jpg"",""time"":677.4000000000233},{""stimulus"":""run_exp/static/images/task_images/dig.jpg"",""time"":1337.2999999999302}]",[],,,,,,,,,,,,,,,
harvest_prac,29,223346,0.0-11.0-3.0,"""event"",""trial"",""time""
""fullscreenenter"",""1"",""10272""
","
","
","""event"",""trial"",""time""
""fullscreenenter"",""1"",""10272""
","
",,null,run_exp/static/images/task_images/barrel_text.jpg,null,,,,,,,,,,,,,,,,,,,,,,,,
decision_prac,30,226355,0.0-11.0-4.0,"""event"",""trial"",""time""
""fullscreenenter"",""1"",""10272""
","
","
","""event"",""trial"",""time""
""fullscreenenter"",""1"",""10272""
","
",,null,run_exp/static/images/task_images/land.jpg,null,,,,,,,,,,,1,,,,,,,,,,,,,
time_out,31,228375,0.0-12.0-0.0,"""event"",""trial"",""time""
""fullscreenenter"",""1"",""10272""
","
","
","""event"",""trial"",""time""
""fullscreenenter"",""1"",""10272""
","
",,null,run_exp/static/images/task_images/time_out.jpg,null,,,,,,,,,,,,,,,,,,,,,,,,
decision_prac,32,228951,0.0-12.0-1.0,"""event"",""trial"",""time""
""fullscreenenter"",""1"",""10272""
","
","
","""event"",""trial"",""time""
""fullscreenenter"",""1"",""10272""
","
",,572.9,run_exp/static/images/task_images/land.jpg,65,,,,,,,,,,,2,,,,,,,,,,,,,
dig_prac,33,230975,0.0-13.0-0.0,"""event"",""trial"",""time""
""fullscreenenter"",""1"",""10272""
","
","
","""event"",""trial"",""time""
""fullscreenenter"",""1"",""10272""
","
",,,,,,,,,,,,"[{""stimulus"":""run_exp/static/images/task_images/dig.jpg"",""time"":0.30000000004656613},{""stimulus"":""run_exp/static/images/task_images/land.jpg"",""time"":678.2000000000698},{""stimulus"":""run_exp/static/images/task_images/dig.jpg"",""time"":1338.6000000000931}]",[],,,,,,,,,,,,,,,
harvest_prac,34,231995,0.0-13.0-1.0,"""event"",""trial"",""time""
""fullscreenenter"",""1"",""10272""
","
","
","""event"",""trial"",""time""
""fullscreenenter"",""1"",""10272""
","
",,null,run_exp/static/images/task_images/barrel_text.jpg,null,,,,,,,,,,,,,,,,,,,,,,,,
decision_prac,35,232715,0.0-13.0-2.0,"""event"",""trial"",""time""
""fullscreenenter"",""1"",""10272""
","
","
","""event"",""trial"",""time""
""fullscreenenter"",""1"",""10272""
","
",,717.3,run_exp/static/images/task_images/land.jpg,65,,,,,,,,,,,3,,,,,,,,,,,,,
dig_prac,36,234735,0.0-14.0-0.0,"""event"",""trial"",""time""
""fullscreenenter"",""1"",""10272""
","
","
","""event"",""trial"",""time""
""fullscreenenter"",""1"",""10272""
","
",,,,,,,,,,,,"[{""stimulus"":""run_exp/static/images/task_images/dig.jpg"",""time"":0.40000000002328306},{""stimulus"":""run_exp/static/images/task_images/land.jpg"",""time"":672.9000000000233},{""stimulus"":""run_exp/static/images/task_images/dig.jpg"",""time"":1342.5999999999767}]",[],,,,,,,,,,,,,,,
harvest_prac,37,235745,0.0-14.0-1.0,"""event"",""trial"",""time""
""fullscreenenter"",""1"",""10272""
","
","
","""event"",""trial"",""time""
""fullscreenenter"",""1"",""10272""
","
",,null,run_exp/static/images/task_images/barrel_text.jpg,null,,,,,,,,,,,,,,,,,,,,,,,,
decision_prac,38,235884,0.0-14.0-2.0,"""event"",""trial"",""time""
""fullscreenenter"",""1"",""10272""
","
","
","""event"",""trial"",""time""
""fullscreenenter"",""1"",""10272""
","
",,137.6,run_exp/static/images/task_images/land.jpg,65,,,,,,,,,,,4,,,,,,,,,,,,,
dig_prac,39,237905,0.0-15.0-0.0,"""event"",""trial"",""time""
""fullscreenenter"",""1"",""10272""
","
","
","""event"",""trial"",""time""
""fullscreenenter"",""1"",""10272""
","
",,,,,,,,,,,,"[{""stimulus"":""run_exp/static/images/task_images/dig.jpg"",""time"":0.2000000000698492},{""stimulus"":""run_exp/static/images/task_images/land.jpg"",""time"":678.2000000000698},{""stimulus"":""run_exp/static/images/task_images/dig.jpg"",""time"":1338.8000000000466}]",[],,,,,,,,,,,,,,,
harvest_prac,40,238916,0.0-15.0-1.0,"""event"",""trial"",""time""
""fullscreenenter"",""1"",""10272""
","
","
","""event"",""trial"",""time""
""fullscreenenter"",""1"",""10272""
","
",,null,run_exp/static/images/task_images/barrel_text.jpg,null,,,,,,,,,,,,,,,,,,,,,,,,
decision_prac,41,239313,0.0-15.0-2.0,"""event"",""trial"",""time""
""fullscreenenter"",""1"",""10272""
","
","
","""event"",""trial"",""time""
""fullscreenenter"",""1"",""10272""
","
",,395.6,run_exp/static/images/task_images/land.jpg,65,,,,,,,,,,,,1,,,,,,,,,,,,
quiz_instruc,42,242548,0.0-16.0-0.0,"""event"",""trial"",""time""
""fullscreenenter"",""1"",""10272""
","
","
","""event"",""trial"",""time""
""fullscreenenter"",""1"",""10272""
","
",,3229.9,run_exp/static/audio/clip_10_quiz.m4a,,,,,,,0,,,,,,,,,,,,,,,,,,
instruc_repeat,43,285326,0.0-16.0-1.0,"""event"",""trial"",""time""
""fullscreenenter"",""1"",""10272""
","
","
","""event"",""trial"",""time""
""fullscreenenter"",""1"",""10272""
","
",,null,"<p> Are you ready to play a practice game? </p> <p>In this practice game, you'll be digging up barrels of gems. But, in the real game, you'll be digging up the gems themselves. </p>",null,"<p>In this game, your goal is to collect as many gems as you can. That’s how you will win bonus money. </p> <p>The entire game will last 20 minutes no matter how many gems you collect or how many planets you visit. </p><p>To stay on a planet and dig again, press the letter A on your keyboard. To leave for a new planet, press the letter L.</p><p>The more you dig on a planet, the fewer gems you’ll get with each dig which is why you might consider leaving for a new planet. </p><p>When you arrive at a new planet, you’ll be greeted by an alien. What the alien looks like does not tell you anything about how much treasure is on the planet. </p>",,,,,,,,,,,,,,,,,,,,,,,
instruc_repeat_continue,44,286467,0.0-16.0-2.0,"""event"",""trial"",""time""
""fullscreenenter"",""1"",""10272""
","
","
","""event"",""trial"",""time""
""fullscreenenter"",""1"",""10272""
","
",,1139.2,"<p> Are you ready to play a practice game? </p> <p>In this practice game, you'll be digging up barrels of gems. But, in the real game, you'll be digging up the gems themselves. </p>",,,,,,,0,,,,,,,,,,,,,,,,,,
quiz_q_1_ask,45,290331,0.0-16.0-3.0,"""event"",""trial"",""time""
""fullscreenenter"",""1"",""10272""
","
","
","""event"",""trial"",""time""
""fullscreenenter"",""1"",""10272""
","
",,3861.3,run_exp/static/audio/clip_11_q1_ask.m4a,,,,,,,2,,,,,,,,,,,,,,,,,,
quiz_q_1_fb_correct,46,294208,0.0-17.0-0.0,"""event"",""trial"",""time""
""fullscreenenter"",""1"",""10272""
","
","
","""event"",""trial"",""time""
""fullscreenenter"",""1"",""10272""
","
",,null,run_exp/static/audio/clip_12_q1_correct.m4a,null,<p>That’s correct. You win extra money by collecting more gems.</p>,,,,,,,,,,,,,,,,,,,,,,,
quiz_q_2_ask,47,301251,0.0-17.0-1.0,"""event"",""trial"",""time""
""fullscreenenter"",""1"",""10272""
","
","
","""event"",""trial"",""time""
""fullscreenenter"",""1"",""10272""
","
",,7040.2,run_exp/static/audio/clip_14_q2_ask.m4a,,,,,,,1,,,,,,,,,,,,,,,,,,
quiz_q_2_fb_correct,48,305289,0.0-18.0-0.0,"""event"",""trial"",""time""
""fullscreenenter"",""1"",""10272""
","
","
","""event"",""trial"",""time""
""fullscreenenter"",""1"",""10272""
","
",,null,run_exp/static/audio/clip_15_q2_correct.m4a,null,<p>That’s correct. The experiment is 20 minutes no matter what.</p>,,,,,,,,,,,,,,,,,,,,,,,
quiz_q_3_ask,49,311208,0.0-18.0-1.0,"""event"",""trial"",""time""
""fullscreenenter"",""1"",""10272""
","
","
","""event"",""trial"",""time""
""fullscreenenter"",""1"",""10272""
","
",,5915.7,run_exp/static/audio/clip_17_q3_ask.m4a,,,,,,,1,,,,,,,,,,,,,,,,,,
quiz_q_3_fb_correct,50,315208,0.0-19.0-0.0,"""event"",""trial"",""time""
""fullscreenenter"",""1"",""10272""
","
","
","""event"",""trial"",""time""
""fullscreenenter"",""1"",""10272""
","
",,null,run_exp/static/audio/clip_18_q3_correct.m4a,null,<p> That’s correct. You press the letter L to travel to a new planet.</p>,,,,,,,,,,,,,,,,,,,,,,,
quiz_q_4_ask,51,324778,0.0-19.0-1.0,"""event"",""trial"",""time""
""fullscreenenter"",""1"",""10272""
","
","
","""event"",""trial"",""time""
""fullscreenenter"",""1"",""10272""
","
",,9566,run_exp/static/audio/clip_20_q4_ask.m4a,,,,,,,0,,,,,,,,,,,,,,,,,,
quiz_q_4_fb_correct,52,330108,0.0-20.0-0.0,"""event"",""trial"",""time""
""fullscreenenter"",""1"",""10272""
","
","
","""event"",""trial"",""time""
""fullscreenenter"",""1"",""10272""
","
",,null,run_exp/static/audio/clip_21_q4_correct.m4a,null,<p> That’s correct. The more you dig on a planet the fewer gems you’ll get with each dig. </p>,,,,,,,,,,,,,,,,,,,,,,,
quiz_q_5_ask,53,337530,0.0-20.0-1.0,"""event"",""trial"",""time""
""fullscreenenter"",""1"",""10272""
","
","
","""event"",""trial"",""time""
""fullscreenenter"",""1"",""10272""
","
",,7418.5,run_exp/static/audio/clip_23_q5_ask.m4a,,,,,,,1,,,,,,,,,,,,,,,,,,
quiz_q_5_fb_correct,54,342547,0.0-21.0-0.0,"""event"",""trial"",""time""
""fullscreenenter"",""1"",""10272""
","
","
","""event"",""trial"",""time""
""fullscreenenter"",""1"",""10272""
","
",,null,run_exp/static/audio/clip_24_q5_correct.m4a,null,<p> That’s correct. The alien tells you nothing about how much treasure is on the planet.</p>,,,,,,,,,,,,,,,,,,,,,,,
quiz_correct,55,346026,0.0-22.0-0.0,"""event"",""trial"",""time""
""fullscreenenter"",""1"",""10272""
","
","
","""event"",""trial"",""time""
""fullscreenenter"",""1"",""10272""
","
",,null,run_exp/static/audio/clip_26_correct_quiz.m4a,null,,,,,,,,,,,,,,,,,,,,,,,,
quiz_correct_continue,56,353535,0.0-22.0-1.0,"""event"",""trial"",""time""
""fullscreenenter"",""1"",""10272""
","
","
","""event"",""trial"",""time""
""fullscreenenter"",""1"",""10272""
","
",,7508,<p>Good job! You're now ready to move on to the real game!</p>,,,,,,,0,,,,,,,,,,,,,,,,,,
audio-keyboard-response,57,363667,0.0-22.0-2.0,"""event"",""trial"",""time""
""fullscreenenter"",""1"",""10272""
","
","
","""event"",""trial"",""time""
""fullscreenenter"",""1"",""10272""
","
",,null,run_exp/static/audio/clip_28_real_game.m4a,null,,,,,,,,,,,,,,,,,,,,,,,,
instruc_begin_exp_contine,58,370484,0.0-22.0-3.0,"""event"",""trial"",""time""
""fullscreenenter"",""1"",""10272""
","
","
","""event"",""trial"",""time""
""fullscreenenter"",""1"",""10272""
","
",,6814.9,"<p>Now that you know how  to dig for space treasure and travel to new planets,you can start exploring! </p><p>Do you want to go over the instructions again or get started with the real game?</p>",,,,,,,1,,,,,,1,,,,,,,,,,,,
alien_welcome,59,375489,0.0-23.0-0.0,"""event"",""trial"",""time""
""fullscreenenter"",""1"",""10272""
","
","
","""event"",""trial"",""time""
""fullscreenenter"",""1"",""10272""
","
",,null,run_exp/static/images/task_images/aliens/old_aliens/planet/alien_planet-22.jpg,null,,,,,,,,,,,,,22,"22,47,21,60,70,48,31,35,24,57,59,4,75,46,1,61,73,16,44,28,12,63,14,58,38,74,37,18,30,51,13,17,52,45,67,62,39,2,68,3,66,20,40,32,69,53,49",,,,,,,,,,
land,60,376000,0.0-23.0-1.0,"""event"",""trial"",""time""
""fullscreenenter"",""1"",""10272""
","
","
","""event"",""trial"",""time""
""fullscreenenter"",""1"",""10272""
","
",,null,run_exp/static/images/task_images/land.jpg,null,,,,,,,99,,,1,,,,,,,,,,,,,,
dig,61,378013,0.0-23.0-2.0,"""event"",""trial"",""time""
""fullscreenenter"",""1"",""10272""
","
","
","""event"",""trial"",""time""
""fullscreenenter"",""1"",""10272""
","
",,,,,,,,,,,,"[{""stimulus"":""run_exp/static/images/task_images/dig.jpg"",""time"":0.2999999999301508},{""stimulus"":""run_exp/static/images/task_images/land.jpg"",""time"":669.6999999999534},{""stimulus"":""run_exp/static/images/task_images/dig.jpg"",""time"":1339.2999999999302}]",[],1,,,,,,,,,,,,,,
harvest,62,379023,0.0-23.0-3.0,"""event"",""trial"",""time""
""fullscreenenter"",""1"",""10272""
","
","
","""event"",""trial"",""time""
""fullscreenenter"",""1"",""10272""
","
",,null,run_exp/static/images/task_images/gems/99.jpg,null,,,,,,,24,,,1,,,,,99,0.246166315,0.242424242,,,,,,,
decision,63,380081,0.0-23.0-4.0,"""event"",""trial"",""time""
""fullscreenenter"",""1"",""10272""
","
","
","""event"",""trial"",""time""
""fullscreenenter"",""1"",""10272""
","
",,1056.2,run_exp/static/images/task_images/land.jpg,65,,,,,,,24,,,1,,,,,,,,9595,1,0,FALSE,,,
dig,64,382030,0.0-24.0-0.0,"""event"",""trial"",""time""
""fullscreenenter"",""1"",""10272""
","
","
","""event"",""trial"",""time""
""fullscreenenter"",""1"",""10272""
","
",,,,,,,,,,,,"[{""stimulus"":""run_exp/static/images/task_images/dig.jpg"",""time"":0.5},{""stimulus"":""run_exp/static/images/task_images/land.jpg"",""time"":663.4000000000233},{""stimulus"":""run_exp/static/images/task_images/dig.jpg"",""time"":1302}]",[],1,,,,,,,,,,,,,,
harvest,65,383044,0.0-24.0-1.0,"""event"",""trial"",""time""
""fullscreenenter"",""1"",""10272""
","
","
","""event"",""trial"",""time""
""fullscreenenter"",""1"",""10272""
","
",,null,run_exp/static/images/task_images/gems/24.jpg,null,,,,,,,5,,,1,,,,,24,0.207601987,0.208333333,,,,,,,
decision,66,383581,0.0-24.0-2.0,"""event"",""trial"",""time""
""fullscreenenter"",""1"",""10272""
","
","
","""event"",""trial"",""time""
""fullscreenenter"",""1"",""10272""
","
",,533.8,run_exp/static/images/task_images/land.jpg,65,,,,,,,5,,,1,,,,,,,,13095,1,1,FALSE,,,
dig,67,386061,0.0-25.0-0.0,"""event"",""trial"",""time""
""fullscreenenter"",""1"",""10272""
","
","
","""event"",""trial"",""time""
""fullscreenenter"",""1"",""10272""
","
",,,,,,,,,,,,"[{""stimulus"":""run_exp/static/images/task_images/dig.jpg"",""time"":0.5999999999767169},{""stimulus"":""run_exp/static/images/task_images/land.jpg"",""time"":828},{""stimulus"":""run_exp/static/images/task_images/dig.jpg"",""time"":1657.7999999999302}]",[],1,,,,,,,,,,,,,,
harvest,68,387064,0.0-25.0-1.0,"""event"",""trial"",""time""
""fullscreenenter"",""1"",""10272""
","
","
","""event"",""trial"",""time""
""fullscreenenter"",""1"",""10272""
","
",,null,run_exp/static/images/task_images/gems/5.jpg,null,,,,,,,1,,,1,,,,,5,0.174694135,0.2,,,,,,,
decision,69,387169,0.0-25.0-2.0,"""event"",""trial"",""time""
""fullscreenenter"",""1"",""10272""
","
","
","""event"",""trial"",""time""
""fullscreenenter"",""1"",""10272""
","
",,103.3,run_exp/static/images/task_images/land.jpg,76,,,,,,,1,,,1,,,,,,,,16684,1,2,TRUE,,,
travel,70,397074,0.0-26.0-0.0,"""event"",""trial"",""time""
""fullscreenenter"",""1"",""10272""
","
","
","""event"",""trial"",""time""
""fullscreenenter"",""1"",""10272""
","
",,,,,,,,,,,,"[{""stimulus"":""run_exp/static/images/task_images/rocket-01.jpg"",""time"":0.6000000000931323},{""stimulus"":""run_exp/static/images/task_images/rocket-02.jpg"",""time"":1104.6000000000931},{""stimulus"":""run_exp/static/images/task_images/rocket-03.jpg"",""time"":2204.4000000000233},{""stimulus"":""run_exp/static/images/task_images/rocket-04.jpg"",""time"":3304.4000000000233},{""stimulus"":""run_exp/static/images/task_images/rocket-05.jpg"",""time"":4411.400000000023},{""stimulus"":""run_exp/static/images/task_images/rocket-06.jpg"",""time"":5503.400000000023},{""stimulus"":""run_exp/static/images/task_images/rocket-07.jpg"",""time"":6604.20000000007},{""stimulus"":""run_exp/static/images/task_images/rocket-08.jpg"",""time"":7703.900000000023},{""stimulus"":""run_exp/static/images/task_images/rocket-09.jpg"",""time"":8804.100000000093}]",[],1,,,,,,,,,,,,,,
alien_welcome,71,402078,0.0-26.0-1.0,"""event"",""trial"",""time""
""fullscreenenter"",""1"",""10272""
","
","
","""event"",""trial"",""time""
""fullscreenenter"",""1"",""10272""
","
",,null,run_exp/static/images/task_images/aliens/old_aliens/planet/alien_planet-47.jpg,null,,,,,,,,,,,,,47,"22,47,21,60,70,48,31,35,24,57,59,4,75,46,1,61,73,16,44,28,12,63,14,58,38,74,37,18,30,51,13,17,52,45,67,62,39,2,68,3,66,20,40,32,69,53,49",,,,,,,,,,
land,72,402584,0.0-26.0-2.0,"""event"",""trial"",""time""
""fullscreenenter"",""1"",""10272""
","
","
","""event"",""trial"",""time""
""fullscreenenter"",""1"",""10272""
","
",,null,run_exp/static/images/task_images/land.jpg,null,,,,,,,109,,,2,,,,,,,,,,,,,,
dig,73,404593,0.0-26.0-3.0,"""event"",""trial"",""time""
""fullscreenenter"",""1"",""10272""
","
","
","""event"",""trial"",""time""
""fullscreenenter"",""1"",""10272""
","
",,,,,,,,,,,,"[{""stimulus"":""run_exp/static/images/task_images/dig.jpg"",""time"":0.2000000000698492},{""stimulus"":""run_exp/static/images/task_images/land.jpg"",""time"":668.9000000000233},{""stimulus"":""run_exp/static/images/task_images/dig.jpg"",""time"":1339.5}]",[],2,,,,,,,,,,,,,,
harvest,74,405604,0.0-26.0-4.0,"""event"",""trial"",""time""
""fullscreenenter"",""1"",""10272""
","
","
","""event"",""trial"",""time""
""fullscreenenter"",""1"",""10272""
","
",,null,run_exp/static/images/task_images/gems/109.jpg,null,,,,,,,15,,,2,,,,,109,0.13361503,0.137614679,,,,,,,
decision,75,406338,0.0-26.0-5.0,"""event"",""trial"",""time""
""fullscreenenter"",""1"",""10272""
","
","
","""event"",""trial"",""time""
""fullscreenenter"",""1"",""10272""
","
",,730.8,run_exp/static/images/task_images/land.jpg,65,,,,,,,15,,,2,,,,,,,,35852,1,0,FALSE,,,
dig,76,408623,0.0-27.0-0.0,"""event"",""trial"",""time""
""fullscreenenter"",""1"",""10272""
","
","
","""event"",""trial"",""time""
""fullscreenenter"",""1"",""10272""
","
",,,,,,,,,,,,"[{""stimulus"":""run_exp/static/images/task_images/dig.jpg"",""time"":0.5},{""stimulus"":""run_exp/static/images/task_images/land.jpg"",""time"":759.3000000000466},{""stimulus"":""run_exp/static/images/task_images/dig.jpg"",""time"":1518.6000000000931}]",[],2,,,,,,,,,,,,,,
harvest,77,409634,0.0-27.0-1.0,"""event"",""trial"",""time""
""fullscreenenter"",""1"",""10272""
","
","
","""event"",""trial"",""time""
""fullscreenenter"",""1"",""10272""
","
",,null,run_exp/static/images/task_images/gems/15.jpg,null,,,,,,,3,,,2,,,,,15,0.204532829,0.2,,,,,,,
decision,78,410654,0.0-27.0-2.0,"""event"",""trial"",""time""
""fullscreenenter"",""1"",""10272""
","
","
","""event"",""trial"",""time""
""fullscreenenter"",""1"",""10272""
","
",,1016.9,run_exp/static/images/task_images/land.jpg,76,,,,,,,3,,,2,,,,,,,,40168,1,1,TRUE,,,
travel,79,419645,0.0-28.0-0.0,"""event"",""trial"",""time""
""fullscreenenter"",""1"",""10272""
","
","
","""event"",""trial"",""time""
""fullscreenenter"",""1"",""10272""
","
",,,,,,,,,,,,"[{""stimulus"":""run_exp/static/images/task_images/rocket-01.jpg"",""time"":0.5999999999767169},{""stimulus"":""run_exp/static/images/task_images/rocket-02.jpg"",""time"":1004.8000000000466},{""stimulus"":""run_exp/static/images/task_images/rocket-03.jpg"",""time"":2004.0999999999767},{""stimulus"":""run_exp/static/images/task_images/rocket-04.jpg"",""time"":3004.5},{""stimulus"":""run_exp/static/images/task_images/rocket-05.jpg"",""time"":4003.9000000000233},{""stimulus"":""run_exp/static/images/task_images/rocket-06.jpg"",""time"":5005.900000000023},{""stimulus"":""run_exp/static/images/task_images/rocket-07.jpg"",""time"":5992},{""stimulus"":""run_exp/static/images/task_images/rocket-08.jpg"",""time"":6988.900000000023},{""stimulus"":""run_exp/static/images/task_images/rocket-09.jpg"",""time"":7986.800000000047}]",[],2,,,,,,,,,,,,,,
alien_welcome,80,424655,0.0-28.0-1.0,"""event"",""trial"",""time""
""fullscreenenter"",""1"",""10272""
","
","
","""event"",""trial"",""time""
""fullscreenenter"",""1"",""10272""
","
",,null,run_exp/static/images/task_images/aliens/old_aliens/planet/alien_planet-21.jpg,null,,,,,,,,,,,,,21,"22,47,21,60,70,48,31,35,24,57,59,4,75,46,1,61,73,16,44,28,12,63,14,58,38,74,37,18,30,51,13,17,52,45,67,62,39,2,68,3,66,20,40,32,69,53,49",,,,,,,,,,
land,81,425156,0.0-28.0-2.0,"""event"",""trial"",""time""
""fullscreenenter"",""1"",""10272""
","
","
","""event"",""trial"",""time""
""fullscreenenter"",""1"",""10272""
","
",,null,run_exp/static/images/task_images/land.jpg,null,,,,,,,100,,,3,,,,,,,,,,,,,,
dig,82,427163,0.0-28.0-3.0,"""event"",""trial"",""time""
""fullscreenenter"",""1"",""10272""
","
","
","""event"",""trial"",""time""
""fullscreenenter"",""1"",""10272""
","
",,,,,,,,,,,,"[{""stimulus"":""run_exp/static/images/task_images/dig.jpg"",""time"":0.19999999995343387},{""stimulus"":""run_exp/static/images/task_images/land.jpg"",""time"":670.5999999999767},{""stimulus"":""run_exp/static/images/task_images/dig.jpg"",""time"":1335.4000000000233}]",[],3,,,,,,,,,,,,,,
harvest,83,428169,0.0-28.0-4.0,"""event"",""trial"",""time""
""fullscreenenter"",""1"",""10272""
","
","
","""event"",""trial"",""time""
""fullscreenenter"",""1"",""10272""
","
",,null,run_exp/static/images/task_images/gems/100.jpg,null,,,,,,,39,,,3,,,,,100,0.393137316,0.39,,,,,,,
decision,84,429175,0.0-28.0-5.0,"""event"",""trial"",""time""
""fullscreenenter"",""1"",""10272""
","
","
","""event"",""trial"",""time""
""fullscreenenter"",""1"",""10272""
","
",,1004.9,run_exp/static/images/task_images/land.jpg,65,,,,,,,39,,,3,,,,,,,,58689,1,0,FALSE,,,
dig,85,431184,0.0-29.0-0.0,"""event"",""trial"",""time""
""fullscreenenter"",""1"",""10272""
","
","
","""event"",""trial"",""time""
""fullscreenenter"",""1"",""10272""
","
",,,,,,,,,,,,"[{""stimulus"":""run_exp/static/images/task_images/dig.jpg"",""time"":0.2999999999301508},{""stimulus"":""run_exp/static/images/task_images/land.jpg"",""time"":673.4000000000233},{""stimulus"":""run_exp/static/images/task_images/dig.jpg"",""time"":1343.7999999999302}]",[],3,,,,,,,,,,,,,,
harvest,86,432186,0.0-29.0-1.0,"""event"",""trial"",""time""
""fullscreenenter"",""1"",""10272""
","
","
","""event"",""trial"",""time""
""fullscreenenter"",""1"",""10272""
","
",,null,run_exp/static/images/task_images/gems/39.jpg,null,,,,,,,20,,,3,,,,,39,0.516687424,0.512820513,,,,,,,
decision,87,433094,0.0-29.0-2.0,"""event"",""trial"",""time""
""fullscreenenter"",""1"",""10272""
","
","
","""event"",""trial"",""time""
""fullscreenenter"",""1"",""10272""
","
",,906.7,run_exp/static/images/task_images/land.jpg,65,,,,,,,20,,,3,,,,,,,,62608,1,1,FALSE,,,
dig,88,435193,0.0-30.0-0.0,"""event"",""trial"",""time""
""fullscreenenter"",""1"",""10272""
","
","
","""event"",""trial"",""time""
""fullscreenenter"",""1"",""10272""
","
",,,,,,,,,,,,"[{""stimulus"":""run_exp/static/images/task_images/dig.jpg"",""time"":0.2000000000698492},{""stimulus"":""run_exp/static/images/task_images/land.jpg"",""time"":710.8000000000466},{""stimulus"":""run_exp/static/images/task_images/dig.jpg"",""time"":1405.4000000000233}]",[],3,,,,,,,,,,,,,,
harvest,89,436203,0.0-30.0-1.0,"""event"",""trial"",""time""
""fullscreenenter"",""1"",""10272""
","
","
","""event"",""trial"",""time""
""fullscreenenter"",""1"",""10272""
","
",,null,run_exp/static/images/task_images/gems/20.jpg,null,,,,,,,10,,,3,,,,,20,0.481162223,0.5,,,,,,,
decision,90,437077,0.0-30.0-2.0,"""event"",""trial"",""time""
""fullscreenenter"",""1"",""10272""
","
","
","""event"",""trial"",""time""
""fullscreenenter"",""1"",""10272""
","
",,872.4,run_exp/static/images/task_images/land.jpg,65,,,,,,,10,,,3,,,,,,,,66591,1,2,FALSE,,,
dig,91,439216,0.0-31.0-0.0,"""event"",""trial"",""time""
""fullscreenenter"",""1"",""10272""
","
","
","""event"",""trial"",""time""
""fullscreenenter"",""1"",""10272""
","
",,,,,,,,,,,,"[{""stimulus"":""run_exp/static/images/task_images/dig.jpg"",""time"":0.2999999999301508},{""stimulus"":""run_exp/static/images/task_images/land.jpg"",""time"":713.2999999999302},{""stimulus"":""run_exp/static/images/task_images/dig.jpg"",""time"":1423.7999999999302}]",[],3,,,,,,,,,,,,,,
harvest,92,440223,0.0-31.0-1.0,"""event"",""trial"",""time""
""fullscreenenter"",""1"",""10272""
","
","
","""event"",""trial"",""time""
""fullscreenenter"",""1"",""10272""
","
",,null,run_exp/static/images/task_images/gems/10.jpg,null,,,,,,,5,,,3,,,,,10,0.530362146,0.5,,,,,,,
decision,93,441340,0.0-31.0-2.0,"""event"",""trial"",""time""
""fullscreenenter"",""1"",""10272""
","
","
","""event"",""trial"",""time""
""fullscreenenter"",""1"",""10272""
","
",,1115.4,run_exp/static/images/task_images/land.jpg,76,,,,,,,5,,,3,,,,,,,,70854,1,3,TRUE,,,
travel,94,450231,0.0-32.0-0.0,"""event"",""trial"",""time""
""fullscreenenter"",""1"",""10272""
","
","
","""event"",""trial"",""time""
""fullscreenenter"",""1"",""10272""
","
",,,,,,,,,,,,"[{""stimulus"":""run_exp/static/images/task_images/rocket-01.jpg"",""time"":0.5},{""stimulus"":""run_exp/static/images/task_images/rocket-02.jpg"",""time"":998.5999999999767},{""stimulus"":""run_exp/static/images/task_images/rocket-03.jpg"",""time"":1982.9000000000233},{""stimulus"":""run_exp/static/images/task_images/rocket-04.jpg"",""time"":2968},{""stimulus"":""run_exp/static/images/task_images/rocket-05.jpg"",""time"":3958.5999999999767},{""stimulus"":""run_exp/static/images/task_images/rocket-06.jpg"",""time"":4938.800000000047},{""stimulus"":""run_exp/static/images/task_images/rocket-07.jpg"",""time"":5925.5},{""stimulus"":""run_exp/static/images/task_images/rocket-08.jpg"",""time"":6917.5},{""stimulus"":""run_exp/static/images/task_images/rocket-09.jpg"",""time"":7907.400000000023}]",[],3,,,,,,,,,,,,,,
alien_welcome,95,455234,0.0-32.0-1.0,"""event"",""trial"",""time""
""fullscreenenter"",""1"",""10272""
","
","
","""event"",""trial"",""time""
""fullscreenenter"",""1"",""10272""
","
",,null,run_exp/static/images/task_images/aliens/old_aliens/planet/alien_planet-60.jpg,null,,,,,,,,,,,,,60,"22,47,21,60,70,48,31,35,24,57,59,4,75,46,1,61,73,16,44,28,12,63,14,58,38,74,37,18,30,51,13,17,52,45,67,62,39,2,68,3,66,20,40,32,69,53,49",,,,,,,,,,
land,96,455744,0.0-32.0-2.0,"""event"",""trial"",""time""
""fullscreenenter"",""1"",""10272""
","
","
","""event"",""trial"",""time""
""fullscreenenter"",""1"",""10272""
","
",,null,run_exp/static/images/task_images/land.jpg,null,,,,,,,106,,,4,,,,,,,,,,,,,,
dig,97,457753,0.0-32.0-3.0,"""event"",""trial"",""time""
""fullscreenenter"",""1"",""10272""
","
","
","""event"",""trial"",""time""
""fullscreenenter"",""1"",""10272""
","
",,,,,,,,,,,,"[{""stimulus"":""run_exp/static/images/task_images/dig.jpg"",""time"":0.40000000002328306},{""stimulus"":""run_exp/static/images/task_images/land.jpg"",""time"":677.7000000000698},{""stimulus"":""run_exp/static/images/task_images/dig.jpg"",""time"":1337.5}]",[],4,,,,,,,,,,,,,,
harvest,98,458763,0.0-32.0-4.0,"""event"",""trial"",""time""
""fullscreenenter"",""1"",""10272""
","
","
","""event"",""trial"",""time""
""fullscreenenter"",""1"",""10272""
","
",,null,run_exp/static/images/task_images/gems/106.jpg,null,,,,,,,50,,,4,,,,,106,0.467843914,0.471698113,,,,,,,
decision,99,459583,0.0-32.0-5.0,"""event"",""trial"",""time""
""fullscreenenter"",""1"",""10272""
","
","
","""event"",""trial"",""time""
""fullscreenenter"",""1"",""10272""
","
",,818.5,run_exp/static/images/task_images/land.jpg,65,,,,,,,50,,,4,,,,,,,,89098,1,0,FALSE,,,
dig,100,461773,0.0-33.0-0.0,"""event"",""trial"",""time""
""fullscreenenter"",""1"",""10272""
","
","
","""event"",""trial"",""time""
""fullscreenenter"",""1"",""10272""
","
",,,,,,,,,,,,"[{""stimulus"":""run_exp/static/images/task_images/dig.jpg"",""time"":0.2999999999301508},{""stimulus"":""run_exp/static/images/task_images/land.jpg"",""time"":746.1999999999534},{""stimulus"":""run_exp/static/images/task_images/dig.jpg"",""time"":1466}]",[],4,,,,,,,,,,,,,,
harvest,101,462784,0.0-33.0-1.0,"""event"",""trial"",""time""
""fullscreenenter"",""1"",""10272""
","
","
","""event"",""trial"",""time""
""fullscreenenter"",""1"",""10272""
","
",,null,run_exp/static/images/task_images/gems/50.jpg,null,,,,,,,26,,,4,,,,,50,0.520449707,0.52,,,,,,,
decision,102,463553,0.0-33.0-2.0,"""event"",""trial"",""time""
""fullscreenenter"",""1"",""10272""
","
","
","""event"",""trial"",""time""
""fullscreenenter"",""1"",""10272""
","
",,766.6,run_exp/static/images/task_images/land.jpg,65,,,,,,,26,,,4,,,,,,,,93067,1,1,FALSE,,,
dig,103,465794,0.0-34.0-0.0,"""event"",""trial"",""time""
""fullscreenenter"",""1"",""10272""
","
","
","""event"",""trial"",""time""
""fullscreenenter"",""1"",""10272""
","
",,,,,,,,,,,,"[{""stimulus"":""run_exp/static/images/task_images/dig.jpg"",""time"":0.40000000002328306},{""stimulus"":""run_exp/static/images/task_images/land.jpg"",""time"":754.5},{""stimulus"":""run_exp/static/images/task_images/dig.jpg"",""time"":1494.4000000000233}]",[],4,,,,,,,,,,,,,,
harvest,104,466804,0.0-34.0-1.0,"""event"",""trial"",""time""
""fullscreenenter"",""1"",""10272""
","
","
","""event"",""trial"",""time""
""fullscreenenter"",""1"",""10272""
","
",,null,run_exp/static/images/task_images/gems/26.jpg,null,,,,,,,12,,,4,,,,,26,0.47827384,0.461538462,,,,,,,
decision,105,467437,0.0-34.0-2.0,"""event"",""trial"",""time""
""fullscreenenter"",""1"",""10272""
","
","
","""event"",""trial"",""time""
""fullscreenenter"",""1"",""10272""
","
",,630.9,run_exp/static/images/task_images/land.jpg,65,,,,,,,12,,,4,,,,,,,,96951,1,2,FALSE,,,
dig,106,469824,0.0-35.0-0.0,"""event"",""trial"",""time""
""fullscreenenter"",""1"",""10272""
","
","
","""event"",""trial"",""time""
""fullscreenenter"",""1"",""10272""
","
",,,,,,,,,,,,"[{""stimulus"":""run_exp/static/images/task_images/dig.jpg"",""time"":0.19999999995343387},{""stimulus"":""run_exp/static/images/task_images/land.jpg"",""time"":794.1999999999534},{""stimulus"":""run_exp/static/images/task_images/dig.jpg"",""time"":1583.5}]",[],4,,,,,,,,,,,,,,
harvest,107,470829,0.0-35.0-1.0,"""event"",""trial"",""time""
""fullscreenenter"",""1"",""10272""
","
","
","""event"",""trial"",""time""
""fullscreenenter"",""1"",""10272""
","
",,null,run_exp/static/images/task_images/gems/12.jpg,null,,,,,,,5,,,4,,,,,12,0.438014472,0.416666667,,,,,,,
decision,108,471763,0.0-35.0-2.0,"""event"",""trial"",""time""
""fullscreenenter"",""1"",""10272""
","
","
","""event"",""trial"",""time""
""fullscreenenter"",""1"",""10272""
","
",,929.8,run_exp/static/images/task_images/land.jpg,76,,,,,,,5,,,4,,,,,,,,101277,1,3,TRUE,,,
travel,109,480844,0.0-36.0-0.0,"""event"",""trial"",""time""
""fullscreenenter"",""1"",""10272""
","
","
","""event"",""trial"",""time""
""fullscreenenter"",""1"",""10272""
","
",,,,,,,,,,,,"[{""stimulus"":""run_exp/static/images/task_images/rocket-01.jpg"",""time"":0.40000000002328306},{""stimulus"":""run_exp/static/images/task_images/rocket-02.jpg"",""time"":1015.2000000000698},{""stimulus"":""run_exp/static/images/task_images/rocket-03.jpg"",""time"":2024.6000000000931},{""stimulus"":""run_exp/static/images/task_images/rocket-04.jpg"",""time"":3024.70000000007},{""stimulus"":""run_exp/static/images/task_images/rocket-05.jpg"",""time"":4034.4000000000233},{""stimulus"":""run_exp/static/images/task_images/rocket-06.jpg"",""time"":5042.900000000023},{""stimulus"":""run_exp/static/images/task_images/rocket-07.jpg"",""time"":6054.20000000007},{""stimulus"":""run_exp/static/images/task_images/rocket-08.jpg"",""time"":7053.800000000047},{""stimulus"":""run_exp/static/images/task_images/rocket-09.jpg"",""time"":8064.5}]",[],4,,,,,,,,,,,,,,
alien_welcome,110,485854,0.0-36.0-1.0,"""event"",""trial"",""time""
""fullscreenenter"",""1"",""10272""
","
","
","""event"",""trial"",""time""
""fullscreenenter"",""1"",""10272""
","
",,null,run_exp/static/images/task_images/aliens/old_aliens/planet/alien_planet-70.jpg,null,,,,,,,,,,,,,70,"22,47,21,60,70,48,31,35,24,57,59,4,75,46,1,61,73,16,44,28,12,63,14,58,38,74,37,18,30,51,13,17,52,45,67,62,39,2,68,3,66,20,40,32,69,53,49",,,,,,,,,,
land,111,486373,0.0-36.0-2.0,"""event"",""trial"",""time""
""fullscreenenter"",""1"",""10272""
","
","
","""event"",""trial"",""time""
""fullscreenenter"",""1"",""10272""
","
",,null,run_exp/static/images/task_images/land.jpg,null,,,,,,,96,,,5,,,,,,,,,,,,,,
dig,112,488383,0.0-36.0-3.0,"""event"",""trial"",""time""
""fullscreenenter"",""1"",""10272""
","
","
","""event"",""trial"",""time""
""fullscreenenter"",""1"",""10272""
","
",,,,,,,,,,,,"[{""stimulus"":""run_exp/static/images/task_images/dig.jpg"",""time"":0.19999999995343387},{""stimulus"":""run_exp/static/images/task_images/land.jpg"",""time"":669.6999999999534},{""stimulus"":""run_exp/static/images/task_images/dig.jpg"",""time"":1339.8000000000466}]",[],5,,,,,,,,,,,,,,
harvest,113,489394,0.0-36.0-4.0,"""event"",""trial"",""time""
""fullscreenenter"",""1"",""10272""
","
","
","""event"",""trial"",""time""
""fullscreenenter"",""1"",""10272""
","
",,null,run_exp/static/images/task_images/gems/96.jpg,null,,,,,,,41,,,5,,,,,96,0.43197106,0.427083333,,,,,,,
decision,114,489957,0.0-36.0-5.0,"""event"",""trial"",""time""
""fullscreenenter"",""1"",""10272""
","
","
","""event"",""trial"",""time""
""fullscreenenter"",""1"",""10272""
","
",,559.6,run_exp/static/images/task_images/land.jpg,65,,,,,,,41,,,5,,,,,,,,119471,1,0,FALSE,,,
dig,115,492416,0.0-37.0-0.0,"""event"",""trial"",""time""
""fullscreenenter"",""1"",""10272""
","
","
","""event"",""trial"",""time""
""fullscreenenter"",""1"",""10272""
","
",,,,,,,,,,,,"[{""stimulus"":""run_exp/static/images/task_images/dig.jpg"",""time"":0.4000000001396984},{""stimulus"":""run_exp/static/images/task_images/land.jpg"",""time"":834.8000000000466},{""stimulus"":""run_exp/static/images/task_images/dig.jpg"",""time"":1631.8000000000466}]",[],5,,,,,,,,,,,,,,
harvest,116,493425,0.0-37.0-1.0,"""event"",""trial"",""time""
""fullscreenenter"",""1"",""10272""
","
","
","""event"",""trial"",""time""
""fullscreenenter"",""1"",""10272""
","
",,null,run_exp/static/images/task_images/gems/41.jpg,null,,,,,,,21,,,5,,,,,41,0.516755038,0.512195122,,,,,,,
decision,117,494335,0.0-37.0-2.0,"""event"",""trial"",""time""
""fullscreenenter"",""1"",""10272""
","
","
","""event"",""trial"",""time""
""fullscreenenter"",""1"",""10272""
","
",,907.7,run_exp/static/images/task_images/land.jpg,65,,,,,,,21,,,5,,,,,,,,123849,1,1,FALSE,,,
dig,118,496434,0.0-38.0-0.0,"""event"",""trial"",""time""
""fullscreenenter"",""1"",""10272""
","
","
","""event"",""trial"",""time""
""fullscreenenter"",""1"",""10272""
","
",,,,,,,,,,,,"[{""stimulus"":""run_exp/static/images/task_images/dig.jpg"",""time"":0.2999999998137355},{""stimulus"":""run_exp/static/images/task_images/land.jpg"",""time"":714.0999999998603},{""stimulus"":""run_exp/static/images/task_images/dig.jpg"",""time"":1416.0999999998603}]",[],5,,,,,,,,,,,,,,
harvest,119,497454,0.0-38.0-1.0,"""event"",""trial"",""time""
""fullscreenenter"",""1"",""10272""
","
","
","""event"",""trial"",""time""
""fullscreenenter"",""1"",""10272""
","
",,null,run_exp/static/images/task_images/gems/21.jpg,null,,,,,,,11,,,5,,,,,21,0.540858924,0.523809524,,,,,,,
decision,120,498038,0.0-38.0-2.0,"""event"",""trial"",""time""
""fullscreenenter"",""1"",""10272""
","
","
","""event"",""trial"",""time""
""fullscreenenter"",""1"",""10272""
","
",,581.2,run_exp/static/images/task_images/land.jpg,76,,,,,,,11,,,5,,,,,,,,127552,1,2,TRUE,,,
travel,121,507474,0.0-39.0-0.0,"""event"",""trial"",""time""
""fullscreenenter"",""1"",""10272""
","
","
","""event"",""trial"",""time""
""fullscreenenter"",""1"",""10272""
","
",,,,,,,,,,,,"[{""stimulus"":""run_exp/static/images/task_images/rocket-01.jpg"",""time"":0.7000000001862645},{""stimulus"":""run_exp/static/images/task_images/rocket-02.jpg"",""time"":1057.2000000001863},{""stimulus"":""run_exp/static/images/task_images/rocket-03.jpg"",""time"":2097.100000000093},{""stimulus"":""run_exp/static/images/task_images/rocket-04.jpg"",""time"":3144.8000000000466},{""stimulus"":""run_exp/static/images/task_images/rocket-05.jpg"",""time"":4188.300000000047},{""stimulus"":""run_exp/static/images/task_images/rocket-06.jpg"",""time"":5237},{""stimulus"":""run_exp/static/images/task_images/rocket-07.jpg"",""time"":6286.90000000014},{""stimulus"":""run_exp/static/images/task_images/rocket-08.jpg"",""time"":7326.800000000047},{""stimulus"":""run_exp/static/images/task_images/rocket-09.jpg"",""time"":8377.40000000014}]",[],5,,,,,,,,,,,,,,
alien_welcome,122,512484,0.0-39.0-1.0,"""event"",""trial"",""time""
""fullscreenenter"",""1"",""10272""
","
","
","""event"",""trial"",""time""
""fullscreenenter"",""1"",""10272""
","
",,null,run_exp/static/images/task_images/aliens/old_aliens/planet/alien_planet-48.jpg,null,,,,,,,,,,,,,48,"22,47,21,60,70,48,31,35,24,57,59,4,75,46,1,61,73,16,44,28,12,63,14,58,38,74,37,18,30,51,13,17,52,45,67,62,39,2,68,3,66,20,40,32,69,53,49",,,,,,,,,,
land,123,512994,0.0-39.0-2.0,"""event"",""trial"",""time""
""fullscreenenter"",""1"",""10272""
","
","
","""event"",""trial"",""time""
""fullscreenenter"",""1"",""10272""
","
",,null,run_exp/static/images/task_images/land.jpg,null,,,,,,,88,,,6,,,,,,,,,,,,,,
dig,124,515009,0.0-39.0-3.0,"""event"",""trial"",""time""
""fullscreenenter"",""1"",""10272""
","
","
","""event"",""trial"",""time""
""fullscreenenter"",""1"",""10272""
","
",,,,,,,,,,,,"[{""stimulus"":""run_exp/static/images/task_images/dig.jpg"",""time"":0.19999999995343387},{""stimulus"":""run_exp/static/images/task_images/land.jpg"",""time"":669.3000000000466},{""stimulus"":""run_exp/static/images/task_images/dig.jpg"",""time"":1339.1000000000931}]",[],6,,,,,,,,,,,,,,
harvest,125,516014,0.0-39.0-4.0,"""event"",""trial"",""time""
""fullscreenenter"",""1"",""10272""
","
","
","""event"",""trial"",""time""
""fullscreenenter"",""1"",""10272""
","
",,null,run_exp/static/images/task_images/gems/88.jpg,null,,,,,,,74,,,6,,,,,88,0.839593269,0.840909091,,,,,,,
decision,126,516585,0.0-39.0-5.0,"""event"",""trial"",""time""
""fullscreenenter"",""1"",""10272""
","
","
","""event"",""trial"",""time""
""fullscreenenter"",""1"",""10272""
","
",,568.8,run_exp/static/images/task_images/land.jpg,65,,,,,,,74,,,6,,,,,,,,146099,1,0,FALSE,,,
dig,127,519024,0.0-40.0-0.0,"""event"",""trial"",""time""
""fullscreenenter"",""1"",""10272""
","
","
","""event"",""trial"",""time""
""fullscreenenter"",""1"",""10272""
","
",,,,,,,,,,,,"[{""stimulus"":""run_exp/static/images/task_images/dig.jpg"",""time"":0.5},{""stimulus"":""run_exp/static/images/task_images/land.jpg"",""time"":812.9000000001397},{""stimulus"":""run_exp/static/images/task_images/dig.jpg"",""time"":1623.1000000000931}]",[],6,,,,,,,,,,,,,,
harvest,128,520034,0.0-40.0-1.0,"""event"",""trial"",""time""
""fullscreenenter"",""1"",""10272""
","
","
","""event"",""trial"",""time""
""fullscreenenter"",""1"",""10272""
","
",,null,run_exp/static/images/task_images/gems/74.jpg,null,,,,,,,57,,,6,,,,,74,0.765371109,0.77027027,,,,,,,
decision,129,520627,0.0-40.0-2.0,"""event"",""trial"",""time""
""fullscreenenter"",""1"",""10272""
","
","
","""event"",""trial"",""time""
""fullscreenenter"",""1"",""10272""
","
",,590.6,run_exp/static/images/task_images/land.jpg,65,,,,,,,57,,,6,,,,,,,,150141,1,1,FALSE,,,
dig,130,523044,0.0-41.0-0.0,"""event"",""trial"",""time""
""fullscreenenter"",""1"",""10272""
","
","
","""event"",""trial"",""time""
""fullscreenenter"",""1"",""10272""
","
",,,,,,,,,,,,"[{""stimulus"":""run_exp/static/images/task_images/dig.jpg"",""time"":0.30000000004656613},{""stimulus"":""run_exp/static/images/task_images/land.jpg"",""time"":814.7000000001863},{""stimulus"":""run_exp/static/images/task_images/dig.jpg"",""time"":1607.4000000001397}]",[],6,,,,,,,,,,,,,,
harvest,131,524047,0.0-41.0-1.0,"""event"",""trial"",""time""
""fullscreenenter"",""1"",""10272""
","
","
","""event"",""trial"",""time""
""fullscreenenter"",""1"",""10272""
","
",,null,run_exp/static/images/task_images/gems/57.jpg,null,,,,,,,51,,,6,,,,,57,0.892638782,0.894736842,,,,,,,
decision,132,524574,0.0-41.0-2.0,"""event"",""trial"",""time""
""fullscreenenter"",""1"",""10272""
","
","
","""event"",""trial"",""time""
""fullscreenenter"",""1"",""10272""
","
",,524.5,run_exp/static/images/task_images/land.jpg,65,,,,,,,51,,,6,,,,,,,,154088,1,2,FALSE,,,
dig,133,527069,0.0-42.0-0.0,"""event"",""trial"",""time""
""fullscreenenter"",""1"",""10272""
","
","
","""event"",""trial"",""time""
""fullscreenenter"",""1"",""10272""
","
",,,,,,,,,,,,"[{""stimulus"":""run_exp/static/images/task_images/dig.jpg"",""time"":0.5},{""stimulus"":""run_exp/static/images/task_images/land.jpg"",""time"":833.7999999998137},{""stimulus"":""run_exp/static/images/task_images/dig.jpg"",""time"":1655.8999999999069}]",[],6,,,,,,,,,,,,,,
harvest,134,528097,0.0-42.0-1.0,"""event"",""trial"",""time""
""fullscreenenter"",""1"",""10272""
","
","
","""event"",""trial"",""time""
""fullscreenenter"",""1"",""10272""
","
",,null,run_exp/static/images/task_images/gems/51.jpg,null,,,,,,,44,,,6,,,,,51,0.854242709,0.862745098,,,,,,,
decision,135,529360,0.0-42.0-2.0,"""event"",""trial"",""time""
""fullscreenenter"",""1"",""10272""
","
","
","""event"",""trial"",""time""
""fullscreenenter"",""1"",""10272""
","
",,1257.3,run_exp/static/images/task_images/land.jpg,65,,,,,,,44,,,6,,,,,,,,158874,1,3,FALSE,,,
dig,136,531114,0.0-43.0-0.0,"""event"",""trial"",""time""
""fullscreenenter"",""1"",""10272""
","
","
","""event"",""trial"",""time""
""fullscreenenter"",""1"",""10272""
","
",,,,,,,,,,,,"[{""stimulus"":""run_exp/static/images/task_images/dig.jpg"",""time"":0.30000000004656613},{""stimulus"":""run_exp/static/images/task_images/land.jpg"",""time"":586.2000000001863},{""stimulus"":""run_exp/static/images/task_images/dig.jpg"",""time"":1167}]",[],6,,,,,,,,,,,,,,
harvest,137,532135,0.0-43.0-1.0,"""event"",""trial"",""time""
""fullscreenenter"",""1"",""10272""
","
","
","""event"",""trial"",""time""
""fullscreenenter"",""1"",""10272""
","
",,null,run_exp/static/images/task_images/gems/44.jpg,null,,,,,,,38,,,6,,,,,44,0.85890534,0.863636364,,,,,,,
decision,138,532762,0.0-43.0-2.0,"""event"",""trial"",""time""
""fullscreenenter"",""1"",""10272""
","
","
","""event"",""trial"",""time""
""fullscreenenter"",""1"",""10272""
","
",,624.6,run_exp/static/images/task_images/land.jpg,65,,,,,,,38,,,6,,,,,,,,162277,1,4,FALSE,,,
dig,139,535163,0.0-44.0-0.0,"""event"",""trial"",""time""
""fullscreenenter"",""1"",""10272""
","
","
","""event"",""trial"",""time""
""fullscreenenter"",""1"",""10272""
","
",,,,,,,,,,,,"[{""stimulus"":""run_exp/static/images/task_images/dig.jpg"",""time"":0.5},{""stimulus"":""run_exp/static/images/task_images/land.jpg"",""time"":793.8999999999069},{""stimulus"":""run_exp/static/images/task_images/dig.jpg"",""time"":1593.5}]",[],6,,,,,,,,,,,,,,
harvest,140,536168,0.0-44.0-1.0,"""event"",""trial"",""time""
""fullscreenenter"",""1"",""10272""
","
","
","""event"",""trial"",""time""
""fullscreenenter"",""1"",""10272""
","
",,null,run_exp/static/images/task_images/gems/38.jpg,null,,,,,,,30,,,6,,,,,38,0.791433378,0.789473684,,,,,,,
decision,141,537388,0.0-44.0-2.0,"""event"",""trial"",""time""
""fullscreenenter"",""1"",""10272""
","
","
","""event"",""trial"",""time""
""fullscreenenter"",""1"",""10272""
","
",,1215.4,run_exp/static/images/task_images/land.jpg,65,,,,,,,30,,,6,,,,,,,,166902,1,5,FALSE,,,
dig,142,539184,0.0-45.0-0.0,"""event"",""trial"",""time""
""fullscreenenter"",""1"",""10272""
","
","
","""event"",""trial"",""time""
""fullscreenenter"",""1"",""10272""
","
",,,,,,,,,,,,"[{""stimulus"":""run_exp/static/images/task_images/dig.jpg"",""time"":0.5999999998603016},{""stimulus"":""run_exp/static/images/task_images/land.jpg"",""time"":605.7999999998137},{""stimulus"":""run_exp/static/images/task_images/dig.jpg"",""time"":1197.5}]",[],6,,,,,,,,,,,,,,
harvest,143,540194,0.0-45.0-1.0,"""event"",""trial"",""time""
""fullscreenenter"",""1"",""10272""
","
","
","""event"",""trial"",""time""
""fullscreenenter"",""1"",""10272""
","
",,null,run_exp/static/images/task_images/gems/30.jpg,null,,,,,,,25,,,6,,,,,30,0.849180246,0.833333333,,,,,,,
decision,144,540941,0.0-45.0-2.0,"""event"",""trial"",""time""
""fullscreenenter"",""1"",""10272""
","
","
","""event"",""trial"",""time""
""fullscreenenter"",""1"",""10272""
","
",,743.9,run_exp/static/images/task_images/land.jpg,76,,,,,,,25,,,6,,,,,,,,170455,1,6,TRUE,,,
travel,145,550204,0.0-46.0-0.0,"""event"",""trial"",""time""
""fullscreenenter"",""1"",""10272""
","
","
","""event"",""trial"",""time""
""fullscreenenter"",""1"",""10272""
","
",,,,,,,,,,,,"[{""stimulus"":""run_exp/static/images/task_images/rocket-01.jpg"",""time"":0.39999999990686774},{""stimulus"":""run_exp/static/images/task_images/rocket-02.jpg"",""time"":1040.5},{""stimulus"":""run_exp/static/images/task_images/rocket-03.jpg"",""time"":2059.5},{""stimulus"":""run_exp/static/images/task_images/rocket-04.jpg"",""time"":3095.5},{""stimulus"":""run_exp/static/images/task_images/rocket-05.jpg"",""time"":4119},{""stimulus"":""run_exp/static/images/task_images/rocket-06.jpg"",""time"":5147.5},{""stimulus"":""run_exp/static/images/task_images/rocket-07.jpg"",""time"":6179.699999999953},{""stimulus"":""run_exp/static/images/task_images/rocket-08.jpg"",""time"":7199.800000000047},{""stimulus"":""run_exp/static/images/task_images/rocket-09.jpg"",""time"":8229.399999999907}]",[],6,,,,,,,,,,,,,,
alien_welcome,146,555214,0.0-46.0-1.0,"""event"",""trial"",""time""
""fullscreenenter"",""1"",""10272""
","
","
","""event"",""trial"",""time""
""fullscreenenter"",""1"",""10272""
","
",,null,run_exp/static/images/task_images/aliens/old_aliens/planet/alien_planet-31.jpg,null,,,,,,,,,,,,,31,"22,47,21,60,70,48,31,35,24,57,59,4,75,46,1,61,73,16,44,28,12,63,14,58,38,74,37,18,30,51,13,17,52,45,67,62,39,2,68,3,66,20,40,32,69,53,49",,,,,,,,,,
land,147,555724,0.0-46.0-2.0,"""event"",""trial"",""time""
""fullscreenenter"",""1"",""10272""
","
","
","""event"",""trial"",""time""
""fullscreenenter"",""1"",""10272""
","
",,null,run_exp/static/images/task_images/land.jpg,null,,,,,,,106,,,7,,,,,,,,,,,,,,
dig,148,557743,0.0-46.0-3.0,"""event"",""trial"",""time""
""fullscreenenter"",""1"",""10272""
","
","
","""event"",""trial"",""time""
""fullscreenenter"",""1"",""10272""
","
",,,,,,,,,,,,"[{""stimulus"":""run_exp/static/images/task_images/dig.jpg"",""time"":0.39999999990686774},{""stimulus"":""run_exp/static/images/task_images/land.jpg"",""time"":677.3999999999069},{""stimulus"":""run_exp/static/images/task_images/dig.jpg"",""time"":1338.5}]",[],7,,,,,,,,,,,,,,
harvest,149,558754,0.0-46.0-4.0,"""event"",""trial"",""time""
""fullscreenenter"",""1"",""10272""
","
","
","""event"",""trial"",""time""
""fullscreenenter"",""1"",""10272""
","
",,null,run_exp/static/images/task_images/gems/106.jpg,null,,,,,,,84,,,7,,,,,106,0.796512136,0.79245283,,,,,,,
decision,150,559248,0.0-46.0-5.0,"""event"",""trial"",""time""
""fullscreenenter"",""1"",""10272""
","
","
","""event"",""trial"",""time""
""fullscreenenter"",""1"",""10272""
","
",,490,run_exp/static/images/task_images/land.jpg,65,,,,,,,84,,,7,,,,,,,,188762,1,0,FALSE,,,
dig,151,561774,0.0-47.0-0.0,"""event"",""trial"",""time""
""fullscreenenter"",""1"",""10272""
","
","
","""event"",""trial"",""time""
""fullscreenenter"",""1"",""10272""
","
",,,,,,,,,,,,"[{""stimulus"":""run_exp/static/images/task_images/dig.jpg"",""time"":0.4000000001396984},{""stimulus"":""run_exp/static/images/task_images/land.jpg"",""time"":862.3000000000466},{""stimulus"":""run_exp/static/images/task_images/dig.jpg"",""time"":1678.4000000001397}]",[],7,,,,,,,,,,,,,,
harvest,152,562812,0.0-47.0-1.0,"""event"",""trial"",""time""
""fullscreenenter"",""1"",""10272""
","
","
","""event"",""trial"",""time""
""fullscreenenter"",""1"",""10272""
","
",,null,run_exp/static/images/task_images/gems/84.jpg,null,,,,,,,68,,,7,,,,,84,0.80371781,0.80952381,,,,,,,
decision,153,564195,0.0-47.0-2.0,"""event"",""trial"",""time""
""fullscreenenter"",""1"",""10272""
","
","
","""event"",""trial"",""time""
""fullscreenenter"",""1"",""10272""
","
",,1372.3,run_exp/static/images/task_images/land.jpg,65,,,,,,,68,,,7,,,,,,,,193709,1,1,FALSE,,,
dig,154,565834,0.0-48.0-0.0,"""event"",""trial"",""time""
""fullscreenenter"",""1"",""10272""
","
","
","""event"",""trial"",""time""
""fullscreenenter"",""1"",""10272""
","
",,,,,,,,,,,,"[{""stimulus"":""run_exp/static/images/task_images/dig.jpg"",""time"":0.8999999999068677},{""stimulus"":""run_exp/static/images/task_images/land.jpg"",""time"":551.6999999999534},{""stimulus"":""run_exp/static/images/task_images/dig.jpg"",""time"":1092.6999999999534}]",[],7,,,,,,,,,,,,,,
harvest,155,566840,0.0-48.0-1.0,"""event"",""trial"",""time""
""fullscreenenter"",""1"",""10272""
","
","
","""event"",""trial"",""time""
""fullscreenenter"",""1"",""10272""
","
",,null,run_exp/static/images/task_images/gems/68.jpg,null,,,,,,,56,,,7,,,,,68,0.816570751,0.823529412,,,,,,,
decision,156,568175,0.0-48.0-2.0,"""event"",""trial"",""time""
""fullscreenenter"",""1"",""10272""
","
","
","""event"",""trial"",""time""
""fullscreenenter"",""1"",""10272""
","
",,1332.3,run_exp/static/images/task_images/land.jpg,65,,,,,,,56,,,7,,,,,,,,197689,1,2,FALSE,,,
dig,157,569854,0.0-49.0-0.0,"""event"",""trial"",""time""
""fullscreenenter"",""1"",""10272""
","
","
","""event"",""trial"",""time""
""fullscreenenter"",""1"",""10272""
","
",,,,,,,,,,,,"[{""stimulus"":""run_exp/static/images/task_images/dig.jpg"",""time"":0.5},{""stimulus"":""run_exp/static/images/task_images/land.jpg"",""time"":571.8000000000466},{""stimulus"":""run_exp/static/images/task_images/dig.jpg"",""time"":1121.1000000000931}]",[],7,,,,,,,,,,,,,,
harvest,158,570864,0.0-49.0-1.0,"""event"",""trial"",""time""
""fullscreenenter"",""1"",""10272""
","
","
","""event"",""trial"",""time""
""fullscreenenter"",""1"",""10272""
","
",,null,run_exp/static/images/task_images/gems/56.jpg,null,,,,,,,42,,,7,,,,,56,0.749867559,0.75,,,,,,,
decision,159,571548,0.0-49.0-2.0,"""event"",""trial"",""time""
""fullscreenenter"",""1"",""10272""
","
","
","""event"",""trial"",""time""
""fullscreenenter"",""1"",""10272""
","
",,680.9,run_exp/static/images/task_images/land.jpg,65,,,,,,,42,,,7,,,,,,,,201062,1,3,FALSE,,,
dig,160,573884,0.0-50.0-0.0,"""event"",""trial"",""time""
""fullscreenenter"",""1"",""10272""
","
","
","""event"",""trial"",""time""
""fullscreenenter"",""1"",""10272""
","
",,,,,,,,,,,,"[{""stimulus"":""run_exp/static/images/task_images/dig.jpg"",""time"":0.6999999999534339},{""stimulus"":""run_exp/static/images/task_images/land.jpg"",""time"":799.1999999999534},{""stimulus"":""run_exp/static/images/task_images/dig.jpg"",""time"":1555.6999999999534}]",[],7,,,,,,,,,,,,,,
harvest,161,574894,0.0-50.0-1.0,"""event"",""trial"",""time""
""fullscreenenter"",""1"",""10272""
","
","
","""event"",""trial"",""time""
""fullscreenenter"",""1"",""10272""
","
",,null,run_exp/static/images/task_images/gems/42.jpg,null,,,,,,,34,,,7,,,,,42,0.817813932,0.80952381,,,,,,,
decision,162,575145,0.0-50.0-2.0,"""event"",""trial"",""time""
""fullscreenenter"",""1"",""10272""
","
","
","""event"",""trial"",""time""
""fullscreenenter"",""1"",""10272""
","
",,248.3,run_exp/static/images/task_images/land.jpg,76,,,,,,,34,,,7,,,,,,,,204659,1,4,TRUE,,,
travel,163,584904,0.0-51.0-0.0,"""event"",""trial"",""time""
""fullscreenenter"",""1"",""10272""
","
","
","""event"",""trial"",""time""
""fullscreenenter"",""1"",""10272""
","
",,,,,,,,,,,,"[{""stimulus"":""run_exp/static/images/task_images/rocket-01.jpg"",""time"":0.5},{""stimulus"":""run_exp/static/images/task_images/rocket-02.jpg"",""time"":1091.1999999999534},{""stimulus"":""run_exp/static/images/task_images/rocket-03.jpg"",""time"":2170.8000000000466},{""stimulus"":""run_exp/static/images/task_images/rocket-04.jpg"",""time"":3255.8000000000466},{""stimulus"":""run_exp/static/images/task_images/rocket-05.jpg"",""time"":4341.199999999953},{""stimulus"":""run_exp/static/images/task_images/rocket-06.jpg"",""time"":5421.199999999953},{""stimulus"":""run_exp/static/images/task_images/rocket-07.jpg"",""time"":6502.5},{""stimulus"":""run_exp/static/images/task_images/rocket-08.jpg"",""time"":7591.199999999953},{""stimulus"":""run_exp/static/images/task_images/rocket-09.jpg"",""time"":8671.100000000093}]",[],7,,,,,,,,,,,,,,
alien_welcome,164,589914,0.0-51.0-1.0,"""event"",""trial"",""time""
""fullscreenenter"",""1"",""10272""
","
","
","""event"",""trial"",""time""
""fullscreenenter"",""1"",""10272""
","
",,null,run_exp/static/images/task_images/aliens/old_aliens/planet/alien_planet-35.jpg,null,,,,,,,,,,,,,35,"22,47,21,60,70,48,31,35,24,57,59,4,75,46,1,61,73,16,44,28,12,63,14,58,38,74,37,18,30,51,13,17,52,45,67,62,39,2,68,3,66,20,40,32,69,53,49",,,,,,,,,,
land,165,590436,0.0-51.0-2.0,"""event"",""trial"",""time""
""fullscreenenter"",""1"",""10272""
","
","
","""event"",""trial"",""time""
""fullscreenenter"",""1"",""10272""
","
",,null,run_exp/static/images/task_images/land.jpg,null,,,,,,,101,,,8,,,,,,,,,,,,,,
dig,166,592454,0.0-51.0-3.0,"""event"",""trial"",""time""
""fullscreenenter"",""1"",""10272""
","
","
","""event"",""trial"",""time""
""fullscreenenter"",""1"",""10272""
","
",,,,,,,,,,,,"[{""stimulus"":""run_exp/static/images/task_images/dig.jpg"",""time"":0.5},{""stimulus"":""run_exp/static/images/task_images/land.jpg"",""time"":676.4000000001397},{""stimulus"":""run_exp/static/images/task_images/dig.jpg"",""time"":1336.3000000000466}]",[],8,,,,,,,,,,,,,,
harvest,167,593464,0.0-51.0-4.0,"""event"",""trial"",""time""
""fullscreenenter"",""1"",""10272""
","
","
","""event"",""trial"",""time""
""fullscreenenter"",""1"",""10272""
","
",,null,run_exp/static/images/task_images/gems/101.jpg,null,,,,,,,84,,,8,,,,,101,0.835331099,0.831683168,,,,,,,
decision,168,593845,0.0-51.0-5.0,"""event"",""trial"",""time""
""fullscreenenter"",""1"",""10272""
","
","
","""event"",""trial"",""time""
""fullscreenenter"",""1"",""10272""
","
",,377.6,run_exp/static/images/task_images/land.jpg,65,,,,,,,84,,,8,,,,,,,,223359,1,0,FALSE,,,
dig,169,596474,0.0-52.0-0.0,"""event"",""trial"",""time""
""fullscreenenter"",""1"",""10272""
","
","
","""event"",""trial"",""time""
""fullscreenenter"",""1"",""10272""
","
",,,,,,,,,,,,"[{""stimulus"":""run_exp/static/images/task_images/dig.jpg"",""time"":0.19999999995343387},{""stimulus"":""run_exp/static/images/task_images/land.jpg"",""time"":885.8999999999069},{""stimulus"":""run_exp/static/images/task_images/dig.jpg"",""time"":1755.5999999998603}]",[],8,,,,,,,,,,,,,,
harvest,170,597479,0.0-52.0-1.0,"""event"",""trial"",""time""
""fullscreenenter"",""1"",""10272""
","
","
","""event"",""trial"",""time""
""fullscreenenter"",""1"",""10272""
","
",,null,run_exp/static/images/task_images/gems/84.jpg,null,,,,,,,67,,,8,,,,,84,0.792821784,0.797619048,,,,,,,
decision,171,598899,0.0-52.0-2.0,"""event"",""trial"",""time""
""fullscreenenter"",""1"",""10272""
","
","
","""event"",""trial"",""time""
""fullscreenenter"",""1"",""10272""
","
",,1416.9,run_exp/static/images/task_images/land.jpg,65,,,,,,,67,,,8,,,,,,,,228413,1,1,FALSE,,,
dig,172,600491,0.0-53.0-0.0,"""event"",""trial"",""time""
""fullscreenenter"",""1"",""10272""
","
","
","""event"",""trial"",""time""
""fullscreenenter"",""1"",""10272""
","
",,,,,,,,,,,,"[{""stimulus"":""run_exp/static/images/task_images/dig.jpg"",""time"":0.5},{""stimulus"":""run_exp/static/images/task_images/land.jpg"",""time"":538.1999999999534},{""stimulus"":""run_exp/static/images/task_images/dig.jpg"",""time"":1056.9000000001397}]",[],8,,,,,,,,,,,,,,
harvest,173,601494,0.0-53.0-1.0,"""event"",""trial"",""time""
""fullscreenenter"",""1"",""10272""
","
","
","""event"",""trial"",""time""
""fullscreenenter"",""1"",""10272""
","
",,null,run_exp/static/images/task_images/gems/67.jpg,null,,,,,,,51,,,8,,,,,67,0.763467651,0.76119403,,,,,,,
decision,174,604265,0.0-53.0-2.0,"""event"",""trial"",""time""
""fullscreenenter"",""1"",""10272""
","
","
","""event"",""trial"",""time""
""fullscreenenter"",""1"",""10272""
","
",,2767.3,run_exp/static/images/task_images/land.jpg,65,,,,,,,51,,,8,,,,,,,,233779,1,2,FALSE,,,
dig,175,604504,0.0-54.0-0.0,"""event"",""trial"",""time""
""fullscreenenter"",""1"",""10272""
","
","
","""event"",""trial"",""time""
""fullscreenenter"",""1"",""10272""
","
",,,,,,,,,,,,"[{""stimulus"":""run_exp/static/images/task_images/dig.jpg"",""time"":0.30000000004656613},{""stimulus"":""run_exp/static/images/task_images/land.jpg"",""time"":80.39999999990687},{""stimulus"":""run_exp/static/images/task_images/dig.jpg"",""time"":173.19999999995343}]",[],8,,,,,,,,,,,,,,
harvest,176,605524,0.0-54.0-1.0,"""event"",""trial"",""time""
""fullscreenenter"",""1"",""10272""
","
","
","""event"",""trial"",""time""
""fullscreenenter"",""1"",""10272""
","
",,null,run_exp/static/images/task_images/gems/51.jpg,null,,,,,,,36,,,8,,,,,51,0.708376367,0.705882353,,,,,,,
decision,177,607215,0.0-54.0-2.0,"""event"",""trial"",""time""
""fullscreenenter"",""1"",""10272""
","
","
","""event"",""trial"",""time""
""fullscreenenter"",""1"",""10272""
","
",,1687.2,run_exp/static/images/task_images/land.jpg,76,,,,,,,36,,,8,,,,,,,,236729,1,3,TRUE,,,
travel,178,615534,0.0-55.0-0.0,"""event"",""trial"",""time""
""fullscreenenter"",""1"",""10272""
","
","
","""event"",""trial"",""time""
""fullscreenenter"",""1"",""10272""
","
",,,,,,,,,,,,"[{""stimulus"":""run_exp/static/images/task_images/rocket-01.jpg"",""time"":0.5},{""stimulus"":""run_exp/static/images/task_images/rocket-02.jpg"",""time"":932.5999999998603},{""stimulus"":""run_exp/static/images/task_images/rocket-03.jpg"",""time"":1852.8999999999069},{""stimulus"":""run_exp/static/images/task_images/rocket-04.jpg"",""time"":2772.399999999907},{""stimulus"":""run_exp/static/images/task_images/rocket-05.jpg"",""time"":3702.6999999999534},{""stimulus"":""run_exp/static/images/task_images/rocket-06.jpg"",""time"":4621.899999999907},{""stimulus"":""run_exp/static/images/task_images/rocket-07.jpg"",""time"":5540.299999999814},{""stimulus"":""run_exp/static/images/task_images/rocket-08.jpg"",""time"":6472.899999999907},{""stimulus"":""run_exp/static/images/task_images/rocket-09.jpg"",""time"":7392.59999999986}]",[],8,,,,,,,,,,,,,,
alien_welcome,179,620554,0.0-55.0-1.0,"""event"",""trial"",""time""
""fullscreenenter"",""1"",""10272""
","
","
","""event"",""trial"",""time""
""fullscreenenter"",""1"",""10272""
","
",,null,run_exp/static/images/task_images/aliens/old_aliens/planet/alien_planet-24.jpg,null,,,,,,,,,,,,,24,"22,47,21,60,70,48,31,35,24,57,59,4,75,46,1,61,73,16,44,28,12,63,14,58,38,74,37,18,30,51,13,17,52,45,67,62,39,2,68,3,66,20,40,32,69,53,49",,,,,,,,,,
land,180,621074,0.0-55.0-2.0,"""event"",""trial"",""time""
""fullscreenenter"",""1"",""10272""
","
","
","""event"",""trial"",""time""
""fullscreenenter"",""1"",""10272""
","
",,null,run_exp/static/images/task_images/land.jpg,null,,,,,,,93,,,9,,,,,,,,,,,,,,
dig,181,623084,0.0-55.0-3.0,"""event"",""trial"",""time""
""fullscreenenter"",""1"",""10272""
","
","
","""event"",""trial"",""time""
""fullscreenenter"",""1"",""10272""
","
",,,,,,,,,,,,"[{""stimulus"":""run_exp/static/images/task_images/dig.jpg"",""time"":0.5},{""stimulus"":""run_exp/static/images/task_images/land.jpg"",""time"":676.6999999999534},{""stimulus"":""run_exp/static/images/task_images/dig.jpg"",""time"":1337}]",[],9,,,,,,,,,,,,,,
harvest,182,624087,0.0-55.0-4.0,"""event"",""trial"",""time""
""fullscreenenter"",""1"",""10272""
","
","
","""event"",""trial"",""time""
""fullscreenenter"",""1"",""10272""
","
",,null,run_exp/static/images/task_images/gems/93.jpg,null,,,,,,,24,,,9,,,,,93,0.255877399,0.258064516,,,,,,,
decision,183,625754,0.0-55.0-5.0,"""event"",""trial"",""time""
""fullscreenenter"",""1"",""10272""
","
","
","""event"",""trial"",""time""
""fullscreenenter"",""1"",""10272""
","
",,1664.7,run_exp/static/images/task_images/land.jpg,65,,,,,,,24,,,9,,,,,,,,255269,1,0,FALSE,,,
dig,184,627104,0.0-56.0-0.0,"""event"",""trial"",""time""
""fullscreenenter"",""1"",""10272""
","
","
","""event"",""trial"",""time""
""fullscreenenter"",""1"",""10272""
","
",,,,,,,,,,,,"[{""stimulus"":""run_exp/static/images/task_images/dig.jpg"",""time"":0.4000000001396984},{""stimulus"":""run_exp/static/images/task_images/land.jpg"",""time"":453.60000000009313},{""stimulus"":""run_exp/static/images/task_images/dig.jpg"",""time"":893.9000000001397}]",[],9,,,,,,,,,,,,,,
harvest,185,628114,0.0-56.0-1.0,"""event"",""trial"",""time""
""fullscreenenter"",""1"",""10272""
","
","
","""event"",""trial"",""time""
""fullscreenenter"",""1"",""10272""
","
",,null,run_exp/static/images/task_images/gems/24.jpg,null,,,,,,,3,,,9,,,,,24,0.128882567,0.125,,,,,,,
decision,186,628972,0.0-56.0-2.0,"""event"",""trial"",""time""
""fullscreenenter"",""1"",""10272""
","
","
","""event"",""trial"",""time""
""fullscreenenter"",""1"",""10272""
","
",,855.2,run_exp/static/images/task_images/land.jpg,76,,,,,,,3,,,9,,,,,,,,258486,1,1,TRUE,,,
travel,187,638124,0.0-57.0-0.0,"""event"",""trial"",""time""
""fullscreenenter"",""1"",""10272""
","
","
","""event"",""trial"",""time""
""fullscreenenter"",""1"",""10272""
","
",,,,,,,,,,,,"[{""stimulus"":""run_exp/static/images/task_images/rocket-01.jpg"",""time"":0.5},{""stimulus"":""run_exp/static/images/task_images/rocket-02.jpg"",""time"":1026.5},{""stimulus"":""run_exp/static/images/task_images/rocket-03.jpg"",""time"":2036.5999999998603},{""stimulus"":""run_exp/static/images/task_images/rocket-04.jpg"",""time"":3056.5},{""stimulus"":""run_exp/static/images/task_images/rocket-05.jpg"",""time"":4073.0999999998603},{""stimulus"":""run_exp/static/images/task_images/rocket-06.jpg"",""time"":5084},{""stimulus"":""run_exp/static/images/task_images/rocket-07.jpg"",""time"":6106.59999999986},{""stimulus"":""run_exp/static/images/task_images/rocket-08.jpg"",""time"":7126.699999999953},{""stimulus"":""run_exp/static/images/task_images/rocket-09.jpg"",""time"":8146.899999999907}]",[],9,,,,,,,,,,,,,,
alien_welcome,188,643134,0.0-57.0-1.0,"""event"",""trial"",""time""
""fullscreenenter"",""1"",""10272""
","
","
","""event"",""trial"",""time""
""fullscreenenter"",""1"",""10272""
","
",,null,run_exp/static/images/task_images/aliens/old_aliens/planet/alien_planet-57.jpg,null,,,,,,,,,,,,,57,"22,47,21,60,70,48,31,35,24,57,59,4,75,46,1,61,73,16,44,28,12,63,14,58,38,74,37,18,30,51,13,17,52,45,67,62,39,2,68,3,66,20,40,32,69,53,49",,,,,,,,,,
land,189,643643,0.0-57.0-2.0,"""event"",""trial"",""time""
""fullscreenenter"",""1"",""10272""
","
","
","""event"",""trial"",""time""
""fullscreenenter"",""1"",""10272""
","
",,null,run_exp/static/images/task_images/land.jpg,null,,,,,,,98,,,10,,,,,,,,,,,,,,
dig,190,645654,0.0-57.0-3.0,"""event"",""trial"",""time""
""fullscreenenter"",""1"",""10272""
","
","
","""event"",""trial"",""time""
""fullscreenenter"",""1"",""10272""
","
",,,,,,,,,,,,"[{""stimulus"":""run_exp/static/images/task_images/dig.jpg"",""time"":0.30000000004656613},{""stimulus"":""run_exp/static/images/task_images/land.jpg"",""time"":669.8000000000466},{""stimulus"":""run_exp/static/images/task_images/dig.jpg"",""time"":1340}]",[],10,,,,,,,,,,,,,,
harvest,191,646664,0.0-57.0-4.0,"""event"",""trial"",""time""
""fullscreenenter"",""1"",""10272""
","
","
","""event"",""trial"",""time""
""fullscreenenter"",""1"",""10272""
","
",,null,run_exp/static/images/task_images/gems/98.jpg,null,,,,,,,18,,,10,,,,,98,0.179434438,0.183673469,,,,,,,
decision,192,647179,0.0-57.0-5.0,"""event"",""trial"",""time""
""fullscreenenter"",""1"",""10272""
","
","
","""event"",""trial"",""time""
""fullscreenenter"",""1"",""10272""
","
",,510.6,run_exp/static/images/task_images/land.jpg,65,,,,,,,18,,,10,,,,,,,,276693,1,0,FALSE,,,
dig,193,649684,0.0-58.0-0.0,"""event"",""trial"",""time""
""fullscreenenter"",""1"",""10272""
","
","
","""event"",""trial"",""time""
""fullscreenenter"",""1"",""10272""
","
",,,,,,,,,,,,"[{""stimulus"":""run_exp/static/images/task_images/dig.jpg"",""time"":1},{""stimulus"":""run_exp/static/images/task_images/land.jpg"",""time"":832.8000000000466},{""stimulus"":""run_exp/static/images/task_images/dig.jpg"",""time"":1661.8000000000466}]",[],10,,,,,,,,,,,,,,
harvest,194,650693,0.0-58.0-1.0,"""event"",""trial"",""time""
""fullscreenenter"",""1"",""10272""
","
","
","""event"",""trial"",""time""
""fullscreenenter"",""1"",""10272""
","
",,null,run_exp/static/images/task_images/gems/18.jpg,null,,,,,,,3,,,10,,,,,18,0.142174456,0.166666667,,,,,,,
decision,195,651771,0.0-58.0-2.0,"""event"",""trial"",""time""
""fullscreenenter"",""1"",""10272""
","
","
","""event"",""trial"",""time""
""fullscreenenter"",""1"",""10272""
","
",,1076.3,run_exp/static/images/task_images/land.jpg,76,,,,,,,3,,,10,,,,,,,,281285,1,1,TRUE,,,
travel,196,660724,0.0-59.0-0.0,"""event"",""trial"",""time""
""fullscreenenter"",""1"",""10272""
","
","
","""event"",""trial"",""time""
""fullscreenenter"",""1"",""10272""
","
",,,,,,,,,,,,"[{""stimulus"":""run_exp/static/images/task_images/rocket-01.jpg"",""time"":0.6999999999534339},{""stimulus"":""run_exp/static/images/task_images/rocket-02.jpg"",""time"":1000.6999999999534},{""stimulus"":""run_exp/static/images/task_images/rocket-03.jpg"",""time"":1990.8000000000466},{""stimulus"":""run_exp/static/images/task_images/rocket-04.jpg"",""time"":2981.1999999999534},{""stimulus"":""run_exp/static/images/task_images/rocket-05.jpg"",""time"":3981.399999999907},{""stimulus"":""run_exp/static/images/task_images/rocket-06.jpg"",""time"":4959.899999999907},{""stimulus"":""run_exp/static/images/task_images/rocket-07.jpg"",""time"":5950.800000000047},{""stimulus"":""run_exp/static/images/task_images/rocket-08.jpg"",""time"":6940.800000000047},{""stimulus"":""run_exp/static/images/task_images/rocket-09.jpg"",""time"":7940.899999999907}]",[],10,,,,,,,,,,,,,,
alien_welcome,197,665734,0.0-59.0-1.0,"""event"",""trial"",""time""
""fullscreenenter"",""1"",""10272""
","
","
","""event"",""trial"",""time""
""fullscreenenter"",""1"",""10272""
","
",,null,run_exp/static/images/task_images/aliens/old_aliens/planet/alien_planet-59.jpg,null,,,,,,,,,,,,,59,"22,47,21,60,70,48,31,35,24,57,59,4,75,46,1,61,73,16,44,28,12,63,14,58,38,74,37,18,30,51,13,17,52,45,67,62,39,2,68,3,66,20,40,32,69,53,49",,,,,,,,,,
land,198,666244,0.0-59.0-2.0,"""event"",""trial"",""time""
""fullscreenenter"",""1"",""10272""
","
","
","""event"",""trial"",""time""
""fullscreenenter"",""1"",""10272""
","
",,null,run_exp/static/images/task_images/land.jpg,null,,,,,,,104,,,11,,,,,,,,,,,,,,
dig,199,668253,0.0-59.0-3.0,"""event"",""trial"",""time""
""fullscreenenter"",""1"",""10272""
","
","
","""event"",""trial"",""time""
""fullscreenenter"",""1"",""10272""
","
",,,,,,,,,,,,"[{""stimulus"":""run_exp/static/images/task_images/dig.jpg"",""time"":0.6999999999534339},{""stimulus"":""run_exp/static/images/task_images/land.jpg"",""time"":677},{""stimulus"":""run_exp/static/images/task_images/dig.jpg"",""time"":1347.3999999999069}]",[],11,,,,,,,,,,,,,,
harvest,200,669263,0.0-59.0-4.0,"""event"",""trial"",""time""
""fullscreenenter"",""1"",""10272""
","
","
","""event"",""trial"",""time""
""fullscreenenter"",""1"",""10272""
","
",,null,run_exp/static/images/task_images/gems/104.jpg,null,,,,,,,28,,,11,,,,,104,0.267754818,0.269230769,,,,,,,
decision,201,671447,0.0-59.0-5.0,"""event"",""trial"",""time""
""fullscreenenter"",""1"",""10272""
","
","
","""event"",""trial"",""time""
""fullscreenenter"",""1"",""10272""
","
",,2180,run_exp/static/images/task_images/land.jpg,65,,,,,,,28,,,11,,,,,,,,300961,1,0,TRUE,,,
end_of_block_continue,202,680419,0.0-60.0-0.0,"""event"",""trial"",""time""
""fullscreenenter"",""1"",""10272""
","
","
","""event"",""trial"",""time""
""fullscreenenter"",""1"",""10272""
","
",,null,run_exp/static/audio/clip_32_block_end.m4a,,,,,,,null,,,,,,,,,,,,,,,,,,
alien_welcome,203,685433,0.0-61.0-0.0,"""event"",""trial"",""time""
""fullscreenenter"",""1"",""10272""
","
","
","""event"",""trial"",""time""
""fullscreenenter"",""1"",""10272""
","
",,null,run_exp/static/images/task_images/aliens/old_aliens/planet/alien_planet-4.jpg,null,,,,,,,,,,,,,4,"22,47,21,60,70,48,31,35,24,57,59,4,75,46,1,61,73,16,44,28,12,63,14,58,38,74,37,18,30,51,13,17,52,45,67,62,39,2,68,3,66,20,40,32,69,53,49",,,,,,,,,,
land,204,685944,0.0-61.0-1.0,"""event"",""trial"",""time""
""fullscreenenter"",""1"",""10272""
","
","
","""event"",""trial"",""time""
""fullscreenenter"",""1"",""10272""
","
",,null,run_exp/static/images/task_images/land.jpg,null,,,,,,,98,,,12,,,,,,,,,,,,,,
dig,205,687964,0.0-61.0-2.0,"""event"",""trial"",""time""
""fullscreenenter"",""1"",""10272""
","
","
","""event"",""trial"",""time""
""fullscreenenter"",""1"",""10272""
","
",,,,,,,,,,,,"[{""stimulus"":""run_exp/static/images/task_images/dig.jpg"",""time"":0.39999999990686774},{""stimulus"":""run_exp/static/images/task_images/land.jpg"",""time"":688.0999999998603},{""stimulus"":""run_exp/static/images/task_images/dig.jpg"",""time"":1340.1999999999534}]",[],12,,,,,,,,,,,,,,
harvest,206,688974,0.0-61.0-3.0,"""event"",""trial"",""time""
""fullscreenenter"",""1"",""10272""
","
","
","""event"",""trial"",""time""
""fullscreenenter"",""1"",""10272""
","
",,null,run_exp/static/images/task_images/gems/98.jpg,null,,,,,,,13,,,12,,,,,98,0.134408186,0.132653061,,,,,,,
decision,207,689521,0.0-61.0-4.0,"""event"",""trial"",""time""
""fullscreenenter"",""1"",""10272""
","
","
","""event"",""trial"",""time""
""fullscreenenter"",""1"",""10272""
","
",,543.4,run_exp/static/images/task_images/land.jpg,65,,,,,,,13,,,12,,,,,,,,9093,2,0,FALSE,,,
dig,208,691994,0.0-62.0-0.0,"""event"",""trial"",""time""
""fullscreenenter"",""1"",""10272""
","
","
","""event"",""trial"",""time""
""fullscreenenter"",""1"",""10272""
","
",,,,,,,,,,,,"[{""stimulus"":""run_exp/static/images/task_images/dig.jpg"",""time"":0.5},{""stimulus"":""run_exp/static/images/task_images/land.jpg"",""time"":824.7999999998137},{""stimulus"":""run_exp/static/images/task_images/dig.jpg"",""time"":1645.3999999999069}]",[],12,,,,,,,,,,,,,,
harvest,209,693006,0.0-62.0-1.0,"""event"",""trial"",""time""
""fullscreenenter"",""1"",""10272""
","
","
","""event"",""trial"",""time""
""fullscreenenter"",""1"",""10272""
","
",,null,run_exp/static/images/task_images/gems/13.jpg,null,,,,,,,2,,,12,,,,,13,0.143079814,0.153846154,,,,,,,
decision,210,693885,0.0-62.0-2.0,"""event"",""trial"",""time""
""fullscreenenter"",""1"",""10272""
","
","
","""event"",""trial"",""time""
""fullscreenenter"",""1"",""10272""
","
",,876.3,run_exp/static/images/task_images/land.jpg,76,,,,,,,2,,,12,,,,,,,,13457,2,1,TRUE,,,
travel,211,703014,0.0-63.0-0.0,"""event"",""trial"",""time""
""fullscreenenter"",""1"",""10272""
","
","
","""event"",""trial"",""time""
""fullscreenenter"",""1"",""10272""
","
",,,,,,,,,,,,"[{""stimulus"":""run_exp/static/images/task_images/rocket-01.jpg"",""time"":0.39999999990686774},{""stimulus"":""run_exp/static/images/task_images/rocket-02.jpg"",""time"":1022.8999999999069},{""stimulus"":""run_exp/static/images/task_images/rocket-03.jpg"",""time"":2032},{""stimulus"":""run_exp/static/images/task_images/rocket-04.jpg"",""time"":3051.8000000000466},{""stimulus"":""run_exp/static/images/task_images/rocket-05.jpg"",""time"":4062.6999999999534},{""stimulus"":""run_exp/static/images/task_images/rocket-06.jpg"",""time"":5072.199999999953},{""stimulus"":""run_exp/static/images/task_images/rocket-07.jpg"",""time"":6081.600000000093},{""stimulus"":""run_exp/static/images/task_images/rocket-08.jpg"",""time"":7102.899999999907},{""stimulus"":""run_exp/static/images/task_images/rocket-09.jpg"",""time"":8106}]",[],12,,,,,,,,,,,,,,
alien_welcome,212,708025,0.0-63.0-1.0,"""event"",""trial"",""time""
""fullscreenenter"",""1"",""10272""
","
","
","""event"",""trial"",""time""
""fullscreenenter"",""1"",""10272""
","
",,null,run_exp/static/images/task_images/aliens/old_aliens/planet/alien_planet-75.jpg,null,,,,,,,,,,,,,75,"22,47,21,60,70,48,31,35,24,57,59,4,75,46,1,61,73,16,44,28,12,63,14,58,38,74,37,18,30,51,13,17,52,45,67,62,39,2,68,3,66,20,40,32,69,53,49",,,,,,,,,,
land,213,708544,0.0-63.0-2.0,"""event"",""trial"",""time""
""fullscreenenter"",""1"",""10272""
","
","
","""event"",""trial"",""time""
""fullscreenenter"",""1"",""10272""
","
",,null,run_exp/static/images/task_images/land.jpg,null,,,,,,,101,,,13,,,,,,,,,,,,,,
dig,214,710554,0.0-63.0-3.0,"""event"",""trial"",""time""
""fullscreenenter"",""1"",""10272""
","
","
","""event"",""trial"",""time""
""fullscreenenter"",""1"",""10272""
","
",,,,,,,,,,,,"[{""stimulus"":""run_exp/static/images/task_images/dig.jpg"",""time"":0.19999999995343387},{""stimulus"":""run_exp/static/images/task_images/land.jpg"",""time"":675.6000000000931},{""stimulus"":""run_exp/static/images/task_images/dig.jpg"",""time"":1338.3000000000466}]",[],13,,,,,,,,,,,,,,
harvest,215,711562,0.0-63.0-4.0,"""event"",""trial"",""time""
""fullscreenenter"",""1"",""10272""
","
","
","""event"",""trial"",""time""
""fullscreenenter"",""1"",""10272""
","
",,null,run_exp/static/images/task_images/gems/101.jpg,null,,,,,,,34,,,13,,,,,101,0.334918869,0.336633663,,,,,,,
decision,216,712121,0.0-63.0-5.0,"""event"",""trial"",""time""
""fullscreenenter"",""1"",""10272""
","
","
","""event"",""trial"",""time""
""fullscreenenter"",""1"",""10272""
","
",,558,run_exp/static/images/task_images/land.jpg,65,,,,,,,34,,,13,,,,,,,,31694,2,0,FALSE,,,
dig,217,714585,0.0-64.0-0.0,"""event"",""trial"",""time""
""fullscreenenter"",""1"",""10272""
","
","
","""event"",""trial"",""time""
""fullscreenenter"",""1"",""10272""
","
",,,,,,,,,,,,"[{""stimulus"":""run_exp/static/images/task_images/dig.jpg"",""time"":0.5},{""stimulus"":""run_exp/static/images/task_images/land.jpg"",""time"":816.3000000000466},{""stimulus"":""run_exp/static/images/task_images/dig.jpg"",""time"":1632.5}]",[],13,,,,,,,,,,,,,,
harvest,218,715589,0.0-64.0-1.0,"""event"",""trial"",""time""
""fullscreenenter"",""1"",""10272""
","
","
","""event"",""trial"",""time""
""fullscreenenter"",""1"",""10272""
","
",,null,run_exp/static/images/task_images/gems/34.jpg,null,,,,,,,6,,,13,,,,,34,0.166313832,0.176470588,,,,,,,
decision,219,716576,0.0-64.0-2.0,"""event"",""trial"",""time""
""fullscreenenter"",""1"",""10272""
","
","
","""event"",""trial"",""time""
""fullscreenenter"",""1"",""10272""
","
",,985,run_exp/static/images/task_images/land.jpg,65,,,,,,,6,,,13,,,,,,,,36149,2,1,FALSE,,,
dig,220,718604,0.0-65.0-0.0,"""event"",""trial"",""time""
""fullscreenenter"",""1"",""10272""
","
","
","""event"",""trial"",""time""
""fullscreenenter"",""1"",""10272""
","
",,,,,,,,,,,,"[{""stimulus"":""run_exp/static/images/task_images/dig.jpg"",""time"":0.5999999998603016},{""stimulus"":""run_exp/static/images/task_images/land.jpg"",""time"":679.5},{""stimulus"":""run_exp/static/images/task_images/dig.jpg"",""time"":1349.5}]",[],13,,,,,,,,,,,,,,
harvest,221,719615,0.0-65.0-1.0,"""event"",""trial"",""time""
""fullscreenenter"",""1"",""10272""
","
","
","""event"",""trial"",""time""
""fullscreenenter"",""1"",""10272""
","
",,null,run_exp/static/images/task_images/gems/6.jpg,null,,,,,,,2,,,13,,,,,6,0.256956052,0.333333333,,,,,,,
decision,222,720367,0.0-65.0-2.0,"""event"",""trial"",""time""
""fullscreenenter"",""1"",""10272""
","
","
","""event"",""trial"",""time""
""fullscreenenter"",""1"",""10272""
","
",,749.3,run_exp/static/images/task_images/land.jpg,76,,,,,,,2,,,13,,,,,,,,39939,2,2,TRUE,,,
travel,223,729624,0.0-66.0-0.0,"""event"",""trial"",""time""
""fullscreenenter"",""1"",""10272""
","
","
","""event"",""trial"",""time""
""fullscreenenter"",""1"",""10272""
","
",,,,,,,,,,,,"[{""stimulus"":""run_exp/static/images/task_images/rocket-01.jpg"",""time"":0.6000000000931323},{""stimulus"":""run_exp/static/images/task_images/rocket-02.jpg"",""time"":1031.1999999999534},{""stimulus"":""run_exp/static/images/task_images/rocket-03.jpg"",""time"":2061.3000000000466},{""stimulus"":""run_exp/static/images/task_images/rocket-04.jpg"",""time"":3089.6999999999534},{""stimulus"":""run_exp/static/images/task_images/rocket-05.jpg"",""time"":4111.100000000093},{""stimulus"":""run_exp/static/images/task_images/rocket-06.jpg"",""time"":5141.199999999953},{""stimulus"":""run_exp/static/images/task_images/rocket-07.jpg"",""time"":6171.300000000047},{""stimulus"":""run_exp/static/images/task_images/rocket-08.jpg"",""time"":7201.199999999953},{""stimulus"":""run_exp/static/images/task_images/rocket-09.jpg"",""time"":8220.90000000014}]",[],13,,,,,,,,,,,,,,
alien_welcome,224,734634,0.0-66.0-1.0,"""event"",""trial"",""time""
""fullscreenenter"",""1"",""10272""
","
","
","""event"",""trial"",""time""
""fullscreenenter"",""1"",""10272""
","
",,null,run_exp/static/images/task_images/aliens/old_aliens/planet/alien_planet-46.jpg,null,,,,,,,,,,,,,46,"22,47,21,60,70,48,31,35,24,57,59,4,75,46,1,61,73,16,44,28,12,63,14,58,38,74,37,18,30,51,13,17,52,45,67,62,39,2,68,3,66,20,40,32,69,53,49",,,,,,,,,,
land,225,735138,0.0-66.0-2.0,"""event"",""trial"",""time""
""fullscreenenter"",""1"",""10272""
","
","
","""event"",""trial"",""time""
""fullscreenenter"",""1"",""10272""
","
",,null,run_exp/static/images/task_images/land.jpg,null,,,,,,,101,,,14,,,,,,,,,,,,,,
dig,226,737154,0.0-66.0-3.0,"""event"",""trial"",""time""
""fullscreenenter"",""1"",""10272""
","
","
","""event"",""trial"",""time""
""fullscreenenter"",""1"",""10272""
","
",,,,,,,,,,,,"[{""stimulus"":""run_exp/static/images/task_images/dig.jpg"",""time"":0.4000000001396984},{""stimulus"":""run_exp/static/images/task_images/land.jpg"",""time"":674},{""stimulus"":""run_exp/static/images/task_images/dig.jpg"",""time"":1343.3000000000466}]",[],14,,,,,,,,,,,,,,
harvest,227,738157,0.0-66.0-4.0,"""event"",""trial"",""time""
""fullscreenenter"",""1"",""10272""
","
","
","""event"",""trial"",""time""
""fullscreenenter"",""1"",""10272""
","
",,null,run_exp/static/images/task_images/gems/101.jpg,null,,,,,,,18,,,14,,,,,101,0.182399579,0.178217822,,,,,,,
decision,228,738491,0.0-66.0-5.0,"""event"",""trial"",""time""
""fullscreenenter"",""1"",""10272""
","
","
","""event"",""trial"",""time""
""fullscreenenter"",""1"",""10272""
","
",,331.9,run_exp/static/images/task_images/land.jpg,65,,,,,,,18,,,14,,,,,,,,58063,2,0,FALSE,,,
dig,229,741174,0.0-67.0-0.0,"""event"",""trial"",""time""
""fullscreenenter"",""1"",""10272""
","
","
","""event"",""trial"",""time""
""fullscreenenter"",""1"",""10272""
","
",,,,,,,,,,,,"[{""stimulus"":""run_exp/static/images/task_images/dig.jpg"",""time"":0.39999999990686774},{""stimulus"":""run_exp/static/images/task_images/land.jpg"",""time"":896.6999999999534},{""stimulus"":""run_exp/static/images/task_images/dig.jpg"",""time"":1786.8999999999069}]",[],14,,,,,,,,,,,,,,
harvest,230,742185,0.0-67.0-1.0,"""event"",""trial"",""time""
""fullscreenenter"",""1"",""10272""
","
","
","""event"",""trial"",""time""
""fullscreenenter"",""1"",""10272""
","
",,null,run_exp/static/images/task_images/gems/18.jpg,null,,,,,,,2,,,14,,,,,18,0.106183537,0.111111111,,,,,,,
decision,231,742991,0.0-67.0-2.0,"""event"",""trial"",""time""
""fullscreenenter"",""1"",""10272""
","
","
","""event"",""trial"",""time""
""fullscreenenter"",""1"",""10272""
","
",,797.5,run_exp/static/images/task_images/land.jpg,76,,,,,,,2,,,14,,,,,,,,62563,2,1,TRUE,,,
travel,232,752223,0.0-68.0-0.0,"""event"",""trial"",""time""
""fullscreenenter"",""1"",""10272""
","
","
","""event"",""trial"",""time""
""fullscreenenter"",""1"",""10272""
","
",,,,,,,,,,,,"[{""stimulus"":""run_exp/static/images/task_images/rocket-01.jpg"",""time"":0.8999999999068677},{""stimulus"":""run_exp/static/images/task_images/rocket-02.jpg"",""time"":1033.5},{""stimulus"":""run_exp/static/images/task_images/rocket-03.jpg"",""time"":2054.399999999907},{""stimulus"":""run_exp/static/images/task_images/rocket-04.jpg"",""time"":3078.100000000093},{""stimulus"":""run_exp/static/images/task_images/rocket-05.jpg"",""time"":4098.300000000047},{""stimulus"":""run_exp/static/images/task_images/rocket-06.jpg"",""time"":5113.399999999907},{""stimulus"":""run_exp/static/images/task_images/rocket-07.jpg"",""time"":6143.800000000047},{""stimulus"":""run_exp/static/images/task_images/rocket-08.jpg"",""time"":7162.5},{""stimulus"":""run_exp/static/images/task_images/rocket-09.jpg"",""time"":8184.699999999953}]",[],14,,,,,,,,,,,,,,
alien_welcome,233,757234,0.0-68.0-1.0,"""event"",""trial"",""time""
""fullscreenenter"",""1"",""10272""
","
","
","""event"",""trial"",""time""
""fullscreenenter"",""1"",""10272""
","
",,null,run_exp/static/images/task_images/aliens/old_aliens/planet/alien_planet-1.jpg,null,,,,,,,,,,,,,1,"22,47,21,60,70,48,31,35,24,57,59,4,75,46,1,61,73,16,44,28,12,63,14,58,38,74,37,18,30,51,13,17,52,45,67,62,39,2,68,3,66,20,40,32,69,53,49",,,,,,,,,,
land,234,757744,0.0-68.0-2.0,"""event"",""trial"",""time""
""fullscreenenter"",""1"",""10272""
","
","
","""event"",""trial"",""time""
""fullscreenenter"",""1"",""10272""
","
",,null,run_exp/static/images/task_images/land.jpg,null,,,,,,,94,,,15,,,,,,,,,,,,,,
dig,235,759754,0.0-68.0-3.0,"""event"",""trial"",""time""
""fullscreenenter"",""1"",""10272""
","
","
","""event"",""trial"",""time""
""fullscreenenter"",""1"",""10272""
","
",,,,,,,,,,,,"[{""stimulus"":""run_exp/static/images/task_images/dig.jpg"",""time"":0.5},{""stimulus"":""run_exp/static/images/task_images/land.jpg"",""time"":677.9000000001397},{""stimulus"":""run_exp/static/images/task_images/dig.jpg"",""time"":1337.7000000001863}]",[],15,,,,,,,,,,,,,,
harvest,236,760764,0.0-68.0-4.0,"""event"",""trial"",""time""
""fullscreenenter"",""1"",""10272""
","
","
","""event"",""trial"",""time""
""fullscreenenter"",""1"",""10272""
","
",,null,run_exp/static/images/task_images/gems/94.jpg,null,,,,,,,78,,,15,,,,,94,0.827240634,0.829787234,,,,,,,
decision,237,761397,0.0-68.0-5.0,"""event"",""trial"",""time""
""fullscreenenter"",""1"",""10272""
","
","
","""event"",""trial"",""time""
""fullscreenenter"",""1"",""10272""
","
",,630.1,run_exp/static/images/task_images/land.jpg,65,,,,,,,78,,,15,,,,,,,,80969,2,0,FALSE,,,
dig,238,763779,0.0-69.0-0.0,"""event"",""trial"",""time""
""fullscreenenter"",""1"",""10272""
","
","
","""event"",""trial"",""time""
""fullscreenenter"",""1"",""10272""
","
",,,,,,,,,,,,"[{""stimulus"":""run_exp/static/images/task_images/dig.jpg"",""time"":0.6999999999534339},{""stimulus"":""run_exp/static/images/task_images/land.jpg"",""time"":795.3999999999069},{""stimulus"":""run_exp/static/images/task_images/dig.jpg"",""time"":1595.8000000000466}]",[],15,,,,,,,,,,,,,,
harvest,239,764785,0.0-69.0-1.0,"""event"",""trial"",""time""
""fullscreenenter"",""1"",""10272""
","
","
","""event"",""trial"",""time""
""fullscreenenter"",""1"",""10272""
","
