trial_type,trial_index,time_elapsed,internal_node_id,interactions,blur_events,focus_events,fullscreenenter_events,fullscreenexit_events,success,rt,stimulus,key_press,prompt,subject_id,participant_id,age,gender,button_pressed,next_reward,animation_sequence,responses,planet,curr_prac_trial,n_prac_rounds,alien,aliens,reward_received,decay_rate_actual,decay_rate_exp,time_in_block,block_num,prt,last_trial_on_planet,button_html,bonus,num_failures
pavlovia,0,3,0.0-0.0,"""event"",""trial"",""time""
""fullscreenenter"",""1"",""5748""
","
","
","""event"",""trial"",""time""
""fullscreenenter"",""1"",""5748""
","
",,,,,,,,,,,,,,,,,,,,,,,,,,,,
fullscreen,1,6710,0.0-1.0,"""event"",""trial"",""time""
""fullscreenenter"",""1"",""5748""
","
","
","""event"",""trial"",""time""
""fullscreenenter"",""1"",""5748""
","
",TRUE,,,,,,,,,,,,,,,,,,,,,,,,,,,
instruc_welcome,2,16654,0.0-2.0,"""event"",""trial"",""time""
""fullscreenenter"",""1"",""5748""
","
","
","""event"",""trial"",""time""
""fullscreenenter"",""1"",""5748""
","
",,null,run_exp/static/audio/clip_1_welcome.m4a,null,"<p>Howdy! In this experiment, you’ll be an explorer traveling through space to collect space treasure.</p><p>Your mission is to collect as much treasure as possible.</p><br><br><p><img src='run_exp/static/images/task_images/opening_img-01.jpg' height='300' width='auto'></p>",10507,4891,25.67,Male,,,,,,,,,,,,,,,,,,,
audio-keyboard-response,3,33234,0.0-3.0,"""event"",""trial"",""time""
""fullscreenenter"",""1"",""5748""
","
","
","""event"",""trial"",""time""
""fullscreenenter"",""1"",""5748""
","
",,null,run_exp/static/audio/clip_2_move.m4a,null,,,,,,,,,,,,,,,,,,,,,,,,
welcome_dec,4,35260,0.0-4.0,"""event"",""trial"",""time""
""fullscreenenter"",""1"",""5748""
","
","
","""event"",""trial"",""time""
""fullscreenenter"",""1"",""5748""
","
",,2023.5,"<p>Howdy! In this experiment, you’ll be an explorer traveling through space to collect space treasure.</p><p>Your mission is to collect as much treasure as possible.</p><br><br><p><img src='run_exp/static/images/task_images/opening_img-01.jpg' height='300' width='auto'></p>",,,,,,,1,,,,,,,,,,,,,,,,,,
html-keyboard-response,5,37044,0.0-5.0,"""event"",""trial"",""time""
""fullscreenenter"",""1"",""5748""
","
","
","""event"",""trial"",""time""
""fullscreenenter"",""1"",""5748""
","
",,1781.7,"<p>Howdy! In this experiment, you’ll be an explorer traveling through space to collect space treasure.</p><p>Your mission is to collect as much treasure as possible.</p><br><br><p><img src='run_exp/static/images/task_images/opening_img-01.jpg' height='300' width='auto'></p><button class=""jspsych-html-btn-unchosen""><img src=""run_exp/static/images/task_images/planet-01.jpg"" height=""50""></button><button class=""jspsych-html-btn-chosen""><img src=""run_exp/static/images/task_images/planet-02.jpg"" height=""50""></button><p><b>[press the space bar to lock in your answer]<b><br></p>",32,,,,,,,,,,,,,,,,,,,,,,,,
instruc_goal,6,47114,0.0-6.0-0.0,"""event"",""trial"",""time""
""fullscreenenter"",""1"",""5748""
","
","
","""event"",""trial"",""time""
""fullscreenenter"",""1"",""5748""
","
",,null,run_exp/static/audio/clip_3_goal.m4a,null,"<p> As a space explorer, you’ll visit different planets to dig for space treasure, these pink gems.</p> <p> The more treasure you dig up, the more bonus money you’ll win! </p><br><br><p><img src='run_exp/static/images/task_images/pink_gem.jpg' height='300' width='auto'></p>",,,,,,,,,,,,,,,,,,,,,,,
instruc_goal,7,49052,0.0-6.0-1.0,"""event"",""trial"",""time""
""fullscreenenter"",""1"",""5748""
","
","
","""event"",""trial"",""time""
""fullscreenenter"",""1"",""5748""
","
",,1935.5,"<p> As a space explorer, you’ll visit different planets to dig for space treasure, these pink gems.</p> <p> The more treasure you dig up, the more bonus money you’ll win! </p><br><br><p><img src='run_exp/static/images/task_images/pink_gem.jpg' height='300' width='auto'></p>",,,,,,,1,,,,,,,,,,,,,,,,,,
html-keyboard-response,8,49702,0.0-6.0-2.0,"""event"",""trial"",""time""
""fullscreenenter"",""1"",""5748""
","
","
","""event"",""trial"",""time""
""fullscreenenter"",""1"",""5748""
","
",,649.2,"<p> As a space explorer, you’ll visit different planets to dig for space treasure, these pink gems.</p> <p> The more treasure you dig up, the more bonus money you’ll win! </p><br><br><p><img src='run_exp/static/images/task_images/pink_gem.jpg' height='300' width='auto'></p><button class=""jspsych-html-btn-unchosen""><img src=""run_exp/static/images/task_images/planet-01.jpg"" height=""50""></button><button class=""jspsych-html-btn-chosen""><img src=""run_exp/static/images/task_images/planet-02.jpg"" height=""50""></button><p><b>[press the space bar to lock in your answer]<b><br></p>",32,,,,,,,,,,,,,,,,,,,,,,,,
instruc_dig,9,65693,0.0-7.0-0.0,"""event"",""trial"",""time""
""fullscreenenter"",""1"",""5748""
","
","
","""event"",""trial"",""time""
""fullscreenenter"",""1"",""5748""
","
",,null,run_exp/static/audio/clip_4_dig.m4a,null,,,,,,,100,,,,,,,,,,,,,,,,,
instruc_dig_try,10,67092,0.0-7.0-1.0,"""event"",""trial"",""time""
""fullscreenenter"",""1"",""5748""
","
","
","""event"",""trial"",""time""
""fullscreenenter"",""1"",""5748""
","
",,1397,"<p> When you’ve arrived at a new planet, you will dig once. </p> <p>Then, you get to decide if you want to stay on the planet and dig again or travel to a new planet and dig there.</p> <p> To stay and dig, press the letter <strong>‘A’</strong> on your keyboard. Try pressing it now! </p><p><img src='run_exp/static/images/task_images/land.jpg'  height='700' width='auto'></p>",65,"<p> When you’ve arrived at a new planet, you will dig once. </p> <p>Then, you get to decide if you want to stay on the planet and dig again or travel to a new planet and dig there.</p> <p> To stay and dig, press the letter <strong>‘A’</strong> on your keyboard. Try pressing it now! </p><p><img src='run_exp/static/images/task_images/land.jpg'  height='700' width='auto'></p>",,,,,,100,,,,,,,,,,,,,,,,,
dig_prac,11,69110,0.0-7.0-2.0,"""event"",""trial"",""time""
""fullscreenenter"",""1"",""5748""
","
","
","""event"",""trial"",""time""
""fullscreenenter"",""1"",""5748""
","
",,,,,,,,,,,,"[{""stimulus"":""run_exp/static/images/task_images/dig.jpg"",""time"":0.19999999552965164},{""stimulus"":""run_exp/static/images/task_images/land.jpg"",""time"":670.1999999955297},{""stimulus"":""run_exp/static/images/task_images/dig.jpg"",""time"":1336.5999999940395}]",[],,,,,,,,,,,,,,,
instruc_travel,12,105354,0.0-7.0-3.0,"""event"",""trial"",""time""
""fullscreenenter"",""1"",""5748""
","
","
","""event"",""trial"",""time""
""fullscreenenter"",""1"",""5748""
","
",,null,run_exp/static/audio/clip_5_travel.m4a,null,"<p>Every time you dig up gems, there are less gems on the planet, so the more you dig on a planet the fewer gems you’ll get with each dig.</p><p>When gems are running low, you may want to travel to a new planet. </p> <p>  Planets are very far apart in this galaxy, so it will take some time to travel between them. </p> <br><p>There are lots and lots of planets for you to visit, so you won’t be able to return to any planets you’ve seen before. </p><br><p>To leave this planet and travel to a new one, press the letter <strong>‘L’</strong> on your keyboard. Try pressing it now! </p><p><img src='run_exp/static/images/task_images/rocket-01.jpg'  height='600' width='auto'></p>",,,,,,,,,,,,,,,,,,,,,,,
instruc_travel_try,13,109876,0.0-7.0-4.0,"""event"",""trial"",""time""
""fullscreenenter"",""1"",""5748""
","
","
","""event"",""trial"",""time""
""fullscreenenter"",""1"",""5748""
","
",,4520.6,"<p>Every time you dig up gems, there are less gems on the planet, so the more you dig on a planet the fewer gems you’ll get with each dig.</p><p>When gems are running low, you may want to travel to a new planet. </p> <p>  Planets are very far apart in this galaxy, so it will take some time to travel between them. </p> <br><p>There are lots and lots of planets for you to visit, so you won’t be able to return to any planets you’ve seen before. </p><br><p>To leave this planet and travel to a new one, press the letter <strong>‘L’</strong> on your keyboard. Try pressing it now! </p><p><img src='run_exp/static/images/task_images/rocket-01.jpg'  height='600' width='auto'></p>",76,"<p>Every time you dig up gems, there are less gems on the planet, so the more you dig on a planet the fewer gems you’ll get with each dig.</p><p>When gems are running low, you may want to travel to a new planet. </p> <p>  Planets are very far apart in this galaxy, so it will take some time to travel between them. </p> <br><p>There are lots and lots of planets for you to visit, so you won’t be able to return to any planets you’ve seen before. </p><br><p>To leave this planet and travel to a new one, press the letter <strong>‘L’</strong> on your keyboard. Try pressing it now! </p><p><img src='run_exp/static/images/task_images/rocket-01.jpg'  height='600' width='auto'></p>",,,,,,,,,,,,,,,,,,,,,,,
travel_prac,14,119893,0.0-7.0-5.0,"""event"",""trial"",""time""
""fullscreenenter"",""1"",""5748""
","
","
","""event"",""trial"",""time""
""fullscreenenter"",""1"",""5748""
","
",,,,,,,,,,,,"[{""stimulus"":""run_exp/static/images/task_images/rocket-01.jpg"",""time"":0.3999999985098839},{""stimulus"":""run_exp/static/images/task_images/rocket-02.jpg"",""time"":1113.8999999985099},{""stimulus"":""run_exp/static/images/task_images/rocket-03.jpg"",""time"":2223.2999999970198},{""stimulus"":""run_exp/static/images/task_images/rocket-04.jpg"",""time"":3334.5999999940395},{""stimulus"":""run_exp/static/images/task_images/rocket-05.jpg"",""time"":4451.19999999553},{""stimulus"":""run_exp/static/images/task_images/rocket-06.jpg"",""time"":5567.5},{""stimulus"":""run_exp/static/images/task_images/rocket-07.jpg"",""time"":6668.29999999702},{""stimulus"":""run_exp/static/images/task_images/rocket-08.jpg"",""time"":7791.29999999702},{""stimulus"":""run_exp/static/images/task_images/rocket-09.jpg"",""time"":8890.29999999702}]",[],0,,,,,,,,,,,,,,
instruc_alien_greet,15,147074,0.0-7.0-6.0,"""event"",""trial"",""time""
""fullscreenenter"",""1"",""5748""
","
","
","""event"",""trial"",""time""
""fullscreenenter"",""1"",""5748""
","
",,null,run_exp/static/audio/clip_6_alien.m4a,null,"<p>When you arrive at a new planet, the alien who owns the treasure mine on that planet will greet you!</p><p>The better an alien takes care of their mine the easier it is to dig for gems. Some aliens take better care of their mine than others. So, you won’t get exactly the same amount of gems on each planet.</p><p>What the alien looks like does not tell you anything about how many gems there are on the planet.</p><br><p><img src=""run_exp/static/images/task_images/aliens/instructions_aliens/planet/alien_planet-1.jpg""  height=""600"" width=""auto""></p>",,,,,,,,,,,,,,,,,,,,,,,
instruc_alien_greet,16,153419,0.0-7.0-7.0,"""event"",""trial"",""time""
""fullscreenenter"",""1"",""5748""
","
","
","""event"",""trial"",""time""
""fullscreenenter"",""1"",""5748""
","
",,6342.3,"<p>When you arrive at a new planet, the alien who owns the treasure mine on that planet will greet you!</p><p>The better an alien takes care of their mine the easier it is to dig for gems. Some aliens take better care of their mine than others. So, you won’t get exactly the same amount of gems on each planet.</p><p>What the alien looks like does not tell you anything about how many gems there are on the planet.</p><br><p><img src=""run_exp/static/images/task_images/aliens/instructions_aliens/planet/alien_planet-1.jpg""  height=""600"" width=""auto""></p>",,,,,,,1,,,,,,,,,,,,,,,,,,
html-keyboard-response,17,154979,0.0-7.0-8.0,"""event"",""trial"",""time""
""fullscreenenter"",""1"",""5748""
","
","
","""event"",""trial"",""time""
""fullscreenenter"",""1"",""5748""
","
",,1558.5,"<p>When you arrive at a new planet, the alien who owns the treasure mine on that planet will greet you!</p><p>The better an alien takes care of their mine the easier it is to dig for gems. Some aliens take better care of their mine than others. So, you won’t get exactly the same amount of gems on each planet.</p><p>What the alien looks like does not tell you anything about how many gems there are on the planet.</p><br><p><img src=""run_exp/static/images/task_images/aliens/instructions_aliens/planet/alien_planet-1.jpg""  height=""600"" width=""auto""></p><button class=""jspsych-html-btn-unchosen""><img src=""run_exp/static/images/task_images/planet-01.jpg"" height=""50""></button><button class=""jspsych-html-btn-chosen""><img src=""run_exp/static/images/task_images/planet-02.jpg"" height=""50""></button><p><b>[press the space bar to lock in your answer]<b><br></p>",32,,,,,,,,,,,,,,,,,,,,,,,,
time_out,18,166055,0.0-8.0-0.0,"""event"",""trial"",""time""
""fullscreenenter"",""1"",""5748""
","
","
","""event"",""trial"",""time""
""fullscreenenter"",""1"",""5748""
","
",,null,run_exp/static/audio/clip_7_timeout.m4a,null,"<p>If you don't make your choice fast enough, you’ll have to wait a few seconds before you can make another one.</p><p>You can’t dig for more gems or travel to new planets. You just have to sit and wait.</p><br><p><img src='run_exp/static/images/task_images/time_out.jpg'  height='600' width='auto'></p>",,,,,,,,,,,,,,,,,,,,,,,
time_out,19,172011,0.0-8.0-1.0,"""event"",""trial"",""time""
""fullscreenenter"",""1"",""5748""
","
","
","""event"",""trial"",""time""
""fullscreenenter"",""1"",""5748""
","
",,5954.6,"<p>If you don't make your choice fast enough, you’ll have to wait a few seconds before you can make another one.</p><p>You can’t dig for more gems or travel to new planets. You just have to sit and wait.</p><br><p><img src='run_exp/static/images/task_images/time_out.jpg'  height='600' width='auto'></p>",,,,,,,1,,,,,,,,,,,,,,,,,,
html-keyboard-response,20,173302,0.0-8.0-2.0,"""event"",""trial"",""time""
""fullscreenenter"",""1"",""5748""
","
","
","""event"",""trial"",""time""
""fullscreenenter"",""1"",""5748""
","
",,1288.9,"<p>If you don't make your choice fast enough, you’ll have to wait a few seconds before you can make another one.</p><p>You can’t dig for more gems or travel to new planets. You just have to sit and wait.</p><br><p><img src='run_exp/static/images/task_images/time_out.jpg'  height='600' width='auto'></p><button class=""jspsych-html-btn-unchosen""><img src=""run_exp/static/images/task_images/planet-01.jpg"" height=""50""></button><button class=""jspsych-html-btn-chosen""><img src=""run_exp/static/images/task_images/planet-02.jpg"" height=""50""></button><p><b>[press the space bar to lock in your answer]<b><br></p>",32,,,,,,,,,,,,,,,,,,,,,,,,
instruc_break,21,188973,0.0-9.0-0.0,"""event"",""trial"",""time""
""fullscreenenter"",""1"",""5748""
","
","
","""event"",""trial"",""time""
""fullscreenenter"",""1"",""5748""
","
",,null,run_exp/static/audio/clip_8_break.m4a,null,"<p> After digging and traveling for a while, you’ll be able to take a break at home base. </p><p>The game will last 20 minutes no matter what.</p><p>You will visit home base every 5 minutes, so, you will visit home base three times during the game.</p><br><p><img src='run_exp/static/images/task_images/home_base.jpg' height='600' width='auto'></p>",,,,,,,,,,,,,,,,,,,,,,,
instruc_break,22,193451,0.0-9.0-1.0,"""event"",""trial"",""time""
""fullscreenenter"",""1"",""5748""
","
","
","""event"",""trial"",""time""
""fullscreenenter"",""1"",""5748""
","
",,4476.4,"<p> After digging and traveling for a while, you’ll be able to take a break at home base. </p><p>The game will last 20 minutes no matter what.</p><p>You will visit home base every 5 minutes, so, you will visit home base three times during the game.</p><br><p><img src='run_exp/static/images/task_images/home_base.jpg' height='600' width='auto'></p>",,,,,,,1,,,,,,,,,,,,,,,,,,
html-keyboard-response,23,194582,0.0-9.0-2.0,"""event"",""trial"",""time""
""fullscreenenter"",""1"",""5748""
","
","
","""event"",""trial"",""time""
""fullscreenenter"",""1"",""5748""
","
",,1129.6,"<p> After digging and traveling for a while, you’ll be able to take a break at home base. </p><p>The game will last 20 minutes no matter what.</p><p>You will visit home base every 5 minutes, so, you will visit home base three times during the game.</p><br><p><img src='run_exp/static/images/task_images/home_base.jpg' height='600' width='auto'></p><button class=""jspsych-html-btn-unchosen""><img src=""run_exp/static/images/task_images/planet-01.jpg"" height=""50""></button><button class=""jspsych-html-btn-chosen""><img src=""run_exp/static/images/task_images/planet-02.jpg"" height=""50""></button><p><b>[press the space bar to lock in your answer]<b><br></p>",32,,,,,,,,,,,,,,,,,,,,,,,,
instruc_prac_game,24,204714,0.0-10.0-0.0,"""event"",""trial"",""time""
""fullscreenenter"",""1"",""5748""
","
","
","""event"",""trial"",""time""
""fullscreenenter"",""1"",""5748""
","
",,null,run_exp/static/audio/clip_9_practice.m4a,null,"<p> Are you ready to play a practice game? </p> <p>In this practice game, you'll be digging up barrels of gems. But, in the real game, you'll be digging up the gems themselves. </p>",,,,,,,,,,,,,,,,,,,,,,,
html-button-response,25,206850,0.0-10.0-1.0,"""event"",""trial"",""time""
""fullscreenenter"",""1"",""5748""
","
","
","""event"",""trial"",""time""
""fullscreenenter"",""1"",""5748""
","
",,2135.1,"<p> Are you ready to play a practice game? </p> <p>In this practice game, you'll be digging up barrels of gems. But, in the real game, you'll be digging up the gems themselves. </p>",,,,,,,0,,,,,,,,,,,,,,,,,,
alien_welcome_prac,26,211860,0.0-11.0-0.0,"""event"",""trial"",""time""
""fullscreenenter"",""1"",""5748""
","
","
","""event"",""trial"",""time""
""fullscreenenter"",""1"",""5748""
","
",,null,run_exp/static/images/task_images/aliens/practice_aliens/planet/alien_planet-5.jpg,null,,,,,,,,,,,,,,,,,,,,,,,,
land_prac,27,212374,0.0-11.0-1.0,"""event"",""trial"",""time""
""fullscreenenter"",""1"",""5748""
","
","
","""event"",""trial"",""time""
""fullscreenenter"",""1"",""5748""
","
",,null,run_exp/static/images/task_images/land.jpg,null,,,,,,,98,,,0,,,,,,,,,,,,,,
dig_prac,28,214389,0.0-11.0-2.0,"""event"",""trial"",""time""
""fullscreenenter"",""1"",""5748""
","
","
","""event"",""trial"",""time""
""fullscreenenter"",""1"",""5748""
","
",,,,,,,,,,,,"[{""stimulus"":""run_exp/static/images/task_images/dig.jpg"",""time"":0.4000000059604645},{""stimulus"":""run_exp/static/images/task_images/land.jpg"",""time"":681.9000000059605},{""stimulus"":""run_exp/static/images/task_images/dig.jpg"",""time"":1348.3000000044703}]",[],,,,,,,,,,,,,,,
harvest_prac,29,215403,0.0-11.0-3.0,"""event"",""trial"",""time""
""fullscreenenter"",""1"",""5748""
","
","
","""event"",""trial"",""time""
""fullscreenenter"",""1"",""5748""
","
",,null,run_exp/static/images/task_images/barrel_text.jpg,null,,,,,,,,,,,,,,,,,,,,,,,,
decision_prac,30,217308,0.0-11.0-4.0,"""event"",""trial"",""time""
""fullscreenenter"",""1"",""5748""
","
","
","""event"",""trial"",""time""
""fullscreenenter"",""1"",""5748""
","
",,1902.7,run_exp/static/images/task_images/land.jpg,65,,,,,,,,,,,1,,,,,,,,,,,,,
dig_prac,31,219326,0.0-12.0-0.0,"""event"",""trial"",""time""
""fullscreenenter"",""1"",""5748""
","
","
","""event"",""trial"",""time""
""fullscreenenter"",""1"",""5748""
","
",,,,,,,,,,,,"[{""stimulus"":""run_exp/static/images/task_images/dig.jpg"",""time"":0.09999999403953552},{""stimulus"":""run_exp/static/images/task_images/land.jpg"",""time"":677},{""stimulus"":""run_exp/static/images/task_images/dig.jpg"",""time"":1345.7999999970198}]",[],,,,,,,,,,,,,,,
harvest_prac,32,220337,0.0-12.0-1.0,"""event"",""trial"",""time""
""fullscreenenter"",""1"",""5748""
","
","
","""event"",""trial"",""time""
""fullscreenenter"",""1"",""5748""
","
",,null,run_exp/static/images/task_images/barrel_text.jpg,null,,,,,,,,,,,,,,,,,,,,,,,,
decision_prac,33,221149,0.0-12.0-2.0,"""event"",""trial"",""time""
""fullscreenenter"",""1"",""5748""
","
","
","""event"",""trial"",""time""
""fullscreenenter"",""1"",""5748""
","
",,811.4,run_exp/static/images/task_images/land.jpg,65,,,,,,,,,,,2,,,,,,,,,,,,,
dig_prac,34,223167,0.0-13.0-0.0,"""event"",""trial"",""time""
""fullscreenenter"",""1"",""5748""
","
","
","""event"",""trial"",""time""
""fullscreenenter"",""1"",""5748""
","
",,,,,,,,,,,,"[{""stimulus"":""run_exp/static/images/task_images/dig.jpg"",""time"":0.19999999552965164},{""stimulus"":""run_exp/static/images/task_images/land.jpg"",""time"":678.7999999970198},{""stimulus"":""run_exp/static/images/task_images/dig.jpg"",""time"":1345.6000000014901}]",[],,,,,,,,,,,,,,,
harvest_prac,35,224180,0.0-13.0-1.0,"""event"",""trial"",""time""
""fullscreenenter"",""1"",""5748""
","
","
","""event"",""trial"",""time""
""fullscreenenter"",""1"",""5748""
","
",,null,run_exp/static/images/task_images/barrel_text.jpg,null,,,,,,,,,,,,,,,,,,,,,,,,
decision_prac,36,224782,0.0-13.0-2.0,"""event"",""trial"",""time""
""fullscreenenter"",""1"",""5748""
","
","
","""event"",""trial"",""time""
""fullscreenenter"",""1"",""5748""
","
",,601,run_exp/static/images/task_images/land.jpg,65,,,,,,,,,,,3,,,,,,,,,,,,,
dig_prac,37,226793,0.0-14.0-0.0,"""event"",""trial"",""time""
""fullscreenenter"",""1"",""5748""
","
","
","""event"",""trial"",""time""
""fullscreenenter"",""1"",""5748""
","
",,,,,,,,,,,,"[{""stimulus"":""run_exp/static/images/task_images/dig.jpg"",""time"":0.20000000298023224},{""stimulus"":""run_exp/static/images/task_images/land.jpg"",""time"":672.2000000029802},{""stimulus"":""run_exp/static/images/task_images/dig.jpg"",""time"":1340.3999999985099}]",[],,,,,,,,,,,,,,,
harvest_prac,38,227807,0.0-14.0-1.0,"""event"",""trial"",""time""
""fullscreenenter"",""1"",""5748""
","
","
","""event"",""trial"",""time""
""fullscreenenter"",""1"",""5748""
","
",,null,run_exp/static/images/task_images/barrel_text.jpg,null,,,,,,,,,,,,,,,,,,,,,,,,
decision_prac,39,228139,0.0-14.0-2.0,"""event"",""trial"",""time""
""fullscreenenter"",""1"",""5748""
","
","
","""event"",""trial"",""time""
""fullscreenenter"",""1"",""5748""
","
",,330.3,run_exp/static/images/task_images/land.jpg,65,,,,,,,,,,,4,,,,,,,,,,,,,
dig_prac,40,230152,0.0-15.0-0.0,"""event"",""trial"",""time""
""fullscreenenter"",""1"",""5748""
","
","
","""event"",""trial"",""time""
""fullscreenenter"",""1"",""5748""
","
",,,,,,,,,,,,"[{""stimulus"":""run_exp/static/images/task_images/dig.jpg"",""time"":0.20000000298023224},{""stimulus"":""run_exp/static/images/task_images/land.jpg"",""time"":673.8999999985099},{""stimulus"":""run_exp/static/images/task_images/dig.jpg"",""time"":1340.1000000014901}]",[],,,,,,,,,,,,,,,
harvest_prac,41,231166,0.0-15.0-1.0,"""event"",""trial"",""time""
""fullscreenenter"",""1"",""5748""
","
","
","""event"",""trial"",""time""
""fullscreenenter"",""1"",""5748""
","
",,null,run_exp/static/images/task_images/barrel_text.jpg,null,,,,,,,,,,,,,,,,,,,,,,,,
decision_prac,42,231662,0.0-15.0-2.0,"""event"",""trial"",""time""
""fullscreenenter"",""1"",""5748""
","
","
","""event"",""trial"",""time""
""fullscreenenter"",""1"",""5748""
","
",,494.3,run_exp/static/images/task_images/land.jpg,65,,,,,,,,,,,,1,,,,,,,,,,,,
quiz_instruc,43,243588,0.0-16.0-0.0,"""event"",""trial"",""time""
""fullscreenenter"",""1"",""5748""
","
","
","""event"",""trial"",""time""
""fullscreenenter"",""1"",""5748""
","
",,11921.5,run_exp/static/audio/clip_10_quiz.m4a,,,,,,,0,,,,,,,,,,,,,,,,,,
instruc_repeat,44,286344,0.0-16.0-1.0,"""event"",""trial"",""time""
""fullscreenenter"",""1"",""5748""
","
","
","""event"",""trial"",""time""
""fullscreenenter"",""1"",""5748""
","
",,null,"<p> Are you ready to play a practice game? </p> <p>In this practice game, you'll be digging up barrels of gems. But, in the real game, you'll be digging up the gems themselves. </p>",null,"<p>In this game, your goal is to collect as many gems as you can. That’s how you will win bonus money. </p> <p>The entire game will last 20 minutes no matter how many gems you collect or how many planets you visit. </p><p>To stay on a planet and dig again, press the letter A on your keyboard. To leave for a new planet, press the letter L.</p><p>The more you dig on a planet, the fewer gems you’ll get with each dig which is why you might consider leaving for a new planet. </p><p>When you arrive at a new planet, you’ll be greeted by an alien. What the alien looks like does not tell you anything about how much treasure is on the planet. </p>",,,,,,,,,,,,,,,,,,,,,,,
instruc_repeat_continue,45,288148,0.0-16.0-2.0,"""event"",""trial"",""time""
""fullscreenenter"",""1"",""5748""
","
","
","""event"",""trial"",""time""
""fullscreenenter"",""1"",""5748""
","
",,1801.9,"<p> Are you ready to play a practice game? </p> <p>In this practice game, you'll be digging up barrels of gems. But, in the real game, you'll be digging up the gems themselves. </p>",,,,,,,0,,,,,,,,,,,,,,,,,,
quiz_q_1_ask,46,293732,0.0-16.0-3.0,"""event"",""trial"",""time""
""fullscreenenter"",""1"",""5748""
","
","
","""event"",""trial"",""time""
""fullscreenenter"",""1"",""5748""
","
",,5582.5,run_exp/static/audio/clip_11_q1_ask.m4a,,,,,,,2,,,,,,,,,,,,,,,,,,
quiz_q_1_fb_correct,47,297583,0.0-17.0-0.0,"""event"",""trial"",""time""
""fullscreenenter"",""1"",""5748""
","
","
","""event"",""trial"",""time""
""fullscreenenter"",""1"",""5748""
","
",,null,run_exp/static/audio/clip_12_q1_correct.m4a,null,<p>That’s correct. You win extra money by collecting more gems.</p>,,,,,,,,,,,,,,,,,,,,,,,
quiz_q_2_ask,48,304427,0.0-17.0-1.0,"""event"",""trial"",""time""
""fullscreenenter"",""1"",""5748""
","
","
","""event"",""trial"",""time""
""fullscreenenter"",""1"",""5748""
","
",,6842,run_exp/static/audio/clip_14_q2_ask.m4a,,,,,,,1,,,,,,,,,,,,,,,,,,
quiz_q_2_fb_correct,49,308423,0.0-18.0-0.0,"""event"",""trial"",""time""
""fullscreenenter"",""1"",""5748""
","
","
","""event"",""trial"",""time""
""fullscreenenter"",""1"",""5748""
","
",,null,run_exp/static/audio/clip_15_q2_correct.m4a,null,<p>That’s correct. The experiment is 20 minutes no matter what.</p>,,,,,,,,,,,,,,,,,,,,,,,
quiz_q_3_ask,50,312556,0.0-18.0-1.0,"""event"",""trial"",""time""
""fullscreenenter"",""1"",""5748""
","
","
","""event"",""trial"",""time""
""fullscreenenter"",""1"",""5748""
","
",,4131.1,run_exp/static/audio/clip_17_q3_ask.m4a,,,,,,,1,,,,,,,,,,,,,,,,,,
quiz_q_3_fb_correct,51,316544,0.0-19.0-0.0,"""event"",""trial"",""time""
""fullscreenenter"",""1"",""5748""
","
","
","""event"",""trial"",""time""
""fullscreenenter"",""1"",""5748""
","
",,null,run_exp/static/audio/clip_18_q3_correct.m4a,null,<p> That’s correct. You press the letter L to travel to a new planet.</p>,,,,,,,,,,,,,,,,,,,,,,,
quiz_q_4_ask,52,322748,0.0-19.0-1.0,"""event"",""trial"",""time""
""fullscreenenter"",""1"",""5748""
","
","
","""event"",""trial"",""time""
""fullscreenenter"",""1"",""5748""
","
",,6201.9,run_exp/static/audio/clip_20_q4_ask.m4a,,,,,,,0,,,,,,,,,,,,,,,,,,
quiz_q_4_fb_correct,53,328064,0.0-20.0-0.0,"""event"",""trial"",""time""
""fullscreenenter"",""1"",""5748""
","
","
","""event"",""trial"",""time""
""fullscreenenter"",""1"",""5748""
","
",,null,run_exp/static/audio/clip_21_q4_correct.m4a,null,<p> That’s correct. The more you dig on a planet the fewer gems you’ll get with each dig. </p>,,,,,,,,,,,,,,,,,,,,,,,
quiz_q_5_ask,54,331979,0.0-20.0-1.0,"""event"",""trial"",""time""
""fullscreenenter"",""1"",""5748""
","
","
","""event"",""trial"",""time""
""fullscreenenter"",""1"",""5748""
","
",,3913.8,run_exp/static/audio/clip_23_q5_ask.m4a,,,,,,,1,,,,,,,,,,,,,,,,,,
quiz_q_5_fb_correct,55,336984,0.0-21.0-0.0,"""event"",""trial"",""time""
""fullscreenenter"",""1"",""5748""
","
","
","""event"",""trial"",""time""
""fullscreenenter"",""1"",""5748""
","
",,null,run_exp/static/audio/clip_24_q5_correct.m4a,null,<p> That’s correct. The alien tells you nothing about how much treasure is on the planet.</p>,,,,,,,,,,,,,,,,,,,,,,,
quiz_correct,56,340444,0.0-22.0-0.0,"""event"",""trial"",""time""
""fullscreenenter"",""1"",""5748""
","
","
","""event"",""trial"",""time""
""fullscreenenter"",""1"",""5748""
","
",,null,run_exp/static/audio/clip_26_correct_quiz.m4a,null,,,,,,,,,,,,,,,,,,,,,,,,
quiz_correct_continue,57,342339,0.0-22.0-1.0,"""event"",""trial"",""time""
""fullscreenenter"",""1"",""5748""
","
","
","""event"",""trial"",""time""
""fullscreenenter"",""1"",""5748""
","
",,1894.5,<p>Good job! You're now ready to move on to the real game!</p>,,,,,,,0,,,,,,,,,,,,,,,,,,
audio-keyboard-response,58,352463,0.0-22.0-2.0,"""event"",""trial"",""time""
""fullscreenenter"",""1"",""5748""
","
","
","""event"",""trial"",""time""
""fullscreenenter"",""1"",""5748""
","
",,null,run_exp/static/audio/clip_28_real_game.m4a,null,,,,,,,,,,,,,,,,,,,,,,,,
instruc_begin_exp_contine,59,353595,0.0-22.0-3.0,"""event"",""trial"",""time""
""fullscreenenter"",""1"",""5748""
","
","
","""event"",""trial"",""time""
""fullscreenenter"",""1"",""5748""
","
",,1130.2,"<p>Now that you know how  to dig for space treasure and travel to new planets,you can start exploring! </p><p>Do you want to go over the instructions again or get started with the real game?</p>",,,,,,,1,,,,,,1,,,,,,,,,,,,
alien_welcome,60,358606,0.0-23.0-0.0,"""event"",""trial"",""time""
""fullscreenenter"",""1"",""5748""
","
","
","""event"",""trial"",""time""
""fullscreenenter"",""1"",""5748""
","
",,null,run_exp/static/images/task_images/aliens/old_aliens/planet/alien_planet-60.jpg,null,,,,,,,,,,,,,60,"60,63,62,55,51,21,5,12,74,68,49,7,38,23,13,20,3,15,57,31,6,28,34,73,46,70,66,1,43,4,36,80,39,33,16,24,10,27,61,54,64,47,22,25",,,,,,,,,,
land,61,359114,0.0-23.0-1.0,"""event"",""trial"",""time""
""fullscreenenter"",""1"",""5748""
","
","
","""event"",""trial"",""time""
""fullscreenenter"",""1"",""5748""
","
",,null,run_exp/static/images/task_images/land.jpg,null,,,,,,,101,,,1,,,,,,,,,,,,,,
dig,62,361133,0.0-23.0-2.0,"""event"",""trial"",""time""
""fullscreenenter"",""1"",""5748""
","
","
","""event"",""trial"",""time""
""fullscreenenter"",""1"",""5748""
","
",,,,,,,,,,,,"[{""stimulus"":""run_exp/static/images/task_images/dig.jpg"",""time"":0.20000000298023224},{""stimulus"":""run_exp/static/images/task_images/land.jpg"",""time"":681.2000000029802},{""stimulus"":""run_exp/static/images/task_images/dig.jpg"",""time"":1335.7000000029802}]",[],1,,,,,,,,,,,,,,
harvest,63,362147,0.0-23.0-3.0,"""event"",""trial"",""time""
""fullscreenenter"",""1"",""5748""
","
","
","""event"",""trial"",""time""
""fullscreenenter"",""1"",""5748""
","
",,null,run_exp/static/images/task_images/gems/101.jpg,null,,,,,,,25,,,1,,,,,101,0.251366115,0.247524752,,,,,,,
decision,64,362246,0.0-23.0-4.0,"""event"",""trial"",""time""
""fullscreenenter"",""1"",""5748""
","
","
","""event"",""trial"",""time""
""fullscreenenter"",""1"",""5748""
","
",,97.3,run_exp/static/images/task_images/land.jpg,65,,,,,,,25,,,1,,,,,,,,8651,1,0,FALSE,,,
dig,65,365160,0.0-24.0-0.0,"""event"",""trial"",""time""
""fullscreenenter"",""1"",""5748""
","
","
","""event"",""trial"",""time""
""fullscreenenter"",""1"",""5748""
","
",,,,,,,,,,,,"[{""stimulus"":""run_exp/static/images/task_images/dig.jpg"",""time"":0.10000000149011612},{""stimulus"":""run_exp/static/images/task_images/land.jpg"",""time"":980.2000000029802},{""stimulus"":""run_exp/static/images/task_images/dig.jpg"",""time"":1946.1000000014901}]",[],1,,,,,,,,,,,,,,
harvest,66,366172,0.0-24.0-1.0,"""event"",""trial"",""time""
""fullscreenenter"",""1"",""5748""
","
","
","""event"",""trial"",""time""
""fullscreenenter"",""1"",""5748""
","
",,null,run_exp/static/images/task_images/gems/25.jpg,null,,,,,,,4,,,1,,,,,25,0.157693774,0.16,,,,,,,
decision,67,366747,0.0-24.0-2.0,"""event"",""trial"",""time""
""fullscreenenter"",""1"",""5748""
","
","
","""event"",""trial"",""time""
""fullscreenenter"",""1"",""5748""
","
",,572.7,run_exp/static/images/task_images/land.jpg,65,,,,,,,4,,,1,,,,,,,,13151,1,1,FALSE,,,
dig,68,369190,0.0-25.0-0.0,"""event"",""trial"",""time""
""fullscreenenter"",""1"",""5748""
","
","
","""event"",""trial"",""time""
""fullscreenenter"",""1"",""5748""
","
",,,,,,,,,,,,"[{""stimulus"":""run_exp/static/images/task_images/dig.jpg"",""time"":0.19999999552965164},{""stimulus"":""run_exp/static/images/task_images/land.jpg"",""time"":810.2999999970198},{""stimulus"":""run_exp/static/images/task_images/dig.jpg"",""time"":1632.8999999985099}]",[],1,,,,,,,,,,,,,,
harvest,69,370191,0.0-25.0-1.0,"""event"",""trial"",""time""
""fullscreenenter"",""1"",""5748""
","
","
","""event"",""trial"",""time""
""fullscreenenter"",""1"",""5748""
","
",,null,run_exp/static/images/task_images/gems/4.jpg,null,,,,,,,1,,,1,,,,,4,0.238600624,0.25,,,,,,,
decision,70,370438,0.0-25.0-2.0,"""event"",""trial"",""time""
""fullscreenenter"",""1"",""5748""
","
","
","""event"",""trial"",""time""
""fullscreenenter"",""1"",""5748""
","
",,245,run_exp/static/images/task_images/land.jpg,76,,,,,,,1,,,1,,,,,,,,16842,1,2,TRUE,,,
travel,71,380197,0.0-26.0-0.0,"""event"",""trial"",""time""
""fullscreenenter"",""1"",""5748""
","
","
","""event"",""trial"",""time""
""fullscreenenter"",""1"",""5748""
","
",,,,,,,,,,,,"[{""stimulus"":""run_exp/static/images/task_images/rocket-01.jpg"",""time"":0.30000000447034836},{""stimulus"":""run_exp/static/images/task_images/rocket-02.jpg"",""time"":1085.2000000029802},{""stimulus"":""run_exp/static/images/task_images/rocket-03.jpg"",""time"":2167.9000000059605},{""stimulus"":""run_exp/static/images/task_images/rocket-04.jpg"",""time"":3251.3000000044703},{""stimulus"":""run_exp/static/images/task_images/rocket-05.jpg"",""time"":4337.30000000447},{""stimulus"":""run_exp/static/images/task_images/rocket-06.jpg"",""time"":5416.9000000059605},{""stimulus"":""run_exp/static/images/task_images/rocket-07.jpg"",""time"":6499.20000000298},{""stimulus"":""run_exp/static/images/task_images/rocket-08.jpg"",""time"":7582.70000000298},{""stimulus"":""run_exp/static/images/task_images/rocket-09.jpg"",""time"":8669}]",[],1,,,,,,,,,,,,,,
alien_welcome,72,385209,0.0-26.0-1.0,"""event"",""trial"",""time""
""fullscreenenter"",""1"",""5748""
","
","
","""event"",""trial"",""time""
""fullscreenenter"",""1"",""5748""
","
",,null,run_exp/static/images/task_images/aliens/old_aliens/planet/alien_planet-63.jpg,null,,,,,,,,,,,,,63,"60,63,62,55,51,21,5,12,74,68,49,7,38,23,13,20,3,15,57,31,6,28,34,73,46,70,66,1,43,4,36,80,39,33,16,24,10,27,61,54,64,47,22,25",,,,,,,,,,
land,73,385722,0.0-26.0-2.0,"""event"",""trial"",""time""
""fullscreenenter"",""1"",""5748""
","
","
","""event"",""trial"",""time""
""fullscreenenter"",""1"",""5748""
","
",,null,run_exp/static/images/task_images/land.jpg,null,,,,,,,108,,,2,,,,,,,,,,,,,,
dig,74,387727,0.0-26.0-3.0,"""event"",""trial"",""time""
""fullscreenenter"",""1"",""5748""
","
","
","""event"",""trial"",""time""
""fullscreenenter"",""1"",""5748""
","
",,,,,,,,,,,,"[{""stimulus"":""run_exp/static/images/task_images/dig.jpg"",""time"":0.29999999701976776},{""stimulus"":""run_exp/static/images/task_images/land.jpg"",""time"":683.2999999970198},{""stimulus"":""run_exp/static/images/task_images/dig.jpg"",""time"":1349.8999999985099}]",[],2,,,,,,,,,,,,,,
harvest,75,388736,0.0-26.0-4.0,"""event"",""trial"",""time""
""fullscreenenter"",""1"",""5748""
","
","
","""event"",""trial"",""time""
""fullscreenenter"",""1"",""5748""
","
",,null,run_exp/static/images/task_images/gems/108.jpg,null,,,,,,,22,,,2,,,,,108,0.207123793,0.203703704,,,,,,,
decision,76,388762,0.0-26.0-5.0,"""event"",""trial"",""time""
""fullscreenenter"",""1"",""5748""
","
","
","""event"",""trial"",""time""
""fullscreenenter"",""1"",""5748""
","
",,23.9,run_exp/static/images/task_images/land.jpg,65,,,,,,,22,,,2,,,,,,,,35166,1,0,FALSE,,,
dig,77,391751,0.0-27.0-0.0,"""event"",""trial"",""time""
""fullscreenenter"",""1"",""5748""
","
","
","""event"",""trial"",""time""
""fullscreenenter"",""1"",""5748""
","
",,,,,,,,,,,,"[{""stimulus"":""run_exp/static/images/task_images/dig.jpg"",""time"":0},{""stimulus"":""run_exp/static/images/task_images/land.jpg"",""time"":996.3999999985099},{""stimulus"":""run_exp/static/images/task_images/dig.jpg"",""time"":1993.2999999970198}]",[],2,,,,,,,,,,,,,,
harvest,78,392759,0.0-27.0-1.0,"""event"",""trial"",""time""
""fullscreenenter"",""1"",""5748""
","
","
","""event"",""trial"",""time""
""fullscreenenter"",""1"",""5748""
","
",,null,run_exp/static/images/task_images/gems/22.jpg,null,,,,,,,4,,,2,,,,,22,0.194535683,0.181818182,,,,,,,
decision,79,394710,0.0-27.0-2.0,"""event"",""trial"",""time""
""fullscreenenter"",""1"",""5748""
","
","
","""event"",""trial"",""time""
""fullscreenenter"",""1"",""5748""
","
",,1949.5,run_exp/static/images/task_images/land.jpg,76,,,,,,,4,,,2,,,,,,,,41114,1,1,TRUE,,,
travel,80,402773,0.0-28.0-0.0,"""event"",""trial"",""time""
""fullscreenenter"",""1"",""5748""
","
","
","""event"",""trial"",""time""
""fullscreenenter"",""1"",""5748""
","
",,,,,,,,,,,,"[{""stimulus"":""run_exp/static/images/task_images/rocket-01.jpg"",""time"":0.19999999552965164},{""stimulus"":""run_exp/static/images/task_images/rocket-02.jpg"",""time"":906.6999999955297},{""stimulus"":""run_exp/static/images/task_images/rocket-03.jpg"",""time"":1795.6999999955297},{""stimulus"":""run_exp/static/images/task_images/rocket-04.jpg"",""time"":2683.60000000149},{""stimulus"":""run_exp/static/images/task_images/rocket-05.jpg"",""time"":3582.5},{""stimulus"":""run_exp/static/images/task_images/rocket-06.jpg"",""time"":4483.60000000149},{""stimulus"":""run_exp/static/images/task_images/rocket-07.jpg"",""time"":5365.79999999702},{""stimulus"":""run_exp/static/images/task_images/rocket-08.jpg"",""time"":6259.39999999851},{""stimulus"":""run_exp/static/images/task_images/rocket-09.jpg"",""time"":7161.29999999702}]",[],2,,,,,,,,,,,,,,
alien_welcome,81,407784,0.0-28.0-1.0,"""event"",""trial"",""time""
""fullscreenenter"",""1"",""5748""
","
","
","""event"",""trial"",""time""
""fullscreenenter"",""1"",""5748""
","
",,null,run_exp/static/images/task_images/aliens/old_aliens/planet/alien_planet-62.jpg,null,,,,,,,,,,,,,62,"60,63,62,55,51,21,5,12,74,68,49,7,38,23,13,20,3,15,57,31,6,28,34,73,46,70,66,1,43,4,36,80,39,33,16,24,10,27,61,54,64,47,22,25",,,,,,,,,,
land,82,408296,0.0-28.0-2.0,"""event"",""trial"",""time""
""fullscreenenter"",""1"",""5748""
","
","
","""event"",""trial"",""time""
""fullscreenenter"",""1"",""5748""
","
",,null,run_exp/static/images/task_images/land.jpg,null,,,,,,,100,,,3,,,,,,,,,,,,,,
dig,83,410301,0.0-28.0-3.0,"""event"",""trial"",""time""
""fullscreenenter"",""1"",""5748""
","
","
","""event"",""trial"",""time""
""fullscreenenter"",""1"",""5748""
","
",,,,,,,,,,,,"[{""stimulus"":""run_exp/static/images/task_images/dig.jpg"",""time"":0.29999999701976776},{""stimulus"":""run_exp/static/images/task_images/land.jpg"",""time"":683.3999999985099},{""stimulus"":""run_exp/static/images/task_images/dig.jpg"",""time"":1337.6000000014901}]",[],3,,,,,,,,,,,,,,
harvest,84,411311,0.0-28.0-4.0,"""event"",""trial"",""time""
""fullscreenenter"",""1"",""5748""
","
","
","""event"",""trial"",""time""
""fullscreenenter"",""1"",""5748""
","
",,null,run_exp/static/images/task_images/gems/100.jpg,null,,,,,,,47,,,3,,,,,100,0.474688232,0.47,,,,,,,
decision,85,411432,0.0-28.0-5.0,"""event"",""trial"",""time""
""fullscreenenter"",""1"",""5748""
","
","
","""event"",""trial"",""time""
""fullscreenenter"",""1"",""5748""
","
",,118.3,run_exp/static/images/task_images/land.jpg,65,,,,,,,47,,,3,,,,,,,,57837,1,0,FALSE,,,
dig,86,414332,0.0-29.0-0.0,"""event"",""trial"",""time""
""fullscreenenter"",""1"",""5748""
","
","
","""event"",""trial"",""time""
""fullscreenenter"",""1"",""5748""
","
",,,,,,,,,,,,"[{""stimulus"":""run_exp/static/images/task_images/dig.jpg"",""time"":0.30000000447034836},{""stimulus"":""run_exp/static/images/task_images/land.jpg"",""time"":963.5},{""stimulus"":""run_exp/static/images/task_images/dig.jpg"",""time"":1930.3000000044703}]",[],3,,,,,,,,,,,,,,
harvest,87,415346,0.0-29.0-1.0,"""event"",""trial"",""time""
""fullscreenenter"",""1"",""5748""
","
","
","""event"",""trial"",""time""
""fullscreenenter"",""1"",""5748""
","
",,null,run_exp/static/images/task_images/gems/47.jpg,null,,,,,,,23,,,3,,,,,47,0.486869835,0.489361702,,,,,,,
decision,88,416000,0.0-29.0-2.0,"""event"",""trial"",""time""
""fullscreenenter"",""1"",""5748""
","
","
","""event"",""trial"",""time""
""fullscreenenter"",""1"",""5748""
","
",,652,run_exp/static/images/task_images/land.jpg,65,,,,,,,23,,,3,,,,,,,,62404,1,1,FALSE,,,
dig,89,418359,0.0-30.0-0.0,"""event"",""trial"",""time""
""fullscreenenter"",""1"",""5748""
","
","
","""event"",""trial"",""time""
""fullscreenenter"",""1"",""5748""
","
",,,,,,,,,,,,"[{""stimulus"":""run_exp/static/images/task_images/dig.jpg"",""time"":0.20000000298023224},{""stimulus"":""run_exp/static/images/task_images/land.jpg"",""time"":799},{""stimulus"":""run_exp/static/images/task_images/dig.jpg"",""time"":1579.3000000044703}]",[],3,,,,,,,,,,,,,,
harvest,90,419369,0.0-30.0-1.0,"""event"",""trial"",""time""
""fullscreenenter"",""1"",""5748""
","
","
","""event"",""trial"",""time""
""fullscreenenter"",""1"",""5748""
","
",,null,run_exp/static/images/task_images/gems/23.jpg,null,,,,,,,14,,,3,,,,,23,0.598781278,0.608695652,,,,,,,
decision,91,419723,0.0-30.0-2.0,"""event"",""trial"",""time""
""fullscreenenter"",""1"",""5748""
","
","
","""event"",""trial"",""time""
""fullscreenenter"",""1"",""5748""
","
",,352.4,run_exp/static/images/task_images/land.jpg,76,,,,,,,14,,,3,,,,,,,,66127,1,2,TRUE,,,
travel,92,429371,0.0-31.0-0.0,"""event"",""trial"",""time""
""fullscreenenter"",""1"",""5748""
","
","
","""event"",""trial"",""time""
""fullscreenenter"",""1"",""5748""
","
",,,,,,,,,,,,"[{""stimulus"":""run_exp/static/images/task_images/rocket-01.jpg"",""time"":0.19999999552965164},{""stimulus"":""run_exp/static/images/task_images/rocket-02.jpg"",""time"":1073.8999999985099},{""stimulus"":""run_exp/static/images/task_images/rocket-03.jpg"",""time"":2143.1999999955297},{""stimulus"":""run_exp/static/images/task_images/rocket-04.jpg"",""time"":3214.1999999955297},{""stimulus"":""run_exp/static/images/task_images/rocket-05.jpg"",""time"":4285.39999999851},{""stimulus"":""run_exp/static/images/task_images/rocket-06.jpg"",""time"":5356.69999999553},{""stimulus"":""run_exp/static/images/task_images/rocket-07.jpg"",""time"":6428.29999999702},{""stimulus"":""run_exp/static/images/task_images/rocket-08.jpg"",""time"":7498},{""stimulus"":""run_exp/static/images/task_images/rocket-09.jpg"",""time"":8574}]",[],3,,,,,,,,,,,,,,
alien_welcome,93,434387,0.0-31.0-1.0,"""event"",""trial"",""time""
""fullscreenenter"",""1"",""5748""
","
","
","""event"",""trial"",""time""
""fullscreenenter"",""1"",""5748""
","
",,null,run_exp/static/images/task_images/aliens/old_aliens/planet/alien_planet-55.jpg,null,,,,,,,,,,,,,55,"60,63,62,55,51,21,5,12,74,68,49,7,38,23,13,20,3,15,57,31,6,28,34,73,46,70,66,1,43,4,36,80,39,33,16,24,10,27,61,54,64,47,22,25",,,,,,,,,,
land,94,434901,0.0-31.0-2.0,"""event"",""trial"",""time""
""fullscreenenter"",""1"",""5748""
","
","
","""event"",""trial"",""time""
""fullscreenenter"",""1"",""5748""
","
",,null,run_exp/static/images/task_images/land.jpg,null,,,,,,,103,,,4,,,,,,,,,,,,,,
dig,95,436908,0.0-31.0-3.0,"""event"",""trial"",""time""
""fullscreenenter"",""1"",""5748""
","
","
","""event"",""trial"",""time""
""fullscreenenter"",""1"",""5748""
","
",,,,,,,,,,,,"[{""stimulus"":""run_exp/static/images/task_images/dig.jpg"",""time"":0.29999999701976776},{""stimulus"":""run_exp/static/images/task_images/land.jpg"",""time"":669.3999999985099},{""stimulus"":""run_exp/static/images/task_images/dig.jpg"",""time"":1350.2999999970198}]",[],4,,,,,,,,,,,,,,
harvest,96,437919,0.0-31.0-4.0,"""event"",""trial"",""time""
""fullscreenenter"",""1"",""5748""
","
","
","""event"",""trial"",""time""
""fullscreenenter"",""1"",""5748""
","
",,null,run_exp/static/images/task_images/gems/103.jpg,null,,,,,,,40,,,4,,,,,103,0.390380779,0.388349515,,,,,,,
decision,97,438531,0.0-31.0-5.0,"""event"",""trial"",""time""
""fullscreenenter"",""1"",""5748""
","
","
","""event"",""trial"",""time""
""fullscreenenter"",""1"",""5748""
","
",,611,run_exp/static/images/task_images/land.jpg,65,,,,,,,40,,,4,,,,,,,,84935,1,0,FALSE,,,
dig,98,440932,0.0-32.0-0.0,"""event"",""trial"",""time""
""fullscreenenter"",""1"",""5748""
","
","
","""event"",""trial"",""time""
""fullscreenenter"",""1"",""5748""
","
",,,,,,,,,,,,"[{""stimulus"":""run_exp/static/images/task_images/dig.jpg"",""time"":0.19999999552965164},{""stimulus"":""run_exp/static/images/task_images/land.jpg"",""time"":812.2999999970198},{""stimulus"":""run_exp/static/images/task_images/dig.jpg"",""time"":1606}]",[],4,,,,,,,,,,,,,,
harvest,99,441944,0.0-32.0-1.0,"""event"",""trial"",""time""
""fullscreenenter"",""1"",""5748""
","
","
","""event"",""trial"",""time""
""fullscreenenter"",""1"",""5748""
","
",,null,run_exp/static/images/task_images/gems/40.jpg,null,,,,,,,18,,,4,,,,,40,0.456432814,0.45,,,,,,,
decision,100,442349,0.0-32.0-2.0,"""event"",""trial"",""time""
""fullscreenenter"",""1"",""5748""
","
","
","""event"",""trial"",""time""
""fullscreenenter"",""1"",""5748""
","
",,404,run_exp/static/images/task_images/land.jpg,65,,,,,,,18,,,4,,,,,,,,88753,1,1,FALSE,,,
dig,101,444958,0.0-33.0-0.0,"""event"",""trial"",""time""
""fullscreenenter"",""1"",""5748""
","
","
","""event"",""trial"",""time""
""fullscreenenter"",""1"",""5748""
","
",,,,,,,,,,,,"[{""stimulus"":""run_exp/static/images/task_images/dig.jpg"",""time"":0.20000000298023224},{""stimulus"":""run_exp/static/images/task_images/land.jpg"",""time"":878.3999999985099},{""stimulus"":""run_exp/static/images/task_images/dig.jpg"",""time"":1732.1000000014901}]",[],4,,,,,,,,,,,,,,
harvest,102,445970,0.0-33.0-1.0,"""event"",""trial"",""time""
""fullscreenenter"",""1"",""5748""
","
","
","""event"",""trial"",""time""
""fullscreenenter"",""1"",""5748""
","
",,null,run_exp/static/images/task_images/gems/18.jpg,null,,,,,,,9,,,4,,,,,18,0.483842544,0.5,,,,,,,
decision,103,446883,0.0-33.0-2.0,"""event"",""trial"",""time""
""fullscreenenter"",""1"",""5748""
","
","
","""event"",""trial"",""time""
""fullscreenenter"",""1"",""5748""
","
",,911.4,run_exp/static/images/task_images/land.jpg,76,,,,,,,9,,,4,,,,,,,,93287,1,2,TRUE,,,
travel,104,455984,0.0-34.0-0.0,"""event"",""trial"",""time""
""fullscreenenter"",""1"",""5748""
","
","
","""event"",""trial"",""time""
""fullscreenenter"",""1"",""5748""
","
",,,,,,,,,,,,"[{""stimulus"":""run_exp/static/images/task_images/rocket-01.jpg"",""time"":0.10000000149011612},{""stimulus"":""run_exp/static/images/task_images/rocket-02.jpg"",""time"":1014.8000000044703},{""stimulus"":""run_exp/static/images/task_images/rocket-03.jpg"",""time"":2026.5},{""stimulus"":""run_exp/static/images/task_images/rocket-04.jpg"",""time"":3028.8000000044703},{""stimulus"":""run_exp/static/images/task_images/rocket-05.jpg"",""time"":4051.10000000149},{""stimulus"":""run_exp/static/images/task_images/rocket-06.jpg"",""time"":5046.20000000298},{""stimulus"":""run_exp/static/images/task_images/rocket-07.jpg"",""time"":6055.4000000059605},{""stimulus"":""run_exp/static/images/task_images/rocket-08.jpg"",""time"":7064.4000000059605},{""stimulus"":""run_exp/static/images/task_images/rocket-09.jpg"",""time"":8088.20000000298}]",[],4,,,,,,,,,,,,,,
alien_welcome,105,460989,0.0-34.0-1.0,"""event"",""trial"",""time""
""fullscreenenter"",""1"",""5748""
","
","
","""event"",""trial"",""time""
""fullscreenenter"",""1"",""5748""
","
",,null,run_exp/static/images/task_images/aliens/old_aliens/planet/alien_planet-51.jpg,null,,,,,,,,,,,,,51,"60,63,62,55,51,21,5,12,74,68,49,7,38,23,13,20,3,15,57,31,6,28,34,73,46,70,66,1,43,4,36,80,39,33,16,24,10,27,61,54,64,47,22,25",,,,,,,,,,
land,106,461503,0.0-34.0-2.0,"""event"",""trial"",""time""
""fullscreenenter"",""1"",""5748""
","
","
","""event"",""trial"",""time""
""fullscreenenter"",""1"",""5748""
","
",,null,run_exp/static/images/task_images/land.jpg,null,,,,,,,94,,,5,,,,,,,,,,,,,,
dig,107,463511,0.0-34.0-3.0,"""event"",""trial"",""time""
""fullscreenenter"",""1"",""5748""
","
","
","""event"",""trial"",""time""
""fullscreenenter"",""1"",""5748""
","
",,,,,,,,,,,,"[{""stimulus"":""run_exp/static/images/task_images/dig.jpg"",""time"":0.30000000447034836},{""stimulus"":""run_exp/static/images/task_images/land.jpg"",""time"":683},{""stimulus"":""run_exp/static/images/task_images/dig.jpg"",""time"":1337.7000000029802}]",[],5,,,,,,,,,,,,,,
harvest,108,464522,0.0-34.0-4.0,"""event"",""trial"",""time""
""fullscreenenter"",""1"",""5748""
","
","
","""event"",""trial"",""time""
""fullscreenenter"",""1"",""5748""
","
",,null,run_exp/static/images/task_images/gems/94.jpg,null,,,,,,,48,,,5,,,,,94,0.509891885,0.510638298,,,,,,,
decision,109,464851,0.0-34.0-5.0,"""event"",""trial"",""time""
""fullscreenenter"",""1"",""5748""
","
","
","""event"",""trial"",""time""
""fullscreenenter"",""1"",""5748""
","
",,327.2,run_exp/static/images/task_images/land.jpg,65,,,,,,,48,,,5,,,,,,,,111255,1,0,FALSE,,,
dig,110,467535,0.0-35.0-0.0,"""event"",""trial"",""time""
""fullscreenenter"",""1"",""5748""
","
","
","""event"",""trial"",""time""
""fullscreenenter"",""1"",""5748""
","
",,,,,,,,,,,,"[{""stimulus"":""run_exp/static/images/task_images/dig.jpg"",""time"":0.19999999552965164},{""stimulus"":""run_exp/static/images/task_images/land.jpg"",""time"":892},{""stimulus"":""run_exp/static/images/task_images/dig.jpg"",""time"":1791.8999999985099}]",[],5,,,,,,,,,,,,,,
harvest,111,468543,0.0-35.0-1.0,"""event"",""trial"",""time""
""fullscreenenter"",""1"",""5748""
","
","
","""event"",""trial"",""time""
""fullscreenenter"",""1"",""5748""
","
",,null,run_exp/static/images/task_images/gems/48.jpg,null,,,,,,,22,,,5,,,,,48,0.461552964,0.458333333,,,,,,,
decision,112,468863,0.0-35.0-2.0,"""event"",""trial"",""time""
""fullscreenenter"",""1"",""5748""
","
","
","""event"",""trial"",""time""
""fullscreenenter"",""1"",""5748""
","
",,318.8,run_exp/static/images/task_images/land.jpg,65,,,,,,,22,,,5,,,,,,,,115267,1,1,FALSE,,,
dig,113,471558,0.0-36.0-0.0,"""event"",""trial"",""time""
""fullscreenenter"",""1"",""5748""
","
","
","""event"",""trial"",""time""
""fullscreenenter"",""1"",""5748""
","
",,,,,,,,,,,,"[{""stimulus"":""run_exp/static/images/task_images/dig.jpg"",""time"":0.10000000149011612},{""stimulus"":""run_exp/static/images/task_images/land.jpg"",""time"":905.7000000029802},{""stimulus"":""run_exp/static/images/task_images/dig.jpg"",""time"":1789.7000000029802}]",[],5,,,,,,,,,,,,,,
harvest,114,472567,0.0-36.0-1.0,"""event"",""trial"",""time""
""fullscreenenter"",""1"",""5748""
","
","
","""event"",""trial"",""time""
""fullscreenenter"",""1"",""5748""
","
",,null,run_exp/static/images/task_images/gems/22.jpg,null,,,,,,,11,,,5,,,,,22,0.503580756,0.5,,,,,,,
decision,115,472636,0.0-36.0-2.0,"""event"",""trial"",""time""
""fullscreenenter"",""1"",""5748""
","
","
","""event"",""trial"",""time""
""fullscreenenter"",""1"",""5748""
","
",,67.9,run_exp/static/images/task_images/land.jpg,76,,,,,,,11,,,5,,,,,,,,119040,1,2,TRUE,,,
travel,116,482575,0.0-37.0-0.0,"""event"",""trial"",""time""
""fullscreenenter"",""1"",""5748""
","
","
","""event"",""trial"",""time""
""fullscreenenter"",""1"",""5748""
","
",,,,,,,,,,,,"[{""stimulus"":""run_exp/static/images/task_images/rocket-01.jpg"",""time"":0.20000000298023224},{""stimulus"":""run_exp/static/images/task_images/rocket-02.jpg"",""time"":1105.3000000044703},{""stimulus"":""run_exp/static/images/task_images/rocket-03.jpg"",""time"":2210.3000000044703},{""stimulus"":""run_exp/static/images/task_images/rocket-04.jpg"",""time"":3312.3000000044703},{""stimulus"":""run_exp/static/images/task_images/rocket-05.jpg"",""time"":4415.5},{""stimulus"":""run_exp/static/images/task_images/rocket-06.jpg"",""time"":5516.80000000447},{""stimulus"":""run_exp/static/images/task_images/rocket-07.jpg"",""time"":6634.10000000149},{""stimulus"":""run_exp/static/images/task_images/rocket-08.jpg"",""time"":7722.60000000149},{""stimulus"":""run_exp/static/images/task_images/rocket-09.jpg"",""time"":8837.30000000447}]",[],5,,,,,,,,,,,,,,
alien_welcome,117,487581,0.0-37.0-1.0,"""event"",""trial"",""time""
""fullscreenenter"",""1"",""5748""
","
","
","""event"",""trial"",""time""
""fullscreenenter"",""1"",""5748""
","
",,null,run_exp/static/images/task_images/aliens/old_aliens/planet/alien_planet-21.jpg,null,,,,,,,,,,,,,21,"60,63,62,55,51,21,5,12,74,68,49,7,38,23,13,20,3,15,57,31,6,28,34,73,46,70,66,1,43,4,36,80,39,33,16,24,10,27,61,54,64,47,22,25",,,,,,,,,,
land,118,488095,0.0-37.0-2.0,"""event"",""trial"",""time""
""fullscreenenter"",""1"",""5748""
","
","
","""event"",""trial"",""time""
""fullscreenenter"",""1"",""5748""
","
",,null,run_exp/static/images/task_images/land.jpg,null,,,,,,,99,,,6,,,,,,,,,,,,,,
dig,119,490105,0.0-37.0-3.0,"""event"",""trial"",""time""
""fullscreenenter"",""1"",""5748""
","
","
","""event"",""trial"",""time""
""fullscreenenter"",""1"",""5748""
","
",,,,,,,,,,,,"[{""stimulus"":""run_exp/static/images/task_images/dig.jpg"",""time"":0.29999999701976776},{""stimulus"":""run_exp/static/images/task_images/land.jpg"",""time"":669.3999999985099},{""stimulus"":""run_exp/static/images/task_images/dig.jpg"",""time"":1339.8999999985099}]",[],6,,,,,,,,,,,,,,
harvest,120,491110,0.0-37.0-4.0,"""event"",""trial"",""time""
""fullscreenenter"",""1"",""5748""
","
","
","""event"",""trial"",""time""
""fullscreenenter"",""1"",""5748""
","
",,null,run_exp/static/images/task_images/gems/99.jpg,null,,,,,,,74,,,6,,,,,99,0.745152346,0.747474747,,,,,,,
decision,121,491149,0.0-37.0-5.0,"""event"",""trial"",""time""
""fullscreenenter"",""1"",""5748""
","
","
","""event"",""trial"",""time""
""fullscreenenter"",""1"",""5748""
","
",,37,run_exp/static/images/task_images/land.jpg,65,,,,,,,74,,,6,,,,,,,,137553,1,0,FALSE,,,
dig,122,494117,0.0-38.0-0.0,"""event"",""trial"",""time""
""fullscreenenter"",""1"",""5748""
","
","
","""event"",""trial"",""time""
""fullscreenenter"",""1"",""5748""
","
",,,,,,,,,,,,"[{""stimulus"":""run_exp/static/images/task_images/dig.jpg"",""time"":0.30000000447034836},{""stimulus"":""run_exp/static/images/task_images/land.jpg"",""time"":996.8000000044703},{""stimulus"":""run_exp/static/images/task_images/dig.jpg"",""time"":1989.8000000044703}]",[],6,,,,,,,,,,,,,,
harvest,123,495132,0.0-38.0-1.0,"""event"",""trial"",""time""
""fullscreenenter"",""1"",""5748""
","
","
","""event"",""trial"",""time""
""fullscreenenter"",""1"",""5748""
","
",,null,run_exp/static/images/task_images/gems/74.jpg,null,,,,,,,62,,,6,,,,,74,0.83192841,0.837837838,,,,,,,
decision,124,495661,0.0-38.0-2.0,"""event"",""trial"",""time""
""fullscreenenter"",""1"",""5748""
","
","
","""event"",""trial"",""time""
""fullscreenenter"",""1"",""5748""
","
",,527.7,run_exp/static/images/task_images/land.jpg,65,,,,,,,62,,,6,,,,,,,,142065,1,1,FALSE,,,
dig,125,498144,0.0-39.0-0.0,"""event"",""trial"",""time""
""fullscreenenter"",""1"",""5748""
","
","
","""event"",""trial"",""time""
""fullscreenenter"",""1"",""5748""
","
",,,,,,,,,,,,"[{""stimulus"":""run_exp/static/images/task_images/dig.jpg"",""time"":0.10000000149011612},{""stimulus"":""run_exp/static/images/task_images/land.jpg"",""time"":825.5},{""stimulus"":""run_exp/static/images/task_images/dig.jpg"",""time"":1659}]",[],6,,,,,,,,,,,,,,
harvest,126,499157,0.0-39.0-1.0,"""event"",""trial"",""time""
""fullscreenenter"",""1"",""5748""
","
","
","""event"",""trial"",""time""
""fullscreenenter"",""1"",""5748""
","
",,null,run_exp/static/images/task_images/gems/62.jpg,null,,,,,,,54,,,6,,,,,62,0.872406341,0.870967742,,,,,,,
decision,127,499260,0.0-39.0-2.0,"""event"",""trial"",""time""
""fullscreenenter"",""1"",""5748""
","
","
","""event"",""trial"",""time""
""fullscreenenter"",""1"",""5748""
","
",,101.4,run_exp/static/images/task_images/land.jpg,65,,,,,,,54,,,6,,,,,,,,145664,1,2,FALSE,,,
dig,128,502174,0.0-40.0-0.0,"""event"",""trial"",""time""
""fullscreenenter"",""1"",""5748""
","
","
","""event"",""trial"",""time""
""fullscreenenter"",""1"",""5748""
","
",,,,,,,,,,,,"[{""stimulus"":""run_exp/static/images/task_images/dig.jpg"",""time"":0.29999999701976776},{""stimulus"":""run_exp/static/images/task_images/land.jpg"",""time"":968.3999999985099},{""stimulus"":""run_exp/static/images/task_images/dig.jpg"",""time"":1933.8999999985099}]",[],6,,,,,,,,,,,,,,
harvest,129,503182,0.0-40.0-1.0,"""event"",""trial"",""time""
""fullscreenenter"",""1"",""5748""
","
","
","""event"",""trial"",""time""
""fullscreenenter"",""1"",""5748""
","
",,null,run_exp/static/images/task_images/gems/54.jpg,null,,,,,,,48,,,6,,,,,54,0.89260147,0.888888889,,,,,,,
decision,130,503393,0.0-40.0-2.0,"""event"",""trial"",""time""
""fullscreenenter"",""1"",""5748""
","
","
","""event"",""trial"",""time""
""fullscreenenter"",""1"",""5748""
","
",,210.2,run_exp/static/images/task_images/land.jpg,65,,,,,,,48,,,6,,,,,,,,149797,1,3,FALSE,,,
dig,131,506193,0.0-41.0-0.0,"""event"",""trial"",""time""
""fullscreenenter"",""1"",""5748""
","
","
","""event"",""trial"",""time""
""fullscreenenter"",""1"",""5748""
","
",,,,,,,,,,,,"[{""stimulus"":""run_exp/static/images/task_images/dig.jpg"",""time"":0.30000000447034836},{""stimulus"":""run_exp/static/images/task_images/land.jpg"",""time"":934.8000000044703},{""stimulus"":""run_exp/static/images/task_images/dig.jpg"",""time"":1866}]",[],6,,,,,,,,,,,,,,
harvest,132,507205,0.0-41.0-1.0,"""event"",""trial"",""time""
""fullscreenenter"",""1"",""5748""
","
","
","""event"",""trial"",""time""
""fullscreenenter"",""1"",""5748""
","
",,null,run_exp/static/images/task_images/gems/48.jpg,null,,,,,,,41,,,6,,,,,48,0.847077815,0.854166667,,,,,,,
decision,133,507294,0.0-41.0-2.0,"""event"",""trial"",""time""
""fullscreenenter"",""1"",""5748""
","
","
","""event"",""trial"",""time""
""fullscreenenter"",""1"",""5748""
","
",,88,run_exp/static/images/task_images/land.jpg,65,,,,,,,41,,,6,,,,,,,,153699,1,4,FALSE,,,
dig,134,510223,0.0-42.0-0.0,"""event"",""trial"",""time""
""fullscreenenter"",""1"",""5748""
","
","
","""event"",""trial"",""time""
""fullscreenenter"",""1"",""5748""
","
",,,,,,,,,,,,"[{""stimulus"":""run_exp/static/images/task_images/dig.jpg"",""time"":0.19999999552965164},{""stimulus"":""run_exp/static/images/task_images/land.jpg"",""time"":979},{""stimulus"":""run_exp/static/images/task_images/dig.jpg"",""time"":1943.5}]",[],6,,,,,,,,,,,,,,
harvest,135,511235,0.0-42.0-1.0,"""event"",""trial"",""time""
""fullscreenenter"",""1"",""5748""
","
","
","""event"",""trial"",""time""
""fullscreenenter"",""1"",""5748""
","
",,null,run_exp/static/images/task_images/gems/41.jpg,null,,,,,,,36,,,6,,,,,41,0.870504933,0.87804878,,,,,,,
decision,136,511478,0.0-42.0-2.0,"""event"",""trial"",""time""
""fullscreenenter"",""1"",""5748""
","
","
","""event"",""trial"",""time""
""fullscreenenter"",""1"",""5748""
","
",,241.1,run_exp/static/images/task_images/land.jpg,65,,,,,,,36,,,6,,,,,,,,157882,1,5,FALSE,,,
dig,137,514240,0.0-43.0-0.0,"""event"",""trial"",""time""
""fullscreenenter"",""1"",""5748""
","
","
","""event"",""trial"",""time""
""fullscreenenter"",""1"",""5748""
","
",,,,,,,,,,,,"[{""stimulus"":""run_exp/static/images/task_images/dig.jpg"",""time"":0.20000000298023224},{""stimulus"":""run_exp/static/images/task_images/land.jpg"",""time"":920.7000000029802},{""stimulus"":""run_exp/static/images/task_images/dig.jpg"",""time"":1840.8000000044703}]",[],6,,,,,,,,,,,,,,
harvest,138,515250,0.0-43.0-1.0,"""event"",""trial"",""time""
""fullscreenenter"",""1"",""5748""
","
","
","""event"",""trial"",""time""
""fullscreenenter"",""1"",""5748""
","
",,null,run_exp/static/images/task_images/gems/36.jpg,null,,,,,,,31,,,6,,,,,36,0.874472389,0.861111111,,,,,,,
decision,139,515410,0.0-43.0-2.0,"""event"",""trial"",""time""
""fullscreenenter"",""1"",""5748""
","
","
","""event"",""trial"",""time""
""fullscreenenter"",""1"",""5748""
","
",,158.4,run_exp/static/images/task_images/land.jpg,65,,,,,,,31,,,6,,,,,,,,161814,1,6,FALSE,,,
dig,140,518268,0.0-44.0-0.0,"""event"",""trial"",""time""
""fullscreenenter"",""1"",""5748""
","
","
","""event"",""trial"",""time""
""fullscreenenter"",""1"",""5748""
","
",,,,,,,,,,,,"[{""stimulus"":""run_exp/static/images/task_images/dig.jpg"",""time"":0.20000000298023224},{""stimulus"":""run_exp/static/images/task_images/land.jpg"",""time"":955.1000000014901},{""stimulus"":""run_exp/static/images/task_images/dig.jpg"",""time"":1906.8000000044703}]",[],6,,,,,,,,,,,,,,
harvest,141,519278,0.0-44.0-1.0,"""event"",""trial"",""time""
""fullscreenenter"",""1"",""5748""
","
","
","""event"",""trial"",""time""
""fullscreenenter"",""1"",""5748""
","
",,null,run_exp/static/images/task_images/gems/31.jpg,null,,,,,,,26,,,6,,,,,31,0.846890375,0.838709677,,,,,,,
decision,142,519433,0.0-44.0-2.0,"""event"",""trial"",""time""
""fullscreenenter"",""1"",""5748""
","
","
","""event"",""trial"",""time""
""fullscreenenter"",""1"",""5748""
","
",,153.6,run_exp/static/images/task_images/land.jpg,65,,,,,,,26,,,6,,,,,,,,165837,1,7,FALSE,,,
dig,143,522292,0.0-45.0-0.0,"""event"",""trial"",""time""
""fullscreenenter"",""1"",""5748""
","
","
","""event"",""trial"",""time""
""fullscreenenter"",""1"",""5748""
","
",,,,,,,,,,,,"[{""stimulus"":""run_exp/static/images/task_images/dig.jpg"",""time"":0.30000000447034836},{""stimulus"":""run_exp/static/images/task_images/land.jpg"",""time"":963.2000000029802},{""stimulus"":""run_exp/static/images/task_images/dig.jpg"",""time"":1909.9000000059605}]",[],6,,,,,,,,,,,,,,
harvest,144,523297,0.0-45.0-1.0,"""event"",""trial"",""time""
""fullscreenenter"",""1"",""5748""
","
","
","""event"",""trial"",""time""
""fullscreenenter"",""1"",""5748""
","
",,null,run_exp/static/images/task_images/gems/26.jpg,null,,,,,,,21,,,6,,,,,26,0.791239476,0.807692308,,,,,,,
decision,145,523431,0.0-45.0-2.0,"""event"",""trial"",""time""
""fullscreenenter"",""1"",""5748""
","
","
","""event"",""trial"",""time""
""fullscreenenter"",""1"",""5748""
","
",,132.4,run_exp/static/images/task_images/land.jpg,76,,,,,,,21,,,6,,,,,,,,169835,1,8,TRUE,,,
travel,146,533301,0.0-46.0-0.0,"""event"",""trial"",""time""
""fullscreenenter"",""1"",""5748""
","
","
","""event"",""trial"",""time""
""fullscreenenter"",""1"",""5748""
","
",,,,,,,,,,,,"[{""stimulus"":""run_exp/static/images/task_images/rocket-01.jpg"",""time"":0.3999999985098839},{""stimulus"":""run_exp/static/images/task_images/rocket-02.jpg"",""time"":1098.3000000044703},{""stimulus"":""run_exp/static/images/task_images/rocket-03.jpg"",""time"":2208.10000000149},{""stimulus"":""run_exp/static/images/task_images/rocket-04.jpg"",""time"":3292.5},{""stimulus"":""run_exp/static/images/task_images/rocket-05.jpg"",""time"":4386.39999999851},{""stimulus"":""run_exp/static/images/task_images/rocket-06.jpg"",""time"":5481.80000000447},{""stimulus"":""run_exp/static/images/task_images/rocket-07.jpg"",""time"":6586.89999999851},{""stimulus"":""run_exp/static/images/task_images/rocket-08.jpg"",""time"":7674.10000000149},{""stimulus"":""run_exp/static/images/task_images/rocket-09.jpg"",""time"":8778.30000000447}]",[],6,,,,,,,,,,,,,,
alien_welcome,147,538311,0.0-46.0-1.0,"""event"",""trial"",""time""
""fullscreenenter"",""1"",""5748""
","
","
","""event"",""trial"",""time""
""fullscreenenter"",""1"",""5748""
","
",,null,run_exp/static/images/task_images/aliens/old_aliens/planet/alien_planet-5.jpg,null,,,,,,,,,,,,,5,"60,63,62,55,51,21,5,12,74,68,49,7,38,23,13,20,3,15,57,31,6,28,34,73,46,70,66,1,43,4,36,80,39,33,16,24,10,27,61,54,64,47,22,25",,,,,,,,,,
land,148,538823,0.0-46.0-2.0,"""event"",""trial"",""time""
""fullscreenenter"",""1"",""5748""
","
","
","""event"",""trial"",""time""
""fullscreenenter"",""1"",""5748""
","
",,null,run_exp/static/images/task_images/land.jpg,null,,,,,,,107,,,7,,,,,,,,,,,,,,
dig,149,540843,0.0-46.0-3.0,"""event"",""trial"",""time""
""fullscreenenter"",""1"",""5748""
","
","
","""event"",""trial"",""time""
""fullscreenenter"",""1"",""5748""
","
",,,,,,,,,,,,"[{""stimulus"":""run_exp/static/images/task_images/dig.jpg"",""time"":0.3999999985098839},{""stimulus"":""run_exp/static/images/task_images/land.jpg"",""time"":681.7000000029802},{""stimulus"":""run_exp/static/images/task_images/dig.jpg"",""time"":1348.5}]",[],7,,,,,,,,,,,,,,
harvest,150,541852,0.0-46.0-4.0,"""event"",""trial"",""time""
""fullscreenenter"",""1"",""5748""
","
","
","""event"",""trial"",""time""
""fullscreenenter"",""1"",""5748""
","
",,null,run_exp/static/images/task_images/gems/107.jpg,null,,,,,,,80,,,7,,,,,107,0.750872364,0.747663551,,,,,,,
decision,151,542098,0.0-46.0-5.0,"""event"",""trial"",""time""
""fullscreenenter"",""1"",""5748""
","
","
","""event"",""trial"",""time""
""fullscreenenter"",""1"",""5748""
","
",,245.1,run_exp/static/images/task_images/land.jpg,65,,,,,,,80,,,7,,,,,,,,188502,1,0,FALSE,,,
dig,152,544867,0.0-47.0-0.0,"""event"",""trial"",""time""
""fullscreenenter"",""1"",""5748""
","
","
","""event"",""trial"",""time""
""fullscreenenter"",""1"",""5748""
","
",,,,,,,,,,,,"[{""stimulus"":""run_exp/static/images/task_images/dig.jpg"",""time"":0.29999999701976776},{""stimulus"":""run_exp/static/images/task_images/land.jpg"",""time"":926.8999999985099},{""stimulus"":""run_exp/static/images/task_images/dig.jpg"",""time"":1845.5999999940395}]",[],7,,,,,,,,,,,,,,
harvest,153,545877,0.0-47.0-1.0,"""event"",""trial"",""time""
""fullscreenenter"",""1"",""5748""
","
","
","""event"",""trial"",""time""
""fullscreenenter"",""1"",""5748""
","
",,null,run_exp/static/images/task_images/gems/80.jpg,null,,,,,,,62,,,7,,,,,80,0.779409172,0.775,,,,,,,
decision,154,546105,0.0-47.0-2.0,"""event"",""trial"",""time""
""fullscreenenter"",""1"",""5748""
","
","
","""event"",""trial"",""time""
""fullscreenenter"",""1"",""5748""
","
",,226.7,run_exp/static/images/task_images/land.jpg,65,,,,,,,62,,,7,,,,,,,,192509,1,1,FALSE,,,
dig,155,548895,0.0-48.0-0.0,"""event"",""trial"",""time""
""fullscreenenter"",""1"",""5748""
","
","
","""event"",""trial"",""time""
""fullscreenenter"",""1"",""5748""
","
",,,,,,,,,,,,"[{""stimulus"":""run_exp/static/images/task_images/dig.jpg"",""time"":0.29999999701976776},{""stimulus"":""run_exp/static/images/task_images/land.jpg"",""time"":936.2999999970198},{""stimulus"":""run_exp/static/images/task_images/dig.jpg"",""time"":1853.0999999940395}]",[],7,,,,,,,,,,,,,,
harvest,156,549905,0.0-48.0-1.0,"""event"",""trial"",""time""
""fullscreenenter"",""1"",""5748""
","
","
","""event"",""trial"",""time""
""fullscreenenter"",""1"",""5748""
","
",,null,run_exp/static/images/task_images/gems/62.jpg,null,,,,,,,52,,,7,,,,,62,0.836938621,0.838709677,,,,,,,
decision,157,549929,0.0-48.0-2.0,"""event"",""trial"",""time""
""fullscreenenter"",""1"",""5748""
","
","
","""event"",""trial"",""time""
""fullscreenenter"",""1"",""5748""
","
",,22.9,run_exp/static/images/task_images/land.jpg,65,,,,,,,52,,,7,,,,,,,,196333,1,2,FALSE,,,
dig,158,552919,0.0-49.0-0.0,"""event"",""trial"",""time""
""fullscreenenter"",""1"",""5748""
","
","
","""event"",""trial"",""time""
""fullscreenenter"",""1"",""5748""
","
",,,,,,,,,,,,"[{""stimulus"":""run_exp/static/images/task_images/dig.jpg"",""time"":0.20000000298023224},{""stimulus"":""run_exp/static/images/task_images/land.jpg"",""time"":995.3999999985099},{""stimulus"":""run_exp/static/images/task_images/dig.jpg"",""time"":1989.8999999985099}]",[],7,,,,,,,,,,,,,,
harvest,159,553925,0.0-49.0-1.0,"""event"",""trial"",""time""
""fullscreenenter"",""1"",""5748""
","
","
","""event"",""trial"",""time""
""fullscreenenter"",""1"",""5748""
","
",,null,run_exp/static/images/task_images/gems/52.jpg,null,,,,,,,43,,,7,,,,,52,0.825539648,0.826923077,,,,,,,
decision,160,554107,0.0-49.0-2.0,"""event"",""trial"",""time""
""fullscreenenter"",""1"",""5748""
","
","
","""event"",""trial"",""time""
""fullscreenenter"",""1"",""5748""
","
",,179.8,run_exp/static/images/task_images/land.jpg,65,,,,,,,43,,,7,,,,,,,,200511,1,3,FALSE,,,
dig,161,556938,0.0-50.0-0.0,"""event"",""trial"",""time""
""fullscreenenter"",""1"",""5748""
","
","
","""event"",""trial"",""time""
""fullscreenenter"",""1"",""5748""
","
",,,,,,,,,,,,"[{""stimulus"":""run_exp/static/images/task_images/dig.jpg"",""time"":0.19999999552965164},{""stimulus"":""run_exp/static/images/task_images/land.jpg"",""time"":950},{""stimulus"":""run_exp/static/images/task_images/dig.jpg"",""time"":1883.1000000014901}]",[],7,,,,,,,,,,,,,,
harvest,162,557945,0.0-50.0-1.0,"""event"",""trial"",""time""
""fullscreenenter"",""1"",""5748""
","
","
","""event"",""trial"",""time""
""fullscreenenter"",""1"",""5748""
","
",,null,run_exp/static/images/task_images/gems/43.jpg,null,,,,,,,36,,,7,,,,,43,0.839867577,0.837209302,,,,,,,
decision,163,558074,0.0-50.0-2.0,"""event"",""trial"",""time""
""fullscreenenter"",""1"",""5748""
","
","
","""event"",""trial"",""time""
""fullscreenenter"",""1"",""5748""
","
",,127.5,run_exp/static/images/task_images/land.jpg,65,,,,,,,36,,,7,,,,,,,,204479,1,4,FALSE,,,
dig,164,560957,0.0-51.0-0.0,"""event"",""trial"",""time""
""fullscreenenter"",""1"",""5748""
","
","
","""event"",""trial"",""time""
""fullscreenenter"",""1"",""5748""
","
",,,,,,,,,,,,"[{""stimulus"":""run_exp/static/images/task_images/dig.jpg"",""time"":0.19999999552965164},{""stimulus"":""run_exp/static/images/task_images/land.jpg"",""time"":962.1999999955297},{""stimulus"":""run_exp/static/images/task_images/dig.jpg"",""time"":1922.6000000014901}]",[],7,,,,,,,,,,,,,,
harvest,165,561965,0.0-51.0-1.0,"""event"",""trial"",""time""
""fullscreenenter"",""1"",""5748""
","
","
","""event"",""trial"",""time""
""fullscreenenter"",""1"",""5748""
","
",,null,run_exp/static/images/task_images/gems/36.jpg,null,,,,,,,28,,,7,,,,,36,0.775486139,0.777777778,,,,,,,
decision,166,562118,0.0-51.0-2.0,"""event"",""trial"",""time""
""fullscreenenter"",""1"",""5748""
","
","
","""event"",""trial"",""time""
""fullscreenenter"",""1"",""5748""
","
",,151.9,run_exp/static/images/task_images/land.jpg,65,,,,,,,28,,,7,,,,,,,,208522,1,5,FALSE,,,
dig,167,564981,0.0-52.0-0.0,"""event"",""trial"",""time""
""fullscreenenter"",""1"",""5748""
","
","
","""event"",""trial"",""time""
""fullscreenenter"",""1"",""5748""
","
",,,,,,,,,,,,"[{""stimulus"":""run_exp/static/images/task_images/dig.jpg"",""time"":0},{""stimulus"":""run_exp/static/images/task_images/land.jpg"",""time"":961.3000000044703},{""stimulus"":""run_exp/static/images/task_images/dig.jpg"",""time"":1910.5}]",[],7,,,,,,,,,,,,,,
harvest,168,565990,0.0-52.0-1.0,"""event"",""trial"",""time""
""fullscreenenter"",""1"",""5748""
","
","
","""event"",""trial"",""time""
""fullscreenenter"",""1"",""5748""
","
",,null,run_exp/static/images/task_images/gems/28.jpg,null,,,,,,,19,,,7,,,,,28,0.672312919,0.678571429,,,,,,,
decision,169,566149,0.0-52.0-2.0,"""event"",""trial"",""time""
""fullscreenenter"",""1"",""5748""
","
","
","""event"",""trial"",""time""
""fullscreenenter"",""1"",""5748""
","
",,158.2,run_exp/static/images/task_images/land.jpg,76,,,,,,,19,,,7,,,,,,,,212554,1,6,TRUE,,,
travel,170,576005,0.0-53.0-0.0,"""event"",""trial"",""time""
""fullscreenenter"",""1"",""5748""
","
","
","""event"",""trial"",""time""
""fullscreenenter"",""1"",""5748""
","
",,,,,,,,,,,,"[{""stimulus"":""run_exp/static/images/task_images/rocket-01.jpg"",""time"":0.29999999701976776},{""stimulus"":""run_exp/static/images/task_images/rocket-02.jpg"",""time"":1094.5},{""stimulus"":""run_exp/static/images/task_images/rocket-03.jpg"",""time"":2201.7999999970198},{""stimulus"":""run_exp/static/images/task_images/rocket-04.jpg"",""time"":3288.89999999851},{""stimulus"":""run_exp/static/images/task_images/rocket-05.jpg"",""time"":4373},{""stimulus"":""run_exp/static/images/task_images/rocket-06.jpg"",""time"":5465.79999999702},{""stimulus"":""run_exp/static/images/task_images/rocket-07.jpg"",""time"":6569.10000000149},{""stimulus"":""run_exp/static/images/task_images/rocket-08.jpg"",""time"":7658},{""stimulus"":""run_exp/static/images/task_images/rocket-09.jpg"",""time"":8750.10000000149}]",[],7,,,,,,,,,,,,,,
alien_welcome,171,581016,0.0-53.0-1.0,"""event"",""trial"",""time""
""fullscreenenter"",""1"",""5748""
","
","
","""event"",""trial"",""time""
""fullscreenenter"",""1"",""5748""
","
",,null,run_exp/static/images/task_images/aliens/old_aliens/planet/alien_planet-12.jpg,null,,,,,,,,,,,,,12,"60,63,62,55,51,21,5,12,74,68,49,7,38,23,13,20,3,15,57,31,6,28,34,73,46,70,66,1,43,4,36,80,39,33,16,24,10,27,61,54,64,47,22,25",,,,,,,,,,
land,172,581529,0.0-53.0-2.0,"""event"",""trial"",""time""
""fullscreenenter"",""1"",""5748""
","
","
","""event"",""trial"",""time""
""fullscreenenter"",""1"",""5748""
","
",,null,run_exp/static/images/task_images/land.jpg,null,,,,,,,105,,,8,,,,,,,,,,,,,,
dig,173,583547,0.0-53.0-3.0,"""event"",""trial"",""time""
""fullscreenenter"",""1"",""5748""
","
","
","""event"",""trial"",""time""
""fullscreenenter"",""1"",""5748""
","
",,,,,,,,,,,,"[{""stimulus"":""run_exp/static/images/task_images/dig.jpg"",""time"":0.29999999701976776},{""stimulus"":""run_exp/static/images/task_images/land.jpg"",""time"":680.5},{""stimulus"":""run_exp/static/images/task_images/dig.jpg"",""time"":1349.6000000014901}]",[],8,,,,,,,,,,,,,,
harvest,174,584559,0.0-53.0-4.0,"""event"",""trial"",""time""
""fullscreenenter"",""1"",""5748""
","
","
","""event"",""trial"",""time""
""fullscreenenter"",""1"",""5748""
","
",,null,run_exp/static/images/task_images/gems/105.jpg,null,,,,,,,84,,,8,,,,,105,0.796354641,0.8,,,,,,,
decision,175,584633,0.0-53.0-5.0,"""event"",""trial"",""time""
""fullscreenenter"",""1"",""5748""
","
","
","""event"",""trial"",""time""
""fullscreenenter"",""1"",""5748""
","
",,71.9,run_exp/static/images/task_images/land.jpg,65,,,,,,,84,,,8,,,,,,,,231037,1,0,FALSE,,,
dig,176,587581,0.0-54.0-0.0,"""event"",""trial"",""time""
""fullscreenenter"",""1"",""5748""
","
","
","""event"",""trial"",""time""
""fullscreenenter"",""1"",""5748""
","
",,,,,,,,,,,,"[{""stimulus"":""run_exp/static/images/task_images/dig.jpg"",""time"":0.30000000447034836},{""stimulus"":""run_exp/static/images/task_images/land.jpg"",""time"":978.4000000059605},{""stimulus"":""run_exp/static/images/task_images/dig.jpg"",""time"":1960.5}]",[],8,,,,,,,,,,,,,,
harvest,177,588589,0.0-54.0-1.0,"""event"",""trial"",""time""
""fullscreenenter"",""1"",""5748""
","
","
","""event"",""trial"",""time""
""fullscreenenter"",""1"",""5748""
","
",,null,run_exp/static/images/task_images/gems/84.jpg,null,,,,,,,71,,,8,,,,,84,0.846858194,0.845238095,,,,,,,
decision,178,588615,0.0-54.0-2.0,"""event"",""trial"",""time""
""fullscreenenter"",""1"",""5748""
","
","
","""event"",""trial"",""time""
""fullscreenenter"",""1"",""5748""
","
",,25,run_exp/static/images/task_images/land.jpg,65,,,,,,,71,,,8,,,,,,,,235019,1,1,FALSE,,,
dig,179,591604,0.0-55.0-0.0,"""event"",""trial"",""time""
""fullscreenenter"",""1"",""5748""
","
","
","""event"",""trial"",""time""
""fullscreenenter"",""1"",""5748""
","
",,,,,,,,,,,,"[{""stimulus"":""run_exp/static/images/task_images/dig.jpg"",""time"":0.10000000149011612},{""stimulus"":""run_exp/static/images/task_images/land.jpg"",""time"":995.9000000059605},{""stimulus"":""run_exp/static/images/task_images/dig.jpg"",""time"":1989.8000000044703}]",[],8,,,,,,,,,,,,,,
harvest,180,592615,0.0-55.0-1.0,"""event"",""trial"",""time""
""fullscreenenter"",""1"",""5748""
","
","
","""event"",""trial"",""time""
""fullscreenenter"",""1"",""5748""
","
",,null,run_exp/static/images/task_images/gems/71.jpg,null,,,,,,,50,,,8,,,,,71,0.709787107,0.704225352,,,,,,,
decision,181,592778,0.0-55.0-2.0,"""event"",""trial"",""time""
""fullscreenenter"",""1"",""5748""
","
","
","""event"",""trial"",""time""
""fullscreenenter"",""1"",""5748""
","
",,161.1,run_exp/static/images/task_images/land.jpg,65,,,,,,,50,,,8,,,,,,,,239182,1,2,FALSE,,,
dig,182,595620,0.0-56.0-0.0,"""event"",""trial"",""time""
""fullscreenenter"",""1"",""5748""
","
","
","""event"",""trial"",""time""
""fullscreenenter"",""1"",""5748""
","
",,,,,,,,,,,,"[{""stimulus"":""run_exp/static/images/task_images/dig.jpg"",""time"":0.20000000298023224},{""stimulus"":""run_exp/static/images/task_images/land.jpg"",""time"":954.8999999985099},{""stimulus"":""run_exp/static/images/task_images/dig.jpg"",""time"":1906.3999999985099}]",[],8,,,,,,,,,,,,,,
harvest,183,596633,0.0-56.0-1.0,"""event"",""trial"",""time""
""fullscreenenter"",""1"",""5748""
","
","
","""event"",""trial"",""time""
""fullscreenenter"",""1"",""5748""
","
",,null,run_exp/static/images/task_images/gems/50.jpg,null,,,,,,,44,,,8,,,,,50,0.877826297,0.88,,,,,,,
decision,184,596794,0.0-56.0-2.0,"""event"",""trial"",""time""
""fullscreenenter"",""1"",""5748""
","
","
","""event"",""trial"",""time""
""fullscreenenter"",""1"",""5748""
","
",,159.9,run_exp/static/images/task_images/land.jpg,65,,,,,,,44,,,8,,,,,,,,243198,1,3,FALSE,,,
dig,185,599642,0.0-57.0-0.0,"""event"",""trial"",""time""
""fullscreenenter"",""1"",""5748""
","
","
","""event"",""trial"",""time""
""fullscreenenter"",""1"",""5748""
","
",,,,,,,,,,,,"[{""stimulus"":""run_exp/static/images/task_images/dig.jpg"",""time"":0.30000000447034836},{""stimulus"":""run_exp/static/images/task_images/land.jpg"",""time"":955.7000000029802},{""stimulus"":""run_exp/static/images/task_images/dig.jpg"",""time"":1899.8000000044703}]",[],8,,,,,,,,,,,,,,
harvest,186,600652,0.0-57.0-1.0,"""event"",""trial"",""time""
""fullscreenenter"",""1"",""5748""
","
","
","""event"",""trial"",""time""
""fullscreenenter"",""1"",""5748""
","
",,null,run_exp/static/images/task_images/gems/44.jpg,null,,,,,,,38,,,8,,,,,44,0.862662382,0.863636364,,,,,,,
decision,187,600699,0.0-57.0-2.0,"""event"",""trial"",""time""
""fullscreenenter"",""1"",""5748""
","
","
","""event"",""trial"",""time""
""fullscreenenter"",""1"",""5748""
","
",,46,run_exp/static/images/task_images/land.jpg,65,,,,,,,38,,,8,,,,,,,,247103,1,4,FALSE,,,
dig,188,603661,0.0-58.0-0.0,"""event"",""trial"",""time""
""fullscreenenter"",""1"",""5748""
","
","
","""event"",""trial"",""time""
""fullscreenenter"",""1"",""5748""
","
",,,,,,,,,,,,"[{""stimulus"":""run_exp/static/images/task_images/dig.jpg"",""time"":0.29999999701976776},{""stimulus"":""run_exp/static/images/task_images/land.jpg"",""time"":990.2999999970198},{""stimulus"":""run_exp/static/images/task_images/dig.jpg"",""time"":1984.5}]",[],8,,,,,,,,,,,,,,
harvest,189,604670,0.0-58.0-1.0,"""event"",""trial"",""time""
""fullscreenenter"",""1"",""5748""
","
","
","""event"",""trial"",""time""
""fullscreenenter"",""1"",""5748""
","
",,null,run_exp/static/images/task_images/gems/38.jpg,null,,,,,,,31,,,8,,,,,38,0.80502865,0.815789474,,,,,,,
decision,190,604672,0.0-58.0-2.0,"""event"",""trial"",""time""
""fullscreenenter"",""1"",""5748""
","
","
","""event"",""trial"",""time""
""fullscreenenter"",""1"",""5748""
","
",,0.200000003,run_exp/static/images/task_images/land.jpg,65,,,,,,,31,,,8,,,,,,,,251076,1,5,FALSE,,,
dig,191,607689,0.0-59.0-0.0,"""event"",""trial"",""time""
""fullscreenenter"",""1"",""5748""
","
","
","""event"",""trial"",""time""
""fullscreenenter"",""1"",""5748""
","
",,,,,,,,,,,,"[{""stimulus"":""run_exp/static/images/task_images/dig.jpg"",""time"":0.30000000447034836},{""stimulus"":""run_exp/static/images/task_images/land.jpg"",""time"":1011.7000000029802},{""stimulus"":""run_exp/static/images/task_images/dig.jpg"",""time"":2003.6000000014901}]",[],8,,,,,,,,,,,,,,
harvest,192,608701,0.0-59.0-1.0,"""event"",""trial"",""time""
""fullscreenenter"",""1"",""5748""
","
","
","""event"",""trial"",""time""
""fullscreenenter"",""1"",""5748""
","
",,null,run_exp/static/images/task_images/gems/31.jpg,null,,,,,,,25,,,8,,,,,31,0.798155837,0.806451613,,,,,,,
decision,193,608860,0.0-59.0-2.0,"""event"",""trial"",""time""
""fullscreenenter"",""1"",""5748""
","
","
","""event"",""trial"",""time""
""fullscreenenter"",""1"",""5748""
","
",,157.4,run_exp/static/images/task_images/land.jpg,76,,,,,,,25,,,8,,,,,,,,255264,1,6,TRUE,,,
travel,194,618710,0.0-60.0-0.0,"""event"",""trial"",""time""
""fullscreenenter"",""1"",""5748""
","
","
","""event"",""trial"",""time""
""fullscreenenter"",""1"",""5748""
","
",,,,,,,,,,,,"[{""stimulus"":""run_exp/static/images/task_images/rocket-01.jpg"",""time"":0.10000000149011612},{""stimulus"":""run_exp/static/images/task_images/rocket-02.jpg"",""time"":1095.1000000014901},{""stimulus"":""run_exp/static/images/task_images/rocket-03.jpg"",""time"":2202},{""stimulus"":""run_exp/static/images/task_images/rocket-04.jpg"",""time"":3291.39999999851},{""stimulus"":""run_exp/static/images/task_images/rocket-05.jpg"",""time"":4372.70000000298},{""stimulus"":""run_exp/static/images/task_images/rocket-06.jpg"",""time"":5466.89999999851},{""stimulus"":""run_exp/static/images/task_images/rocket-07.jpg"",""time"":6572.60000000149},{""stimulus"":""run_exp/static/images/task_images/rocket-08.jpg"",""time"":7659.29999999702},{""stimulus"":""run_exp/static/images/task_images/rocket-09.jpg"",""time"":8760}]",[],8,,,,,,,,,,,,,,
alien_welcome,195,623718,0.0-60.0-1.0,"""event"",""trial"",""time""
""fullscreenenter"",""1"",""5748""
","
","
","""event"",""trial"",""time""
""fullscreenenter"",""1"",""5748""
","
",,null,run_exp/static/images/task_images/aliens/old_aliens/planet/alien_planet-74.jpg,null,,,,,,,,,,,,,74,"60,63,62,55,51,21,5,12,74,68,49,7,38,23,13,20,3,15,57,31,6,28,34,73,46,70,66,1,43,4,36,80,39,33,16,24,10,27,61,54,64,47,22,25",,,,,,,,,,
land,196,624230,0.0-60.0-2.0,"""event"",""trial"",""time""
""fullscreenenter"",""1"",""5748""
","
","
","""event"",""trial"",""time""
""fullscreenenter"",""1"",""5748""
","
",,null,run_exp/static/images/task_images/land.jpg,null,,,,,,,105,,,9,,,,,,,,,,,,,,
dig,197,626237,0.0-60.0-3.0,"""event"",""trial"",""time""
""fullscreenenter"",""1"",""5748""
","
","
","""event"",""trial"",""time""
""fullscreenenter"",""1"",""5748""
","
",,,,,,,,,,,,"[{""stimulus"":""run_exp/static/images/task_images/dig.jpg"",""time"":0.4000000059604645},{""stimulus"":""run_exp/static/images/task_images/land.jpg"",""time"":669.6000000014901},{""stimulus"":""run_exp/static/images/task_images/dig.jpg"",""time"":1351.3000000044703}]",[],9,,,,,,,,,,,,,,
harvest,198,627244,0.0-60.0-4.0,"""event"",""trial"",""time""
""fullscreenenter"",""1"",""5748""
","
","
","""event"",""trial"",""time""
""fullscreenenter"",""1"",""5748""
","
",,null,run_exp/static/images/task_images/gems/105.jpg,null,,,,,,,13,,,9,,,,,105,0.122953495,0.123809524,,,,,,,
decision,199,628439,0.0-60.0-5.0,"""event"",""trial"",""time""
""fullscreenenter"",""1"",""5748""
","
","
","""event"",""trial"",""time""
""fullscreenenter"",""1"",""5748""
","
",,1194,run_exp/static/images/task_images/land.jpg,65,,,,,,,13,,,9,,,,,,,,274843,1,0,FALSE,,,
dig,200,630258,0.0-61.0-0.0,"""event"",""trial"",""time""
""fullscreenenter"",""1"",""5748""
","
","
","""event"",""trial"",""time""
""fullscreenenter"",""1"",""5748""
","
",,,,,,,,,,,,"[{""stimulus"":""run_exp/static/images/task_images/dig.jpg"",""time"":0.09999999403953552},{""stimulus"":""run_exp/static/images/task_images/land.jpg"",""time"":617.8999999985099},{""stimulus"":""run_exp/static/images/task_images/dig.jpg"",""time"":1207.6999999955297}]",[],9,,,,,,,,,,,,,,
harvest,201,631265,0.0-61.0-1.0,"""event"",""trial"",""time""
""fullscreenenter"",""1"",""5748""
","
","
","""event"",""trial"",""time""
""fullscreenenter"",""1"",""5748""
","
",,null,run_exp/static/images/task_images/gems/13.jpg,null,,,,,,,3,,,9,,,,,13,0.26655964,0.230769231,,,,,,,
decision,202,631566,0.0-61.0-2.0,"""event"",""trial"",""time""
""fullscreenenter"",""1"",""5748""
","
","
","""event"",""trial"",""time""
""fullscreenenter"",""1"",""5748""
","
",,300.2,run_exp/static/images/task_images/land.jpg,65,,,,,,,3,,,9,,,,,,,,277971,1,1,FALSE,,,
dig,203,634282,0.0-62.0-0.0,"""event"",""trial"",""time""
""fullscreenenter"",""1"",""5748""
","
","
","""event"",""trial"",""time""
""fullscreenenter"",""1"",""5748""
","
",,,,,,,,,,,,"[{""stimulus"":""run_exp/static/images/task_images/dig.jpg"",""time"":0},{""stimulus"":""run_exp/static/images/task_images/land.jpg"",""time"":899.8999999985099},{""stimulus"":""run_exp/static/images/task_images/dig.jpg"",""time"":1808}]",[],9,,,,,,,,,,,,,,
harvest,204,635290,0.0-62.0-1.0,"""event"",""trial"",""time""
""fullscreenenter"",""1"",""5748""
","
","
","""event"",""trial"",""time""
""fullscreenenter"",""1"",""5748""
","
",,null,run_exp/static/images/task_images/gems/3.jpg,null,,,,,,,1,,,9,,,,,3,0.254659134,0.333333333,,,,,,,
decision,205,635383,0.0-62.0-2.0,"""event"",""trial"",""time""
""fullscreenenter"",""1"",""5748""
","
","
","""event"",""trial"",""time""
""fullscreenenter"",""1"",""5748""
","
",,91.8,run_exp/static/images/task_images/land.jpg,76,,,,,,,1,,,9,,,,,,,,281787,1,2,TRUE,,,
travel,206,645300,0.0-63.0-0.0,"""event"",""trial"",""time""
""fullscreenenter"",""1"",""5748""
","
","
","""event"",""trial"",""time""
""fullscreenenter"",""1"",""5748""
","
",,,,,,,,,,,,"[{""stimulus"":""run_exp/static/images/task_images/rocket-01.jpg"",""time"":0.10000000149011612},{""stimulus"":""run_exp/static/images/task_images/rocket-02.jpg"",""time"":1101},{""stimulus"":""run_exp/static/images/task_images/rocket-03.jpg"",""time"":2202.3000000044703},{""stimulus"":""run_exp/static/images/task_images/rocket-04.jpg"",""time"":3301.4000000059605},{""stimulus"":""run_exp/static/images/task_images/rocket-05.jpg"",""time"":4401.60000000149},{""stimulus"":""run_exp/static/images/task_images/rocket-06.jpg"",""time"":5510.30000000447},{""stimulus"":""run_exp/static/images/task_images/rocket-07.jpg"",""time"":6609.70000000298},{""stimulus"":""run_exp/static/images/task_images/rocket-08.jpg"",""time"":7701.60000000149},{""stimulus"":""run_exp/static/images/task_images/rocket-09.jpg"",""time"":8804.10000000149}]",[],9,,,,,,,,,,,,,,
alien_welcome,207,650316,0.0-63.0-1.0,"""event"",""trial"",""time""
""fullscreenenter"",""1"",""5748""
","
","
","""event"",""trial"",""time""
""fullscreenenter"",""1"",""5748""
","
",,null,run_exp/static/images/task_images/aliens/old_aliens/planet/alien_planet-68.jpg,null,,,,,,,,,,,,,68,"60,63,62,55,51,21,5,12,74,68,49,7,38,23,13,20,3,15,57,31,6,28,34,73,46,70,66,1,43,4,36,80,39,33,16,24,10,27,61,54,64,47,22,25",,,,,,,,,,
land,208,650829,0.0-63.0-2.0,"""event"",""trial"",""time""
""fullscreenenter"",""1"",""5748""
","
","
","""event"",""trial"",""time""
""fullscreenenter"",""1"",""5748""
","
",,null,run_exp/static/images/task_images/land.jpg,null,,,,,,,84,,,10,,,,,,,,,,,,,,
dig,209,652834,0.0-63.0-3.0,"""event"",""trial"",""time""
""fullscreenenter"",""1"",""5748""
","
","
","""event"",""trial"",""time""
""fullscreenenter"",""1"",""5748""
","
",,,,,,,,,,,,"[{""stimulus"":""run_exp/static/images/task_images/dig.jpg"",""time"":0.30000000447034836},{""stimulus"":""run_exp/static/images/task_images/land.jpg"",""time"":682.7000000029802},{""stimulus"":""run_exp/static/images/task_images/dig.jpg"",""time"":1336}]",[],10,,,,,,,,,,,,,,
harvest,210,653849,0.0-63.0-4.0,"""event"",""trial"",""time""
""fullscreenenter"",""1"",""5748""
","
","
","""event"",""trial"",""time""
""fullscreenenter"",""1"",""5748""
","
",,null,run_exp/static/images/task_images/gems/84.jpg,null,,,,,,,14,,,10,,,,,84,0.162403485,0.166666667,,,,,,,
decision,211,654522,0.0-63.0-5.0,"""event"",""trial"",""time""
""fullscreenenter"",""1"",""5748""
","
","
","""event"",""trial"",""time""
""fullscreenenter"",""1"",""5748""
","
",,671.5,run_exp/static/images/task_images/land.jpg,65,,,,,,,14,,,10,,,,,,,,300926,1,0,TRUE,,,
end_of_block_continue,212,663433,0.0-64.0-0.0,"""event"",""trial"",""time""
""fullscreenenter"",""1"",""5748""
","
","
","""event"",""trial"",""time""
""fullscreenenter"",""1"",""5748""
","
",,null,run_exp/static/audio/clip_32_block_end.m4a,,,,,,,null,,,,,,,,,,,,,,,,,,
alien_welcome,213,668438,0.0-65.0-0.0,"""event"",""trial"",""time""
""fullscreenenter"",""1"",""5748""
","
","
","""event"",""trial"",""time""
""fullscreenenter"",""1"",""5748""
","
",,null,run_exp/static/images/task_images/aliens/old_aliens/planet/alien_planet-49.jpg,null,,,,,,,,,,,,,49,"60,63,62,55,51,21,5,12,74,68,49,7,38,23,13,20,3,15,57,31,6,28,34,73,46,70,66,1,43,4,36,80,39,33,16,24,10,27,61,54,64,47,22,25",,,,,,,,,,
land,214,668948,0.0-65.0-1.0,"""event"",""trial"",""time""
""fullscreenenter"",""1"",""5748""
","
","
","""event"",""trial"",""time""
""fullscreenenter"",""1"",""5748""
","
",,null,run_exp/static/images/task_images/land.jpg,null,,,,,,,97,,,11,,,,,,,,,,,,,,
dig,215,670953,0.0-65.0-2.0,"""event"",""trial"",""time""
""fullscreenenter"",""1"",""5748""
","
","
","""event"",""trial"",""time""
""fullscreenenter"",""1"",""5748""
","
",,,,,,,,,,,,"[{""stimulus"":""run_exp/static/images/task_images/dig.jpg"",""time"":0.5},{""stimulus"":""run_exp/static/images/task_images/land.jpg"",""time"":681.2999999970198},{""stimulus"":""run_exp/static/images/task_images/dig.jpg"",""time"":1347.0999999940395}]",[],11,,,,,,,,,,,,,,
harvest,216,671964,0.0-65.0-3.0,"""event"",""trial"",""time""
""fullscreenenter"",""1"",""5748""
","
","
","""event"",""trial"",""time""
""fullscreenenter"",""1"",""5748""
","
",,null,run_exp/static/images/task_images/gems/97.jpg,null,,,,,,,23,,,11,,,,,97,0.232465974,0.237113402,,,,,,,
decision,217,672120,0.0-65.0-4.0,"""event"",""trial"",""time""
""fullscreenenter"",""1"",""5748""
","
","
","""event"",""trial"",""time""
""fullscreenenter"",""1"",""5748""
","
",,154.9,run_exp/static/images/task_images/land.jpg,65,,,,,,,23,,,11,,,,,,,,8684,2,0,FALSE,,,
dig,218,674977,0.0-66.0-0.0,"""event"",""trial"",""time""
""fullscreenenter"",""1"",""5748""
","
","
","""event"",""trial"",""time""
""fullscreenenter"",""1"",""5748""
","
",,,,,,,,,,,,"[{""stimulus"":""run_exp/static/images/task_images/dig.jpg"",""time"":0.10000000149011612},{""stimulus"":""run_exp/static/images/task_images/land.jpg"",""time"":959.7999999970198},{""stimulus"":""run_exp/static/images/task_images/dig.jpg"",""time"":1906.1000000014901}]",[],11,,,,,,,,,,,,,,
harvest,219,675987,0.0-66.0-1.0,"""event"",""trial"",""time""
""fullscreenenter"",""1"",""5748""
","
","
","""event"",""trial"",""time""
""fullscreenenter"",""1"",""5748""
","
",,null,run_exp/static/images/task_images/gems/23.jpg,null,,,,,,,5,,,11,,,,,23,0.216417768,0.217391304,,,,,,,
decision,220,675990,0.0-66.0-2.0,"""event"",""trial"",""time""
""fullscreenenter"",""1"",""5748""
","
","
","""event"",""trial"",""time""
""fullscreenenter"",""1"",""5748""
","
",,2.099999994,run_exp/static/images/task_images/land.jpg,76,,,,,,,5,,,11,,,,,,,,12555,2,1,TRUE,,,
travel,221,685996,0.0-67.0-0.0,"""event"",""trial"",""time""
""fullscreenenter"",""1"",""5748""
","
","
","""event"",""trial"",""time""
""fullscreenenter"",""1"",""5748""
","
",,,,,,,,,,,,"[{""stimulus"":""run_exp/static/images/task_images/rocket-01.jpg"",""time"":0.19999999552965164},{""stimulus"":""run_exp/static/images/task_images/rocket-02.jpg"",""time"":1124},{""stimulus"":""run_exp/static/images/task_images/rocket-03.jpg"",""time"":2228.7999999970198},{""stimulus"":""run_exp/static/images/task_images/rocket-04.jpg"",""time"":3332.2999999970198},{""stimulus"":""run_exp/static/images/task_images/rocket-05.jpg"",""time"":4448.10000000149},{""stimulus"":""run_exp/static/images/task_images/rocket-06.jpg"",""time"":5553.39999999851},{""stimulus"":""run_exp/static/images/task_images/rocket-07.jpg"",""time"":6661},{""stimulus"":""run_exp/static/images/task_images/rocket-08.jpg"",""time"":7776},{""stimulus"":""run_exp/static/images/task_images/rocket-09.jpg"",""time"":8882.29999999702}]",[],11,,,,,,,,,,,,,,
alien_welcome,222,691009,0.0-67.0-1.0,"""event"",""trial"",""time""
""fullscreenenter"",""1"",""5748""
","
","
","""event"",""trial"",""time""
""fullscreenenter"",""1"",""5748""
","
",,null,run_exp/static/images/task_images/aliens/old_aliens/planet/alien_planet-7.jpg,null,,,,,,,,,,,,,7,"60,63,62,55,51,21,5,12,74,68,49,7,38,23,13,20,3,15,57,31,6,28,34,73,46,70,66,1,43,4,36,80,39,33,16,24,10,27,61,54,64,47,22,25",,,,,,,,,,
land,223,691521,0.0-67.0-2.0,"""event"",""trial"",""time""
""fullscreenenter"",""1"",""5748""
","
","
","""event"",""trial"",""time""
""fullscreenenter"",""1"",""5748""
","
",,null,run_exp/static/images/task_images/land.jpg,null,,,,,,,99,,,12,,,,,,,,,,,,,,
dig,224,693526,0.0-67.0-3.0,"""event"",""trial"",""time""
""fullscreenenter"",""1"",""5748""
","
","
","""event"",""trial"",""time""
""fullscreenenter"",""1"",""5748""
","
",,,,,,,,,,,,"[{""stimulus"":""run_exp/static/images/task_images/dig.jpg"",""time"":0.30000000447034836},{""stimulus"":""run_exp/static/images/task_images/land.jpg"",""time"":681.7000000029802},{""stimulus"":""run_exp/static/images/task_images/dig.jpg"",""time"":1347.6000000014901}]",[],12,,,,,,,,,,,,,,
harvest,225,694536,0.0-67.0-4.0,"""event"",""trial"",""time""
""fullscreenenter"",""1"",""5748""
","
","
","""event"",""trial"",""time""
""fullscreenenter"",""1"",""5748""
","
",,null,run_exp/static/images/task_images/gems/99.jpg,null,,,,,,,28,,,12,,,,,99,0.278359895,0.282828283,,,,,,,
decision,226,695331,0.0-67.0-5.0,"""event"",""trial"",""time""
""fullscreenenter"",""1"",""5748""
","
","
","""event"",""trial"",""time""
""fullscreenenter"",""1"",""5748""
","
",,793.9,run_exp/static/images/task_images/land.jpg,65,,,,,,,28,,,12,,,,,,,,31896,2,0,FALSE,,,
dig,227,697547,0.0-68.0-0.0,"""event"",""trial"",""time""
""fullscreenenter"",""1"",""5748""
","
","
","""event"",""trial"",""time""
""fullscreenenter"",""1"",""5748""
","
",,,,,,,,,,,,"[{""stimulus"":""run_exp/static/images/task_images/dig.jpg"",""time"":0.20000000298023224},{""stimulus"":""run_exp/static/images/task_images/land.jpg"",""time"":738},{""stimulus"":""run_exp/static/images/task_images/dig.jpg"",""time"":1483.1000000014901}]",[],12,,,,,,,,,,,,,,
harvest,228,698555,0.0-68.0-1.0,"""event"",""trial"",""time""
""fullscreenenter"",""1"",""5748""
","
","
","""event"",""trial"",""time""
""fullscreenenter"",""1"",""5748""
","
",,null,run_exp/static/images/task_images/gems/28.jpg,null,,,,,,,10,,,12,,,,,28,0.358458185,0.357142857,,,,,,,
decision,229,698784,0.0-68.0-2.0,"""event"",""trial"",""time""
""fullscreenenter"",""1"",""5748""
","
","
","""event"",""trial"",""time""
""fullscreenenter"",""1"",""5748""
","
",,227.3,run_exp/static/images/task_images/land.jpg,76,,,,,,,10,,,12,,,,,,,,35348,2,1,TRUE,,,
travel,230,708559,0.0-69.0-0.0,"""event"",""trial"",""time""
""fullscreenenter"",""1"",""5748""
","
","
","""event"",""trial"",""time""
""fullscreenenter"",""1"",""5748""
","
",,,,,,,,,,,,"[{""stimulus"":""run_exp/static/images/task_images/rocket-01.jpg"",""time"":0.10000000149011612},{""stimulus"":""run_exp/static/images/task_images/rocket-02.jpg"",""time"":1086.1000000014901},{""stimulus"":""run_exp/static/images/task_images/rocket-03.jpg"",""time"":2171.89999999851},{""stimulus"":""run_exp/static/images/task_images/rocket-04.jpg"",""time"":3258.60000000149},{""stimulus"":""run_exp/static/images/task_images/rocket-05.jpg"",""time"":4341.20000000298},{""stimulus"":""run_exp/static/images/task_images/rocket-06.jpg"",""time"":5426.79999999702},{""stimulus"":""run_exp/static/images/task_images/rocket-07.jpg"",""time"":6511.20000000298},{""stimulus"":""run_exp/static/images/task_images/rocket-08.jpg"",""time"":7610.10000000149},{""stimulus"":""run_exp/static/images/task_images/rocket-09.jpg"",""time"":8681.5}]",[],12,,,,,,,,,,,,,,
alien_welcome,231,713566,0.0-69.0-1.0,"""event"",""trial"",""time""
""fullscreenenter"",""1"",""5748""
","
","
","""event"",""trial"",""time""
""fullscreenenter"",""1"",""5748""
","
",,null,run_exp/static/images/task_images/aliens/old_aliens/planet/alien_planet-38.jpg,null,,,,,,,,,,,,,38,"60,63,62,55,51,21,5,12,74,68,49,7,38,23,13,20,3,15,57,31,6,28,34,73,46,70,66,1,43,4,36,80,39,33,16,24,10,27,61,54,64,47,22,25",,,,,,,,,,
land,232,714079,0.0-69.0-2.0,"""event"",""trial"",""time""
""fullscreenenter"",""1"",""5748""
","
","
","""event"",""trial"",""time""
""fullscreenenter"",""1"",""5748""
","
",,null,run_exp/static/images/task_images/land.jpg,null,,,,,,,97,,,13,,,,,,,,,,,,,,
dig,233,716085,0.0-69.0-3.0,"""event"",""trial"",""time""
""fullscreenenter"",""1"",""5748""
","
","
","""event"",""trial"",""time""
""fullscreenenter"",""1"",""5748""
","
",,,,,,,,,,,,"[{""stimulus"":""run_exp/static/images/task_images/dig.jpg"",""time"":0.19999999552965164},{""stimulus"":""run_exp/static/images/task_images/land.jpg"",""time"":669.8999999985099},{""stimulus"":""run_exp/static/images/task_images/dig.jpg"",""time"":1336.7999999970198}]",[],13,,,,,,,,,,,,,,
harvest,234,717093,0.0-69.0-4.0,"""event"",""trial"",""time""
""fullscreenenter"",""1"",""5748""
","
","
","""event"",""trial"",""time""
""fullscreenenter"",""1"",""5748""
","
",,null,run_exp/static/images/task_images/gems/97.jpg,null,,,,,,,11,,,13,,,,,97,0.113642082,0.113402062,,,,,,,
decision,235,717377,0.0-69.0-5.0,"""event"",""trial"",""time""
""fullscreenenter"",""1"",""5748""
","
","
","""event"",""trial"",""time""
""fullscreenenter"",""1"",""5748""
","
",,282.7,run_exp/static/images/task_images/land.jpg,65,,,,,,,11,,,13,,,,,,,,53941,2,0,FALSE,,,
dig,236,720109,0.0-70.0-0.0,"""event"",""trial"",""time""
""fullscreenenter"",""1"",""5748""
","
","
","""event"",""trial"",""time""
""fullscreenenter"",""1"",""5748""
","
",,,,,,,,,,,,"[{""stimulus"":""run_exp/static/images/task_images/dig.jpg"",""time"":0.20000000298023224},{""stimulus"":""run_exp/static/images/task_images/land.jpg"",""time"":907.6000000014901},{""stimulus"":""run_exp/static/images/task_images/dig.jpg"",""time"":1813.1000000014901}]",[],13,,,,,,,,,,,,,,
harvest,237,721120,0.0-70.0-1.0,"""event"",""trial"",""time""
""fullscreenenter"",""1"",""5748""
","
","
","""event"",""trial"",""time""
""fullscreenenter"",""1"",""5748""
","
",,null,run_exp/static/images/task_images/gems/11.jpg,null,,,,,,,2,,,13,,,,,11,0.139969072,0.181818182,,,,,,,
decision,238,721335,0.0-70.0-2.0,"""event"",""trial"",""time""
""fullscreenenter"",""1"",""5748""
","
","
","""event"",""trial"",""time""
""fullscreenenter"",""1"",""5748""
","
",,213.7,run_exp/static/images/task_images/land.jpg,76,,,,,,,2,,,13,,,,,,,,57899,2,1,TRUE,,,
travel,239,731125,0.0-71.0-0.0,"""event"",""trial"",""time""
""fullscreenenter"",""1"",""5748""
","
","
","""event"",""trial"",""time""
""fullscreenenter"",""1"",""5748""
","
",,,,,,,,,,,,"[{""stimulus"":""run_exp/static/images/task_images/rocket-01.jpg"",""time"":0.29999999701976776},{""stimulus"":""run_exp/static/images/task_images/rocket-02.jpg"",""time"":1088.5},{""stimulus"":""run_exp/static/images/task_images/rocket-03.jpg"",""time"":2188.0999999940395},{""stimulus"":""run_exp/static/images/task_images/rocket-04.jpg"",""time"":3274.0999999940395},{""stimulus"":""run_exp/static/images/task_images/rocket-05.jpg"",""time"":4361.79999999702},{""stimulus"":""run_exp/static/images/task_images/rocket-06.jpg"",""time"":5446},{""stimulus"":""run_exp/static/images/task_images/rocket-07.jpg"",""time"":6523.39999999851},{""stimulus"":""run_exp/static/images/task_images/rocket-08.jpg"",""time"":7622.5},{""stimulus"":""run_exp/static/images/task_images/rocket-09.jpg"",""time"":8707.79999999702}]",[],13,,,,,,,,,,,,,,
alien_welcome,240,736134,0.0-71.0-1.0,"""event"",""trial"",""time""
""fullscreenenter"",""1"",""5748""
","
","
","""event"",""trial"",""time""
""fullscreenenter"",""1"",""5748""
","
",,null,run_exp/static/images/task_images/aliens/old_aliens/planet/alien_planet-23.jpg,null,,,,,,,,,,,,,23,"60,63,62,55,51,21,5,12,74,68,49,7,38,23,13,20,3,15,57,31,6,28,34,73,46,70,66,1,43,4,36,80,39,33,16,24,10,27,61,54,64,47,22,25",,,,,,,,,,
land,241,736646,0.0-71.0-2.0,"""event"",""trial"",""time""
""fullscreenenter"",""1"",""5748""
","
","
","""event"",""trial"",""time""
""fullscreenenter"",""1"",""5748""
","
",,null,run_exp/static/images/task_images/land.jpg,null,,,,,,,96,,,14,,,,,,,,,,,,,,
dig,242,738651,0.0-71.0-3.0,"""event"",""trial"",""time""
""fullscreenenter"",""1"",""5748""
","
","
","""event"",""trial"",""time""
""fullscreenenter"",""1"",""5748""
","
