trial_type,trial_index,time_elapsed,internal_node_id,interactions,blur_events,focus_events,fullscreenenter_events,fullscreenexit_events,success,rt,stimulus,key_press,prompt,subject_id,participant_id,age,gender,button_pressed,next_reward,animation_sequence,responses,planet,curr_prac_trial,n_prac_rounds,alien,aliens,reward_received,decay_rate_actual,decay_rate_exp,time_in_block,block_num,prt,last_trial_on_planet,button_html,bonus,num_failures
pavlovia,0,4,0.0-0.0,"""event"",""trial"",""time""
""fullscreenenter"",""1"",""261602""
","
","
","""event"",""trial"",""time""
""fullscreenenter"",""1"",""261602""
","
",,,,,,,,,,,,,,,,,,,,,,,,,,,,
fullscreen,1,262590,0.0-1.0,"""event"",""trial"",""time""
""fullscreenenter"",""1"",""261602""
","
","
","""event"",""trial"",""time""
""fullscreenenter"",""1"",""261602""
","
",TRUE,,,,,,,,,,,,,,,,,,,,,,,,,,,
instruc_welcome,2,272343,0.0-2.0,"""event"",""trial"",""time""
""fullscreenenter"",""1"",""261602""
","
","
","""event"",""trial"",""time""
""fullscreenenter"",""1"",""261602""
","
",,null,run_exp/static/audio/clip_1_welcome.m4a,null,"<p>Howdy! In this experiment, you’ll be an explorer traveling through space to collect space treasure.</p><p>Your mission is to collect as much treasure as possible.</p><br><br><p><img src='run_exp/static/images/task_images/opening_img-01.jpg' height='300' width='auto'></p>",8104,3001,18.68,Female,,,,,,,,,,,,,,,,,,,
audio-keyboard-response,3,288922,0.0-3.0,"""event"",""trial"",""time""
""fullscreenenter"",""1"",""261602""
","
","
","""event"",""trial"",""time""
""fullscreenenter"",""1"",""261602""
","
",,null,run_exp/static/audio/clip_2_move.m4a,null,,,,,,,,,,,,,,,,,,,,,,,,
welcome_dec,4,290370,0.0-4.0,"""event"",""trial"",""time""
""fullscreenenter"",""1"",""261602""
","
","
","""event"",""trial"",""time""
""fullscreenenter"",""1"",""261602""
","
",,1444.5,"<p>Howdy! In this experiment, you’ll be an explorer traveling through space to collect space treasure.</p><p>Your mission is to collect as much treasure as possible.</p><br><br><p><img src='run_exp/static/images/task_images/opening_img-01.jpg' height='300' width='auto'></p>",,,,,,,1,,,,,,,,,,,,,,,,,,
html-keyboard-response,5,290804,0.0-5.0,"""event"",""trial"",""time""
""fullscreenenter"",""1"",""261602""
","
","
","""event"",""trial"",""time""
""fullscreenenter"",""1"",""261602""
","
",,433.2,"<p>Howdy! In this experiment, you’ll be an explorer traveling through space to collect space treasure.</p><p>Your mission is to collect as much treasure as possible.</p><br><br><p><img src='run_exp/static/images/task_images/opening_img-01.jpg' height='300' width='auto'></p><button class=""jspsych-html-btn-unchosen""><img src=""run_exp/static/images/task_images/planet-01.jpg"" height=""50""></button><button class=""jspsych-html-btn-chosen""><img src=""run_exp/static/images/task_images/planet-02.jpg"" height=""50""></button><p><b>[press the space bar to lock in your answer]<b><br></p>",32,,,,,,,,,,,,,,,,,,,,,,,,
instruc_goal,6,300862,0.0-6.0-0.0,"""event"",""trial"",""time""
""fullscreenenter"",""1"",""261602""
","
","
","""event"",""trial"",""time""
""fullscreenenter"",""1"",""261602""
","
",,null,run_exp/static/audio/clip_3_goal.m4a,null,"<p> As a space explorer, you’ll visit different planets to dig for space treasure, these pink gems.</p> <p> The more treasure you dig up, the more bonus money you’ll win! </p><br><br><p><img src='run_exp/static/images/task_images/pink_gem.jpg' height='300' width='auto'></p>",,,,,,,,,,,,,,,,,,,,,,,
instruc_goal,7,302374,0.0-6.0-1.0,"""event"",""trial"",""time""
""fullscreenenter"",""1"",""261602""
","
","
","""event"",""trial"",""time""
""fullscreenenter"",""1"",""261602""
","
",,1509.2,"<p> As a space explorer, you’ll visit different planets to dig for space treasure, these pink gems.</p> <p> The more treasure you dig up, the more bonus money you’ll win! </p><br><br><p><img src='run_exp/static/images/task_images/pink_gem.jpg' height='300' width='auto'></p>",,,,,,,1,,,,,,,,,,,,,,,,,,
html-keyboard-response,8,302877,0.0-6.0-2.0,"""event"",""trial"",""time""
""fullscreenenter"",""1"",""261602""
","
","
","""event"",""trial"",""time""
""fullscreenenter"",""1"",""261602""
","
",,502.4,"<p> As a space explorer, you’ll visit different planets to dig for space treasure, these pink gems.</p> <p> The more treasure you dig up, the more bonus money you’ll win! </p><br><br><p><img src='run_exp/static/images/task_images/pink_gem.jpg' height='300' width='auto'></p><button class=""jspsych-html-btn-unchosen""><img src=""run_exp/static/images/task_images/planet-01.jpg"" height=""50""></button><button class=""jspsych-html-btn-chosen""><img src=""run_exp/static/images/task_images/planet-02.jpg"" height=""50""></button><p><b>[press the space bar to lock in your answer]<b><br></p>",32,,,,,,,,,,,,,,,,,,,,,,,,
instruc_dig,9,318883,0.0-7.0-0.0,"""event"",""trial"",""time""
""fullscreenenter"",""1"",""261602""
","
","
","""event"",""trial"",""time""
""fullscreenenter"",""1"",""261602""
","
",,null,run_exp/static/audio/clip_4_dig.m4a,null,,,,,,,100,,,,,,,,,,,,,,,,,
instruc_dig_try,10,319107,0.0-7.0-1.0,"""event"",""trial"",""time""
""fullscreenenter"",""1"",""261602""
","
","
","""event"",""trial"",""time""
""fullscreenenter"",""1"",""261602""
","
",,221.3,"<p> When you’ve arrived at a new planet, you will dig once. </p> <p>Then, you get to decide if you want to stay on the planet and dig again or travel to a new planet and dig there.</p> <p> To stay and dig, press the letter <strong>‘A’</strong> on your keyboard. Try pressing it now! </p><p><img src='run_exp/static/images/task_images/land.jpg'  height='700' width='auto'></p>",65,"<p> When you’ve arrived at a new planet, you will dig once. </p> <p>Then, you get to decide if you want to stay on the planet and dig again or travel to a new planet and dig there.</p> <p> To stay and dig, press the letter <strong>‘A’</strong> on your keyboard. Try pressing it now! </p><p><img src='run_exp/static/images/task_images/land.jpg'  height='700' width='auto'></p>",,,,,,100,,,,,,,,,,,,,,,,,
dig_prac,11,321118,0.0-7.0-2.0,"""event"",""trial"",""time""
""fullscreenenter"",""1"",""261602""
","
","
","""event"",""trial"",""time""
""fullscreenenter"",""1"",""261602""
","
",,,,,,,,,,,,"[{""stimulus"":""run_exp/static/images/task_images/dig.jpg"",""time"":0.3999999985098839},{""stimulus"":""run_exp/static/images/task_images/land.jpg"",""time"":669.5},{""stimulus"":""run_exp/static/images/task_images/dig.jpg"",""time"":1336.6999999955297}]",[],,,,,,,,,,,,,,,
instruc_travel,12,357382,0.0-7.0-3.0,"""event"",""trial"",""time""
""fullscreenenter"",""1"",""261602""
","
","
","""event"",""trial"",""time""
""fullscreenenter"",""1"",""261602""
","
",,null,run_exp/static/audio/clip_5_travel.m4a,null,"<p>Every time you dig up gems, there are less gems on the planet, so the more you dig on a planet the fewer gems you’ll get with each dig.</p><p>When gems are running low, you may want to travel to a new planet. </p> <p>  Planets are very far apart in this galaxy, so it will take some time to travel between them. </p> <br><p>There are lots and lots of planets for you to visit, so you won’t be able to return to any planets you’ve seen before. </p><br><p>To leave this planet and travel to a new one, press the letter <strong>‘L’</strong> on your keyboard. Try pressing it now! </p><p><img src='run_exp/static/images/task_images/rocket-01.jpg'  height='600' width='auto'></p>",,,,,,,,,,,,,,,,,,,,,,,
instruc_travel_try,13,359579,0.0-7.0-4.0,"""event"",""trial"",""time""
""fullscreenenter"",""1"",""261602""
","
","
","""event"",""trial"",""time""
""fullscreenenter"",""1"",""261602""
","
",,2193.5,"<p>Every time you dig up gems, there are less gems on the planet, so the more you dig on a planet the fewer gems you’ll get with each dig.</p><p>When gems are running low, you may want to travel to a new planet. </p> <p>  Planets are very far apart in this galaxy, so it will take some time to travel between them. </p> <br><p>There are lots and lots of planets for you to visit, so you won’t be able to return to any planets you’ve seen before. </p><br><p>To leave this planet and travel to a new one, press the letter <strong>‘L’</strong> on your keyboard. Try pressing it now! </p><p><img src='run_exp/static/images/task_images/rocket-01.jpg'  height='600' width='auto'></p>",76,"<p>Every time you dig up gems, there are less gems on the planet, so the more you dig on a planet the fewer gems you’ll get with each dig.</p><p>When gems are running low, you may want to travel to a new planet. </p> <p>  Planets are very far apart in this galaxy, so it will take some time to travel between them. </p> <br><p>There are lots and lots of planets for you to visit, so you won’t be able to return to any planets you’ve seen before. </p><br><p>To leave this planet and travel to a new one, press the letter <strong>‘L’</strong> on your keyboard. Try pressing it now! </p><p><img src='run_exp/static/images/task_images/rocket-01.jpg'  height='600' width='auto'></p>",,,,,,,,,,,,,,,,,,,,,,,
travel_prac,14,369583,0.0-7.0-5.0,"""event"",""trial"",""time""
""fullscreenenter"",""1"",""261602""
","
","
","""event"",""trial"",""time""
""fullscreenenter"",""1"",""261602""
","
",,,,,,,,,,,,"[{""stimulus"":""run_exp/static/images/task_images/rocket-01.jpg"",""time"":0.29999999701976776},{""stimulus"":""run_exp/static/images/task_images/rocket-02.jpg"",""time"":1112.5},{""stimulus"":""run_exp/static/images/task_images/rocket-03.jpg"",""time"":2223.89999999851},{""stimulus"":""run_exp/static/images/task_images/rocket-04.jpg"",""time"":3335.39999999851},{""stimulus"":""run_exp/static/images/task_images/rocket-05.jpg"",""time"":4446.69999999553},{""stimulus"":""run_exp/static/images/task_images/rocket-06.jpg"",""time"":5556.89999999851},{""stimulus"":""run_exp/static/images/task_images/rocket-07.jpg"",""time"":6667.89999999851},{""stimulus"":""run_exp/static/images/task_images/rocket-08.jpg"",""time"":7780.29999999702},{""stimulus"":""run_exp/static/images/task_images/rocket-09.jpg"",""time"":8889.39999999851}]",[],0,,,,,,,,,,,,,,
instruc_alien_greet,15,396772,0.0-7.0-6.0,"""event"",""trial"",""time""
""fullscreenenter"",""1"",""261602""
","
","
","""event"",""trial"",""time""
""fullscreenenter"",""1"",""261602""
","
",,null,run_exp/static/audio/clip_6_alien.m4a,null,"<p>When you arrive at a new planet, the alien who owns the treasure mine on that planet will greet you!</p><p>The better an alien takes care of their mine the easier it is to dig for gems. Some aliens take better care of their mine than others. So, you won’t get exactly the same amount of gems on each planet.</p><p>What the alien looks like does not tell you anything about how many gems there are on the planet.</p><br><p><img src=""run_exp/static/images/task_images/aliens/instructions_aliens/planet/alien_planet-1.jpg""  height=""600"" width=""auto""></p>",,,,,,,,,,,,,,,,,,,,,,,
instruc_alien_greet,16,401822,0.0-7.0-7.0,"""event"",""trial"",""time""
""fullscreenenter"",""1"",""261602""
","
","
","""event"",""trial"",""time""
""fullscreenenter"",""1"",""261602""
","
",,5045.9,"<p>When you arrive at a new planet, the alien who owns the treasure mine on that planet will greet you!</p><p>The better an alien takes care of their mine the easier it is to dig for gems. Some aliens take better care of their mine than others. So, you won’t get exactly the same amount of gems on each planet.</p><p>What the alien looks like does not tell you anything about how many gems there are on the planet.</p><br><p><img src=""run_exp/static/images/task_images/aliens/instructions_aliens/planet/alien_planet-1.jpg""  height=""600"" width=""auto""></p>",,,,,,,1,,,,,,,,,,,,,,,,,,
html-keyboard-response,17,404377,0.0-7.0-8.0,"""event"",""trial"",""time""
""fullscreenenter"",""1"",""261602""
","
","
","""event"",""trial"",""time""
""fullscreenenter"",""1"",""261602""
","
",,2552.3,"<p>When you arrive at a new planet, the alien who owns the treasure mine on that planet will greet you!</p><p>The better an alien takes care of their mine the easier it is to dig for gems. Some aliens take better care of their mine than others. So, you won’t get exactly the same amount of gems on each planet.</p><p>What the alien looks like does not tell you anything about how many gems there are on the planet.</p><br><p><img src=""run_exp/static/images/task_images/aliens/instructions_aliens/planet/alien_planet-1.jpg""  height=""600"" width=""auto""></p><button class=""jspsych-html-btn-unchosen""><img src=""run_exp/static/images/task_images/planet-01.jpg"" height=""50""></button><button class=""jspsych-html-btn-chosen""><img src=""run_exp/static/images/task_images/planet-02.jpg"" height=""50""></button><p><b>[press the space bar to lock in your answer]<b><br></p>",32,,,,,,,,,,,,,,,,,,,,,,,,
time_out,18,415472,0.0-8.0-0.0,"""event"",""trial"",""time""
""fullscreenenter"",""1"",""261602""
","
","
","""event"",""trial"",""time""
""fullscreenenter"",""1"",""261602""
","
",,null,run_exp/static/audio/clip_7_timeout.m4a,null,"<p>If you don't make your choice fast enough, you’ll have to wait a few seconds before you can make another one.</p><p>You can’t dig for more gems or travel to new planets. You just have to sit and wait.</p><br><p><img src='run_exp/static/images/task_images/time_out.jpg'  height='600' width='auto'></p>",,,,,,,,,,,,,,,,,,,,,,,
time_out,19,419106,0.0-8.0-1.0,"""event"",""trial"",""time""
""fullscreenenter"",""1"",""261602""
","
","
","""event"",""trial"",""time""
""fullscreenenter"",""1"",""261602""
","
",,3630,"<p>If you don't make your choice fast enough, you’ll have to wait a few seconds before you can make another one.</p><p>You can’t dig for more gems or travel to new planets. You just have to sit and wait.</p><br><p><img src='run_exp/static/images/task_images/time_out.jpg'  height='600' width='auto'></p>",,,,,,,1,,,,,,,,,,,,,,,,,,
html-keyboard-response,20,419447,0.0-8.0-2.0,"""event"",""trial"",""time""
""fullscreenenter"",""1"",""261602""
","
","
","""event"",""trial"",""time""
""fullscreenenter"",""1"",""261602""
","
",,338.7,"<p>If you don't make your choice fast enough, you’ll have to wait a few seconds before you can make another one.</p><p>You can’t dig for more gems or travel to new planets. You just have to sit and wait.</p><br><p><img src='run_exp/static/images/task_images/time_out.jpg'  height='600' width='auto'></p><button class=""jspsych-html-btn-unchosen""><img src=""run_exp/static/images/task_images/planet-01.jpg"" height=""50""></button><button class=""jspsych-html-btn-chosen""><img src=""run_exp/static/images/task_images/planet-02.jpg"" height=""50""></button><p><b>[press the space bar to lock in your answer]<b><br></p>",32,,,,,,,,,,,,,,,,,,,,,,,,
instruc_break,21,435132,0.0-9.0-0.0,"""event"",""trial"",""time""
""fullscreenenter"",""1"",""261602""
","
","
","""event"",""trial"",""time""
""fullscreenenter"",""1"",""261602""
","
",,null,run_exp/static/audio/clip_8_break.m4a,null,"<p> After digging and traveling for a while, you’ll be able to take a break at home base. </p><p>The game will last 20 minutes no matter what.</p><p>You will visit home base every 5 minutes, so, you will visit home base three times during the game.</p><br><p><img src='run_exp/static/images/task_images/home_base.jpg' height='600' width='auto'></p>",,,,,,,,,,,,,,,,,,,,,,,
instruc_break,22,440475,0.0-9.0-1.0,"""event"",""trial"",""time""
""fullscreenenter"",""1"",""261602""
","
","
","""event"",""trial"",""time""
""fullscreenenter"",""1"",""261602""
","
",,5339.2,"<p> After digging and traveling for a while, you’ll be able to take a break at home base. </p><p>The game will last 20 minutes no matter what.</p><p>You will visit home base every 5 minutes, so, you will visit home base three times during the game.</p><br><p><img src='run_exp/static/images/task_images/home_base.jpg' height='600' width='auto'></p>",,,,,,,1,,,,,,,,,,,,,,,,,,
html-keyboard-response,23,440492,0.0-9.0-2.0,"""event"",""trial"",""time""
""fullscreenenter"",""1"",""261602""
","
","
","""event"",""trial"",""time""
""fullscreenenter"",""1"",""261602""
","
",,13.7,"<p> After digging and traveling for a while, you’ll be able to take a break at home base. </p><p>The game will last 20 minutes no matter what.</p><p>You will visit home base every 5 minutes, so, you will visit home base three times during the game.</p><br><p><img src='run_exp/static/images/task_images/home_base.jpg' height='600' width='auto'></p><button class=""jspsych-html-btn-unchosen""><img src=""run_exp/static/images/task_images/planet-01.jpg"" height=""50""></button><button class=""jspsych-html-btn-chosen""><img src=""run_exp/static/images/task_images/planet-02.jpg"" height=""50""></button><p><b>[press the space bar to lock in your answer]<b><br></p>",32,,,,,,,,,,,,,,,,,,,,,,,,
instruc_prac_game,24,450632,0.0-10.0-0.0,"""event"",""trial"",""time""
""fullscreenenter"",""1"",""261602""
","
","
","""event"",""trial"",""time""
""fullscreenenter"",""1"",""261602""
","
",,null,run_exp/static/audio/clip_9_practice.m4a,null,"<p> Are you ready to play a practice game? </p> <p>In this practice game, you'll be digging up barrels of gems. But, in the real game, you'll be digging up the gems themselves. </p>",,,,,,,,,,,,,,,,,,,,,,,
html-button-response,25,453273,0.0-10.0-1.0,"""event"",""trial"",""time""
""fullscreenenter"",""1"",""261602""
","
","
","""event"",""trial"",""time""
""fullscreenenter"",""1"",""261602""
","
",,2638.4,"<p> Are you ready to play a practice game? </p> <p>In this practice game, you'll be digging up barrels of gems. But, in the real game, you'll be digging up the gems themselves. </p>",,,,,,,0,,,,,,,,,,,,,,,,,,
alien_welcome_prac,26,458277,0.0-11.0-0.0,"""event"",""trial"",""time""
""fullscreenenter"",""1"",""261602""
","
","
","""event"",""trial"",""time""
""fullscreenenter"",""1"",""261602""
","
",,null,run_exp/static/images/task_images/aliens/practice_aliens/planet/alien_planet-5.jpg,null,,,,,,,,,,,,,,,,,,,,,,,,
land_prac,27,458781,0.0-11.0-1.0,"""event"",""trial"",""time""
""fullscreenenter"",""1"",""261602""
","
","
","""event"",""trial"",""time""
""fullscreenenter"",""1"",""261602""
","
",,null,run_exp/static/images/task_images/land.jpg,null,,,,,,,102,,,0,,,,,,,,,,,,,,
dig_prac,28,460785,0.0-11.0-2.0,"""event"",""trial"",""time""
""fullscreenenter"",""1"",""261602""
","
","
","""event"",""trial"",""time""
""fullscreenenter"",""1"",""261602""
","
",,,,,,,,,,,,"[{""stimulus"":""run_exp/static/images/task_images/dig.jpg"",""time"":0.3999999985098839},{""stimulus"":""run_exp/static/images/task_images/land.jpg"",""time"":669.2999999970198},{""stimulus"":""run_exp/static/images/task_images/dig.jpg"",""time"":1336.2999999970198}]",[],,,,,,,,,,,,,,,
harvest_prac,29,461789,0.0-11.0-3.0,"""event"",""trial"",""time""
""fullscreenenter"",""1"",""261602""
","
","
","""event"",""trial"",""time""
""fullscreenenter"",""1"",""261602""
","
",,null,run_exp/static/images/task_images/barrel_text.jpg,null,,,,,,,,,,,,,,,,,,,,,,,,
decision_prac,30,464273,0.0-11.0-4.0,"""event"",""trial"",""time""
""fullscreenenter"",""1"",""261602""
","
","
","""event"",""trial"",""time""
""fullscreenenter"",""1"",""261602""
","
",,2481.9,run_exp/static/images/task_images/land.jpg,65,,,,,,,,,,,1,,,,,,,,,,,,,
dig_prac,31,466279,0.0-12.0-0.0,"""event"",""trial"",""time""
""fullscreenenter"",""1"",""261602""
","
","
","""event"",""trial"",""time""
""fullscreenenter"",""1"",""261602""
","
",,,,,,,,,,,,"[{""stimulus"":""run_exp/static/images/task_images/dig.jpg"",""time"":0.29999999701976776},{""stimulus"":""run_exp/static/images/task_images/land.jpg"",""time"":668.2999999970198},{""stimulus"":""run_exp/static/images/task_images/dig.jpg"",""time"":1336.0999999940395}]",[],,,,,,,,,,,,,,,
harvest_prac,32,467282,0.0-12.0-1.0,"""event"",""trial"",""time""
""fullscreenenter"",""1"",""261602""
","
","
","""event"",""trial"",""time""
""fullscreenenter"",""1"",""261602""
","
",,null,run_exp/static/images/task_images/barrel_text.jpg,null,,,,,,,,,,,,,,,,,,,,,,,,
decision_prac,33,467885,0.0-12.0-2.0,"""event"",""trial"",""time""
""fullscreenenter"",""1"",""261602""
","
","
","""event"",""trial"",""time""
""fullscreenenter"",""1"",""261602""
","
",,601.8,run_exp/static/images/task_images/land.jpg,76,,,,,,,,,,,2,,,,,,,,,,,,,
travel,34,477286,0.0-13.0-0.0,"""event"",""trial"",""time""
""fullscreenenter"",""1"",""261602""
","
","
","""event"",""trial"",""time""
""fullscreenenter"",""1"",""261602""
","
",,,,,,,,,,,,"[{""stimulus"":""run_exp/static/images/task_images/rocket-01.jpg"",""time"":0.10000000149011612},{""stimulus"":""run_exp/static/images/task_images/rocket-02.jpg"",""time"":1046.1000000014901},{""stimulus"":""run_exp/static/images/task_images/rocket-03.jpg"",""time"":2090},{""stimulus"":""run_exp/static/images/task_images/rocket-04.jpg"",""time"":3134.2000000029802},{""stimulus"":""run_exp/static/images/task_images/rocket-05.jpg"",""time"":4177.5},{""stimulus"":""run_exp/static/images/task_images/rocket-06.jpg"",""time"":5221.20000000298},{""stimulus"":""run_exp/static/images/task_images/rocket-07.jpg"",""time"":6265.4000000059605},{""stimulus"":""run_exp/static/images/task_images/rocket-08.jpg"",""time"":7310.20000000298},{""stimulus"":""run_exp/static/images/task_images/rocket-09.jpg"",""time"":8354}]",[],0,,,,,,,,,,,,,,
alien_welcome_prac,35,482289,0.0-13.0-1.0,"""event"",""trial"",""time""
""fullscreenenter"",""1"",""261602""
","
","
","""event"",""trial"",""time""
""fullscreenenter"",""1"",""261602""
","
",,null,run_exp/static/images/task_images/aliens/practice_aliens/planet/alien_planet-4.jpg,null,,,,,,,,,,,,,,,,,,,,,,,,
land_prac,36,482792,0.0-13.0-2.0,"""event"",""trial"",""time""
""fullscreenenter"",""1"",""261602""
","
","
","""event"",""trial"",""time""
""fullscreenenter"",""1"",""261602""
","
",,null,run_exp/static/images/task_images/land.jpg,null,,,,,,,102,,,0,,,,,,,,,,,,,,
dig_prac,37,484796,0.0-13.0-3.0,"""event"",""trial"",""time""
""fullscreenenter"",""1"",""261602""
","
","
","""event"",""trial"",""time""
""fullscreenenter"",""1"",""261602""
","
",,,,,,,,,,,,"[{""stimulus"":""run_exp/static/images/task_images/dig.jpg"",""time"":0.5},{""stimulus"":""run_exp/static/images/task_images/land.jpg"",""time"":669.8999999985099},{""stimulus"":""run_exp/static/images/task_images/dig.jpg"",""time"":1335.6000000014901}]",[],,,,,,,,,,,,,,,
harvest_prac,38,485800,0.0-13.0-4.0,"""event"",""trial"",""time""
""fullscreenenter"",""1"",""261602""
","
","
","""event"",""trial"",""time""
""fullscreenenter"",""1"",""261602""
","
",,null,run_exp/static/images/task_images/barrel_text.jpg,null,,,,,,,,,,,,,,,,,,,,,,,,
decision_prac,39,485824,0.0-13.0-5.0,"""event"",""trial"",""time""
""fullscreenenter"",""1"",""261602""
","
","
","""event"",""trial"",""time""
""fullscreenenter"",""1"",""261602""
","
",,22,run_exp/static/images/task_images/land.jpg,65,,,,,,,,,,,3,,,,,,,,,,,,,
dig_prac,40,487829,0.0-14.0-0.0,"""event"",""trial"",""time""
""fullscreenenter"",""1"",""261602""
","
","
","""event"",""trial"",""time""
""fullscreenenter"",""1"",""261602""
","
",,,,,,,,,,,,"[{""stimulus"":""run_exp/static/images/task_images/dig.jpg"",""time"":0.30000000447034836},{""stimulus"":""run_exp/static/images/task_images/land.jpg"",""time"":668.3000000044703},{""stimulus"":""run_exp/static/images/task_images/dig.jpg"",""time"":1335.9000000059605}]",[],,,,,,,,,,,,,,,
harvest_prac,41,488832,0.0-14.0-1.0,"""event"",""trial"",""time""
""fullscreenenter"",""1"",""261602""
","
","
","""event"",""trial"",""time""
""fullscreenenter"",""1"",""261602""
","
",,null,run_exp/static/images/task_images/barrel_text.jpg,null,,,,,,,,,,,,,,,,,,,,,,,,
decision_prac,42,489924,0.0-14.0-2.0,"""event"",""trial"",""time""
""fullscreenenter"",""1"",""261602""
","
","
","""event"",""trial"",""time""
""fullscreenenter"",""1"",""261602""
","
",,1090.7,run_exp/static/images/task_images/land.jpg,65,,,,,,,,,,,4,,,,,,,,,,,,,
dig_prac,43,491931,0.0-15.0-0.0,"""event"",""trial"",""time""
""fullscreenenter"",""1"",""261602""
","
","
","""event"",""trial"",""time""
""fullscreenenter"",""1"",""261602""
","
",,,,,,,,,,,,"[{""stimulus"":""run_exp/static/images/task_images/dig.jpg"",""time"":0.20000000298023224},{""stimulus"":""run_exp/static/images/task_images/land.jpg"",""time"":668.8999999985099},{""stimulus"":""run_exp/static/images/task_images/dig.jpg"",""time"":1335.2000000029802}]",[],,,,,,,,,,,,,,,
harvest_prac,44,492933,0.0-15.0-1.0,"""event"",""trial"",""time""
""fullscreenenter"",""1"",""261602""
","
","
","""event"",""trial"",""time""
""fullscreenenter"",""1"",""261602""
","
",,null,run_exp/static/images/task_images/barrel_text.jpg,null,,,,,,,,,,,,,,,,,,,,,,,,
decision_prac,45,493205,0.0-15.0-2.0,"""event"",""trial"",""time""
""fullscreenenter"",""1"",""261602""
","
","
","""event"",""trial"",""time""
""fullscreenenter"",""1"",""261602""
","
",,270.4,run_exp/static/images/task_images/land.jpg,76,,,,,,,,,,,,1,,,,,,,,,,,,
quiz_instruc,46,496101,0.0-16.0-0.0,"""event"",""trial"",""time""
""fullscreenenter"",""1"",""261602""
","
","
","""event"",""trial"",""time""
""fullscreenenter"",""1"",""261602""
","
",,2892.6,run_exp/static/audio/clip_10_quiz.m4a,,,,,,,0,,,,,,,,,,,,,,,,,,
instruc_repeat,47,538872,0.0-16.0-1.0,"""event"",""trial"",""time""
""fullscreenenter"",""1"",""261602""
","
","
","""event"",""trial"",""time""
""fullscreenenter"",""1"",""261602""
","
",,null,"<p> Are you ready to play a practice game? </p> <p>In this practice game, you'll be digging up barrels of gems. But, in the real game, you'll be digging up the gems themselves. </p>",null,"<p>In this game, your goal is to collect as many gems as you can. That’s how you will win bonus money. </p> <p>The entire game will last 20 minutes no matter how many gems you collect or how many planets you visit. </p><p>To stay on a planet and dig again, press the letter A on your keyboard. To leave for a new planet, press the letter L.</p><p>The more you dig on a planet, the fewer gems you’ll get with each dig which is why you might consider leaving for a new planet. </p><p>When you arrive at a new planet, you’ll be greeted by an alien. What the alien looks like does not tell you anything about how much treasure is on the planet. </p>",,,,,,,,,,,,,,,,,,,,,,,
instruc_repeat_continue,48,540964,0.0-16.0-2.0,"""event"",""trial"",""time""
""fullscreenenter"",""1"",""261602""
","
","
","""event"",""trial"",""time""
""fullscreenenter"",""1"",""261602""
","
",,2089.6,"<p> Are you ready to play a practice game? </p> <p>In this practice game, you'll be digging up barrels of gems. But, in the real game, you'll be digging up the gems themselves. </p>",,,,,,,0,,,,,,,,,,,,,,,,,,
quiz_q_1_ask,49,546930,0.0-16.0-3.0,"""event"",""trial"",""time""
""fullscreenenter"",""1"",""261602""
","
","
","""event"",""trial"",""time""
""fullscreenenter"",""1"",""261602""
","
",,5963.6,run_exp/static/audio/clip_11_q1_ask.m4a,,,,,,,2,,,,,,,,,,,,,,,,,,
quiz_q_1_fb_correct,50,550793,0.0-17.0-0.0,"""event"",""trial"",""time""
""fullscreenenter"",""1"",""261602""
","
","
","""event"",""trial"",""time""
""fullscreenenter"",""1"",""261602""
","
",,null,run_exp/static/audio/clip_12_q1_correct.m4a,null,<p>That’s correct. You win extra money by collecting more gems.</p>,,,,,,,,,,,,,,,,,,,,,,,
quiz_q_2_ask,51,553463,0.0-17.0-1.0,"""event"",""trial"",""time""
""fullscreenenter"",""1"",""261602""
","
","
","""event"",""trial"",""time""
""fullscreenenter"",""1"",""261602""
","
",,2667.5,run_exp/static/audio/clip_14_q2_ask.m4a,,,,,,,1,,,,,,,,,,,,,,,,,,
quiz_q_2_fb_correct,52,557472,0.0-18.0-0.0,"""event"",""trial"",""time""
""fullscreenenter"",""1"",""261602""
","
","
","""event"",""trial"",""time""
""fullscreenenter"",""1"",""261602""
","
",,null,run_exp/static/audio/clip_15_q2_correct.m4a,null,<p>That’s correct. The experiment is 20 minutes no matter what.</p>,,,,,,,,,,,,,,,,,,,,,,,
quiz_q_3_ask,53,559334,0.0-18.0-1.0,"""event"",""trial"",""time""
""fullscreenenter"",""1"",""261602""
","
","
","""event"",""trial"",""time""
""fullscreenenter"",""1"",""261602""
","
",,1858.3,run_exp/static/audio/clip_17_q3_ask.m4a,,,,,,,1,,,,,,,,,,,,,,,,,,
quiz_q_3_fb_correct,54,563333,0.0-19.0-0.0,"""event"",""trial"",""time""
""fullscreenenter"",""1"",""261602""
","
","
","""event"",""trial"",""time""
""fullscreenenter"",""1"",""261602""
","
",,null,run_exp/static/audio/clip_18_q3_correct.m4a,null,<p> That’s correct. You press the letter L to travel to a new planet.</p>,,,,,,,,,,,,,,,,,,,,,,,
quiz_q_4_ask,55,566784,0.0-19.0-1.0,"""event"",""trial"",""time""
""fullscreenenter"",""1"",""261602""
","
","
","""event"",""trial"",""time""
""fullscreenenter"",""1"",""261602""
","
",,3448.6,run_exp/static/audio/clip_20_q4_ask.m4a,,,,,,,0,,,,,,,,,,,,,,,,,,
quiz_q_4_fb_correct,56,572133,0.0-20.0-0.0,"""event"",""trial"",""time""
""fullscreenenter"",""1"",""261602""
","
","
","""event"",""trial"",""time""
""fullscreenenter"",""1"",""261602""
","
",,null,run_exp/static/audio/clip_21_q4_correct.m4a,null,<p> That’s correct. The more you dig on a planet the fewer gems you’ll get with each dig. </p>,,,,,,,,,,,,,,,,,,,,,,,
quiz_q_5_ask,57,574351,0.0-20.0-1.0,"""event"",""trial"",""time""
""fullscreenenter"",""1"",""261602""
","
","
","""event"",""trial"",""time""
""fullscreenenter"",""1"",""261602""
","
",,2215.4,run_exp/static/audio/clip_23_q5_ask.m4a,,,,,,,1,,,,,,,,,,,,,,,,,,
quiz_q_5_fb_correct,58,579372,0.0-21.0-0.0,"""event"",""trial"",""time""
""fullscreenenter"",""1"",""261602""
","
","
","""event"",""trial"",""time""
""fullscreenenter"",""1"",""261602""
","
",,null,run_exp/static/audio/clip_24_q5_correct.m4a,null,<p> That’s correct. The alien tells you nothing about how much treasure is on the planet.</p>,,,,,,,,,,,,,,,,,,,,,,,
quiz_correct,59,582852,0.0-22.0-0.0,"""event"",""trial"",""time""
""fullscreenenter"",""1"",""261602""
","
","
","""event"",""trial"",""time""
""fullscreenenter"",""1"",""261602""
","
",,null,run_exp/static/audio/clip_26_correct_quiz.m4a,null,,,,,,,,,,,,,,,,,,,,,,,,
quiz_correct_continue,60,585312,0.0-22.0-1.0,"""event"",""trial"",""time""
""fullscreenenter"",""1"",""261602""
","
","
","""event"",""trial"",""time""
""fullscreenenter"",""1"",""261602""
","
",,2457.4,<p>Good job! You're now ready to move on to the real game!</p>,,,,,,,0,,,,,,,,,,,,,,,,,,
audio-keyboard-response,61,595452,0.0-22.0-2.0,"""event"",""trial"",""time""
""fullscreenenter"",""1"",""261602""
","
","
","""event"",""trial"",""time""
""fullscreenenter"",""1"",""261602""
","
",,null,run_exp/static/audio/clip_28_real_game.m4a,null,,,,,,,,,,,,,,,,,,,,,,,,
instruc_begin_exp_contine,62,596450,0.0-22.0-3.0,"""event"",""trial"",""time""
""fullscreenenter"",""1"",""261602""
","
","
","""event"",""trial"",""time""
""fullscreenenter"",""1"",""261602""
","
",,995.4,"<p>Now that you know how  to dig for space treasure and travel to new planets,you can start exploring! </p><p>Do you want to go over the instructions again or get started with the real game?</p>",,,,,,,1,,,,,,1,,,,,,,,,,,,
alien_welcome,63,601455,0.0-23.0-0.0,"""event"",""trial"",""time""
""fullscreenenter"",""1"",""261602""
","
","
","""event"",""trial"",""time""
""fullscreenenter"",""1"",""261602""
","
",,null,run_exp/static/images/task_images/aliens/old_aliens/planet/alien_planet-57.jpg,null,,,,,,,,,,,,,57,"57,3,44,9,32,80,63,1,53,21,45,22,19,36,10,67,6,18,59,73,37,58,4,13,16,61,2,65,33,75,60,12,15,38,46,40,74,50,8,31",,,,,,,,,,
land,64,601958,0.0-23.0-1.0,"""event"",""trial"",""time""
""fullscreenenter"",""1"",""261602""
","
","
","""event"",""trial"",""time""
""fullscreenenter"",""1"",""261602""
","
",,null,run_exp/static/images/task_images/land.jpg,null,,,,,,,91,,,1,,,,,,,,,,,,,,
dig,65,603962,0.0-23.0-2.0,"""event"",""trial"",""time""
""fullscreenenter"",""1"",""261602""
","
","
","""event"",""trial"",""time""
""fullscreenenter"",""1"",""261602""
","
",,,,,,,,,,,,"[{""stimulus"":""run_exp/static/images/task_images/dig.jpg"",""time"":0.30000000447034836},{""stimulus"":""run_exp/static/images/task_images/land.jpg"",""time"":668.9000000059605},{""stimulus"":""run_exp/static/images/task_images/dig.jpg"",""time"":1336.6000000014901}]",[],1,,,,,,,,,,,,,,
harvest,66,604964,0.0-23.0-3.0,"""event"",""trial"",""time""
""fullscreenenter"",""1"",""261602""
","
","
","""event"",""trial"",""time""
""fullscreenenter"",""1"",""261602""
","
",,null,run_exp/static/images/task_images/gems/91.jpg,null,,,,,,,21,,,1,,,,,91,0.231355828,0.230769231,,,,,,,
decision,67,605383,0.0-23.0-4.0,"""event"",""trial"",""time""
""fullscreenenter"",""1"",""261602""
","
","
","""event"",""trial"",""time""
""fullscreenenter"",""1"",""261602""
","
",,416.8,run_exp/static/images/task_images/land.jpg,65,,,,,,,21,,,1,,,,,,,,8932,1,0,FALSE,,,
dig,68,607971,0.0-24.0-0.0,"""event"",""trial"",""time""
""fullscreenenter"",""1"",""261602""
","
","
","""event"",""trial"",""time""
""fullscreenenter"",""1"",""261602""
","
",,,,,,,,,,,,"[{""stimulus"":""run_exp/static/images/task_images/dig.jpg"",""time"":0.29999999701976776},{""stimulus"":""run_exp/static/images/task_images/land.jpg"",""time"":863.5999999940395},{""stimulus"":""run_exp/static/images/task_images/dig.jpg"",""time"":1724}]",[],1,,,,,,,,,,,,,,
harvest,69,608975,0.0-24.0-1.0,"""event"",""trial"",""time""
""fullscreenenter"",""1"",""261602""
","
","
","""event"",""trial"",""time""
""fullscreenenter"",""1"",""261602""
","
",,null,run_exp/static/images/task_images/gems/21.jpg,null,,,,,,,6,,,1,,,,,21,0.305615069,0.285714286,,,,,,,
decision,70,611977,0.0-24.0-2.0,"""event"",""trial"",""time""
""fullscreenenter"",""1"",""261602""
","
","
","""event"",""trial"",""time""
""fullscreenenter"",""1"",""261602""
","
",,null,run_exp/static/images/task_images/land.jpg,null,,,,,,,6,,,1,,,,,,,,15525,1,1,FALSE,,,
time_out,71,613982,0.0-25.0-0.0,"""event"",""trial"",""time""
""fullscreenenter"",""1"",""261602""
","
","
","""event"",""trial"",""time""
""fullscreenenter"",""1"",""261602""
","
",,null,run_exp/static/images/task_images/time_out.jpg,null,,,,,,,6,,,,,,,,,,,,,,,,,
decision,72,615180,0.0-25.0-1.0,"""event"",""trial"",""time""
""fullscreenenter"",""1"",""261602""
","
","
","""event"",""trial"",""time""
""fullscreenenter"",""1"",""261602""
","
",,1196.5,run_exp/static/images/task_images/land.jpg,76,,,,,,,6,,,1,,,,,,,,18728,1,1,TRUE,,,
travel,73,623987,0.0-26.0-0.0,"""event"",""trial"",""time""
""fullscreenenter"",""1"",""261602""
","
","
","""event"",""trial"",""time""
""fullscreenenter"",""1"",""261602""
","
",,,,,,,,,,,,"[{""stimulus"":""run_exp/static/images/task_images/rocket-01.jpg"",""time"":0.19999999552965164},{""stimulus"":""run_exp/static/images/task_images/rocket-02.jpg"",""time"":980.1000000014901},{""stimulus"":""run_exp/static/images/task_images/rocket-03.jpg"",""time"":1957.5},{""stimulus"":""run_exp/static/images/task_images/rocket-04.jpg"",""time"":2935.7999999970198},{""stimulus"":""run_exp/static/images/task_images/rocket-05.jpg"",""time"":3913.10000000149},{""stimulus"":""run_exp/static/images/task_images/rocket-06.jpg"",""time"":4891.39999999851},{""stimulus"":""run_exp/static/images/task_images/rocket-07.jpg"",""time"":5870},{""stimulus"":""run_exp/static/images/task_images/rocket-08.jpg"",""time"":6847.69999999553},{""stimulus"":""run_exp/static/images/task_images/rocket-09.jpg"",""time"":7826.19999999553}]",[],1,,,,,,,,,,,,,,
alien_welcome,74,628991,0.0-26.0-1.0,"""event"",""trial"",""time""
""fullscreenenter"",""1"",""261602""
","
","
","""event"",""trial"",""time""
""fullscreenenter"",""1"",""261602""
","
",,null,run_exp/static/images/task_images/aliens/old_aliens/planet/alien_planet-3.jpg,null,,,,,,,,,,,,,3,"57,3,44,9,32,80,63,1,53,21,45,22,19,36,10,67,6,18,59,73,37,58,4,13,16,61,2,65,33,75,60,12,15,38,46,40,74,50,8,31",,,,,,,,,,
land,75,629493,0.0-26.0-2.0,"""event"",""trial"",""time""
""fullscreenenter"",""1"",""261602""
","
","
","""event"",""trial"",""time""
""fullscreenenter"",""1"",""261602""
","
",,null,run_exp/static/images/task_images/land.jpg,null,,,,,,,100,,,2,,,,,,,,,,,,,,
dig,76,631497,0.0-26.0-3.0,"""event"",""trial"",""time""
""fullscreenenter"",""1"",""261602""
","
","
","""event"",""trial"",""time""
""fullscreenenter"",""1"",""261602""
","
",,,,,,,,,,,,"[{""stimulus"":""run_exp/static/images/task_images/dig.jpg"",""time"":0.3999999985098839},{""stimulus"":""run_exp/static/images/task_images/land.jpg"",""time"":669.1000000014901},{""stimulus"":""run_exp/static/images/task_images/dig.jpg"",""time"":1336.6000000014901}]",[],2,,,,,,,,,,,,,,
harvest,77,632500,0.0-26.0-4.0,"""event"",""trial"",""time""
""fullscreenenter"",""1"",""261602""
","
","
","""event"",""trial"",""time""
""fullscreenenter"",""1"",""261602""
","
",,null,run_exp/static/images/task_images/gems/100.jpg,null,,,,,,,18,,,2,,,,,100,0.179186212,0.18,,,,,,,
decision,78,633439,0.0-26.0-5.0,"""event"",""trial"",""time""
""fullscreenenter"",""1"",""261602""
","
","
","""event"",""trial"",""time""
""fullscreenenter"",""1"",""261602""
","
",,937,run_exp/static/images/task_images/land.jpg,65,,,,,,,18,,,2,,,,,,,,36987,1,0,FALSE,,,
dig,79,635505,0.0-27.0-0.0,"""event"",""trial"",""time""
""fullscreenenter"",""1"",""261602""
","
","
","""event"",""trial"",""time""
""fullscreenenter"",""1"",""261602""
","
",,,,,,,,,,,,"[{""stimulus"":""run_exp/static/images/task_images/dig.jpg"",""time"":0.29999999701976776},{""stimulus"":""run_exp/static/images/task_images/land.jpg"",""time"":689},{""stimulus"":""run_exp/static/images/task_images/dig.jpg"",""time"":1376}]",[],2,,,,,,,,,,,,,,
harvest,80,636507,0.0-27.0-1.0,"""event"",""trial"",""time""
""fullscreenenter"",""1"",""261602""
","
","
","""event"",""trial"",""time""
""fullscreenenter"",""1"",""261602""
","
",,null,run_exp/static/images/task_images/gems/18.jpg,null,,,,,,,4,,,2,,,,,18,0.22061898,0.222222222,,,,,,,
decision,81,638152,0.0-27.0-2.0,"""event"",""trial"",""time""
""fullscreenenter"",""1"",""261602""
","
","
","""event"",""trial"",""time""
""fullscreenenter"",""1"",""261602""
","
",,1643,run_exp/static/images/task_images/land.jpg,76,,,,,,,4,,,2,,,,,,,,41700,1,1,TRUE,,,
travel,82,646511,0.0-28.0-0.0,"""event"",""trial"",""time""
""fullscreenenter"",""1"",""261602""
","
","
","""event"",""trial"",""time""
""fullscreenenter"",""1"",""261602""
","
",,,,,,,,,,,,"[{""stimulus"":""run_exp/static/images/task_images/rocket-01.jpg"",""time"":0.3999999985098839},{""stimulus"":""run_exp/static/images/task_images/rocket-02.jpg"",""time"":930},{""stimulus"":""run_exp/static/images/task_images/rocket-03.jpg"",""time"":1857.8999999985099},{""stimulus"":""run_exp/static/images/task_images/rocket-04.jpg"",""time"":2785.89999999851},{""stimulus"":""run_exp/static/images/task_images/rocket-05.jpg"",""time"":3714.89999999851},{""stimulus"":""run_exp/static/images/task_images/rocket-06.jpg"",""time"":4642.89999999851},{""stimulus"":""run_exp/static/images/task_images/rocket-07.jpg"",""time"":5569.60000000149},{""stimulus"":""run_exp/static/images/task_images/rocket-08.jpg"",""time"":6498.89999999851},{""stimulus"":""run_exp/static/images/task_images/rocket-09.jpg"",""time"":7426}]",[],2,,,,,,,,,,,,,,
alien_welcome,83,651514,0.0-28.0-1.0,"""event"",""trial"",""time""
""fullscreenenter"",""1"",""261602""
","
","
","""event"",""trial"",""time""
""fullscreenenter"",""1"",""261602""
","
",,null,run_exp/static/images/task_images/aliens/old_aliens/planet/alien_planet-44.jpg,null,,,,,,,,,,,,,44,"57,3,44,9,32,80,63,1,53,21,45,22,19,36,10,67,6,18,59,73,37,58,4,13,16,61,2,65,33,75,60,12,15,38,46,40,74,50,8,31",,,,,,,,,,
land,84,652017,0.0-28.0-2.0,"""event"",""trial"",""time""
""fullscreenenter"",""1"",""261602""
","
","
","""event"",""trial"",""time""
""fullscreenenter"",""1"",""261602""
","
",,null,run_exp/static/images/task_images/land.jpg,null,,,,,,,97,,,3,,,,,,,,,,,,,,
dig,85,654023,0.0-28.0-3.0,"""event"",""trial"",""time""
""fullscreenenter"",""1"",""261602""
","
","
","""event"",""trial"",""time""
""fullscreenenter"",""1"",""261602""
","
",,,,,,,,,,,,"[{""stimulus"":""run_exp/static/images/task_images/dig.jpg"",""time"":0.3999999985098839},{""stimulus"":""run_exp/static/images/task_images/land.jpg"",""time"":669.3000000044703},{""stimulus"":""run_exp/static/images/task_images/dig.jpg"",""time"":1336.1000000014901}]",[],3,,,,,,,,,,,,,,
harvest,86,655026,0.0-28.0-4.0,"""event"",""trial"",""time""
""fullscreenenter"",""1"",""261602""
","
","
","""event"",""trial"",""time""
""fullscreenenter"",""1"",""261602""
","
",,null,run_exp/static/images/task_images/gems/97.jpg,null,,,,,,,45,,,3,,,,,97,0.46219391,0.463917526,,,,,,,
decision,87,655463,0.0-28.0-5.0,"""event"",""trial"",""time""
""fullscreenenter"",""1"",""261602""
","
","
","""event"",""trial"",""time""
""fullscreenenter"",""1"",""261602""
","
",,435.8,run_exp/static/images/task_images/land.jpg,65,,,,,,,45,,,3,,,,,,,,59011,1,0,FALSE,,,
dig,88,658030,0.0-29.0-0.0,"""event"",""trial"",""time""
""fullscreenenter"",""1"",""261602""
","
","
","""event"",""trial"",""time""
""fullscreenenter"",""1"",""261602""
","
",,,,,,,,,,,,"[{""stimulus"":""run_exp/static/images/task_images/dig.jpg"",""time"":0.29999999701976776},{""stimulus"":""run_exp/static/images/task_images/land.jpg"",""time"":856.2999999970198},{""stimulus"":""run_exp/static/images/task_images/dig.jpg"",""time"":1709.3999999985099}]",[],3,,,,,,,,,,,,,,
harvest,89,659033,0.0-29.0-1.0,"""event"",""trial"",""time""
""fullscreenenter"",""1"",""261602""
","
","
","""event"",""trial"",""time""
""fullscreenenter"",""1"",""261602""
","
",,null,run_exp/static/images/task_images/gems/45.jpg,null,,,,,,,22,,,3,,,,,45,0.478141958,0.488888889,,,,,,,
decision,90,659128,0.0-29.0-2.0,"""event"",""trial"",""time""
""fullscreenenter"",""1"",""261602""
","
","
","""event"",""trial"",""time""
""fullscreenenter"",""1"",""261602""
","
",,92.5,run_exp/static/images/task_images/land.jpg,65,,,,,,,22,,,3,,,,,,,,62676,1,1,FALSE,,,
dig,91,662040,0.0-30.0-0.0,"""event"",""trial"",""time""
""fullscreenenter"",""1"",""261602""
","
","
","""event"",""trial"",""time""
""fullscreenenter"",""1"",""261602""
","
",,,,,,,,,,,,"[{""stimulus"":""run_exp/static/images/task_images/dig.jpg"",""time"":0.20000000298023224},{""stimulus"":""run_exp/static/images/task_images/land.jpg"",""time"":971.2999999970198},{""stimulus"":""run_exp/static/images/task_images/dig.jpg"",""time"":1939.8999999985099}]",[],3,,,,,,,,,,,,,,
harvest,92,663043,0.0-30.0-1.0,"""event"",""trial"",""time""
""fullscreenenter"",""1"",""261602""
","
","
","""event"",""trial"",""time""
""fullscreenenter"",""1"",""261602""
","
",,null,run_exp/static/images/task_images/gems/22.jpg,null,,,,,,,12,,,3,,,,,22,0.557583377,0.545454545,,,,,,,
decision,93,663425,0.0-30.0-2.0,"""event"",""trial"",""time""
""fullscreenenter"",""1"",""261602""
","
","
","""event"",""trial"",""time""
""fullscreenenter"",""1"",""261602""
","
",,381,run_exp/static/images/task_images/land.jpg,65,,,,,,,12,,,3,,,,,,,,66974,1,2,FALSE,,,
dig,94,666049,0.0-31.0-0.0,"""event"",""trial"",""time""
""fullscreenenter"",""1"",""261602""
","
","
","""event"",""trial"",""time""
""fullscreenenter"",""1"",""261602""
","
",,,,,,,,,,,,"[{""stimulus"":""run_exp/static/images/task_images/dig.jpg"",""time"":0.19999999552965164},{""stimulus"":""run_exp/static/images/task_images/land.jpg"",""time"":874.2999999970198},{""stimulus"":""run_exp/static/images/task_images/dig.jpg"",""time"":1746.7999999970198}]",[],3,,,,,,,,,,,,,,
harvest,95,667052,0.0-31.0-1.0,"""event"",""trial"",""time""
""fullscreenenter"",""1"",""261602""
","
","
","""event"",""trial"",""time""
""fullscreenenter"",""1"",""261602""
","
",,null,run_exp/static/images/task_images/gems/12.jpg,null,,,,,,,6,,,3,,,,,12,0.475515535,0.5,,,,,,,
decision,96,667782,0.0-31.0-2.0,"""event"",""trial"",""time""
""fullscreenenter"",""1"",""261602""
","
","
","""event"",""trial"",""time""
""fullscreenenter"",""1"",""261602""
","
",,727.5,run_exp/static/images/task_images/land.jpg,76,,,,,,,6,,,3,,,,,,,,71330,1,3,TRUE,,,
travel,97,677058,0.0-32.0-0.0,"""event"",""trial"",""time""
""fullscreenenter"",""1"",""261602""
","
","
","""event"",""trial"",""time""
""fullscreenenter"",""1"",""261602""
","
",,,,,,,,,,,,"[{""stimulus"":""run_exp/static/images/task_images/rocket-01.jpg"",""time"":0.3999999985098839},{""stimulus"":""run_exp/static/images/task_images/rocket-02.jpg"",""time"":1031.7999999970198},{""stimulus"":""run_exp/static/images/task_images/rocket-03.jpg"",""time"":2062.60000000149},{""stimulus"":""run_exp/static/images/task_images/rocket-04.jpg"",""time"":3092.39999999851},{""stimulus"":""run_exp/static/images/task_images/rocket-05.jpg"",""time"":4121.79999999702},{""stimulus"":""run_exp/static/images/task_images/rocket-06.jpg"",""time"":5151.79999999702},{""stimulus"":""run_exp/static/images/task_images/rocket-07.jpg"",""time"":6182.60000000149},{""stimulus"":""run_exp/static/images/task_images/rocket-08.jpg"",""time"":7211.79999999702},{""stimulus"":""run_exp/static/images/task_images/rocket-09.jpg"",""time"":8243}]",[],3,,,,,,,,,,,,,,
alien_welcome,98,682061,0.0-32.0-1.0,"""event"",""trial"",""time""
""fullscreenenter"",""1"",""261602""
","
","
","""event"",""trial"",""time""
""fullscreenenter"",""1"",""261602""
","
",,null,run_exp/static/images/task_images/aliens/old_aliens/planet/alien_planet-9.jpg,null,,,,,,,,,,,,,9,"57,3,44,9,32,80,63,1,53,21,45,22,19,36,10,67,6,18,59,73,37,58,4,13,16,61,2,65,33,75,60,12,15,38,46,40,74,50,8,31",,,,,,,,,,
land,99,682564,0.0-32.0-2.0,"""event"",""trial"",""time""
""fullscreenenter"",""1"",""261602""
","
","
","""event"",""trial"",""time""
""fullscreenenter"",""1"",""261602""
","
",,null,run_exp/static/images/task_images/land.jpg,null,,,,,,,102,,,4,,,,,,,,,,,,,,
dig,100,684569,0.0-32.0-3.0,"""event"",""trial"",""time""
""fullscreenenter"",""1"",""261602""
","
","
","""event"",""trial"",""time""
""fullscreenenter"",""1"",""261602""
","
",,,,,,,,,,,,"[{""stimulus"":""run_exp/static/images/task_images/dig.jpg"",""time"":0.5},{""stimulus"":""run_exp/static/images/task_images/land.jpg"",""time"":670},{""stimulus"":""run_exp/static/images/task_images/dig.jpg"",""time"":1337.3999999985099}]",[],4,,,,,,,,,,,,,,
harvest,101,685572,0.0-32.0-4.0,"""event"",""trial"",""time""
""fullscreenenter"",""1"",""261602""
","
","
","""event"",""trial"",""time""
""fullscreenenter"",""1"",""261602""
","
",,null,run_exp/static/images/task_images/gems/102.jpg,null,,,,,,,54,,,4,,,,,102,0.52749573,0.529411765,,,,,,,
decision,102,686224,0.0-32.0-5.0,"""event"",""trial"",""time""
""fullscreenenter"",""1"",""261602""
","
","
","""event"",""trial"",""time""
""fullscreenenter"",""1"",""261602""
","
",,649.7,run_exp/static/images/task_images/land.jpg,65,,,,,,,54,,,4,,,,,,,,89772,1,0,FALSE,,,
dig,103,688579,0.0-33.0-0.0,"""event"",""trial"",""time""
""fullscreenenter"",""1"",""261602""
","
","
","""event"",""trial"",""time""
""fullscreenenter"",""1"",""261602""
","
",,,,,,,,,,,,"[{""stimulus"":""run_exp/static/images/task_images/dig.jpg"",""time"":0.29999999701976776},{""stimulus"":""run_exp/static/images/task_images/land.jpg"",""time"":785.1999999955297},{""stimulus"":""run_exp/static/images/task_images/dig.jpg"",""time"":1568.3999999985099}]",[],4,,,,,,,,,,,,,,
harvest,104,689581,0.0-33.0-1.0,"""event"",""trial"",""time""
""fullscreenenter"",""1"",""261602""
","
","
","""event"",""trial"",""time""
""fullscreenenter"",""1"",""261602""
","
",,null,run_exp/static/images/task_images/gems/54.jpg,null,,,,,,,30,,,4,,,,,54,0.557690225,0.555555556,,,,,,,
decision,105,690226,0.0-33.0-2.0,"""event"",""trial"",""time""
""fullscreenenter"",""1"",""261602""
","
","
","""event"",""trial"",""time""
""fullscreenenter"",""1"",""261602""
","
",,643.3,run_exp/static/images/task_images/land.jpg,65,,,,,,,30,,,4,,,,,,,,93774,1,1,FALSE,,,
dig,106,692586,0.0-34.0-0.0,"""event"",""trial"",""time""
""fullscreenenter"",""1"",""261602""
","
","
","""event"",""trial"",""time""
""fullscreenenter"",""1"",""261602""
","
",,,,,,,,,,,,"[{""stimulus"":""run_exp/static/images/task_images/dig.jpg"",""time"":0.29999999701976776},{""stimulus"":""run_exp/static/images/task_images/land.jpg"",""time"":787.2999999970198},{""stimulus"":""run_exp/static/images/task_images/dig.jpg"",""time"":1572.3999999985099}]",[],4,,,,,,,,,,,,,,
harvest,107,693588,0.0-34.0-1.0,"""event"",""trial"",""time""
""fullscreenenter"",""1"",""261602""
","
","
","""event"",""trial"",""time""
""fullscreenenter"",""1"",""261602""
","
",,null,run_exp/static/images/task_images/gems/30.jpg,null,,,,,,,13,,,4,,,,,30,0.440425642,0.433333333,,,,,,,
decision,108,694073,0.0-34.0-2.0,"""event"",""trial"",""time""
""fullscreenenter"",""1"",""261602""
","
","
","""event"",""trial"",""time""
""fullscreenenter"",""1"",""261602""
","
",,483,run_exp/static/images/task_images/land.jpg,76,,,,,,,13,,,4,,,,,,,,97621,1,2,TRUE,,,
travel,109,703592,0.0-35.0-0.0,"""event"",""trial"",""time""
""fullscreenenter"",""1"",""261602""
","
","
","""event"",""trial"",""time""
""fullscreenenter"",""1"",""261602""
","
",,,,,,,,,,,,"[{""stimulus"":""run_exp/static/images/task_images/rocket-01.jpg"",""time"":0.19999999552965164},{""stimulus"":""run_exp/static/images/task_images/rocket-02.jpg"",""time"":1059.6999999955297},{""stimulus"":""run_exp/static/images/task_images/rocket-03.jpg"",""time"":2115.39999999851},{""stimulus"":""run_exp/static/images/task_images/rocket-04.jpg"",""time"":3173.2999999970198},{""stimulus"":""run_exp/static/images/task_images/rocket-05.jpg"",""time"":4230.60000000149},{""stimulus"":""run_exp/static/images/task_images/rocket-06.jpg"",""time"":5287.10000000149},{""stimulus"":""run_exp/static/images/task_images/rocket-07.jpg"",""time"":6343.29999999702},{""stimulus"":""run_exp/static/images/task_images/rocket-08.jpg"",""time"":7400.60000000149},{""stimulus"":""run_exp/static/images/task_images/rocket-09.jpg"",""time"":8458.10000000149}]",[],4,,,,,,,,,,,,,,
alien_welcome,110,708595,0.0-35.0-1.0,"""event"",""trial"",""time""
""fullscreenenter"",""1"",""261602""
","
","
","""event"",""trial"",""time""
""fullscreenenter"",""1"",""261602""
","
",,null,run_exp/static/images/task_images/aliens/old_aliens/planet/alien_planet-32.jpg,null,,,,,,,,,,,,,32,"57,3,44,9,32,80,63,1,53,21,45,22,19,36,10,67,6,18,59,73,37,58,4,13,16,61,2,65,33,75,60,12,15,38,46,40,74,50,8,31",,,,,,,,,,
land,111,709098,0.0-35.0-2.0,"""event"",""trial"",""time""
""fullscreenenter"",""1"",""261602""
","
","
","""event"",""trial"",""time""
""fullscreenenter"",""1"",""261602""
","
",,null,run_exp/static/images/task_images/land.jpg,null,,,,,,,99,,,5,,,,,,,,,,,,,,
dig,112,711102,0.0-35.0-3.0,"""event"",""trial"",""time""
""fullscreenenter"",""1"",""261602""
","
","
","""event"",""trial"",""time""
""fullscreenenter"",""1"",""261602""
","
",,,,,,,,,,,,"[{""stimulus"":""run_exp/static/images/task_images/dig.jpg"",""time"":0.29999999701976776},{""stimulus"":""run_exp/static/images/task_images/land.jpg"",""time"":668.8999999985099},{""stimulus"":""run_exp/static/images/task_images/dig.jpg"",""time"":1335.3999999985099}]",[],5,,,,,,,,,,,,,,
harvest,113,712105,0.0-35.0-4.0,"""event"",""trial"",""time""
""fullscreenenter"",""1"",""261602""
","
","
","""event"",""trial"",""time""
""fullscreenenter"",""1"",""261602""
","
",,null,run_exp/static/images/task_images/gems/99.jpg,null,,,,,,,59,,,5,,,,,99,0.595126204,0.595959596,,,,,,,
decision,114,712912,0.0-35.0-5.0,"""event"",""trial"",""time""
""fullscreenenter"",""1"",""261602""
","
","
","""event"",""trial"",""time""
""fullscreenenter"",""1"",""261602""
","
",,804.8,run_exp/static/images/task_images/land.jpg,65,,,,,,,59,,,5,,,,,,,,116460,1,0,FALSE,,,
dig,115,715111,0.0-36.0-0.0,"""event"",""trial"",""time""
""fullscreenenter"",""1"",""261602""
","
","
","""event"",""trial"",""time""
""fullscreenenter"",""1"",""261602""
","
",,,,,,,,,,,,"[{""stimulus"":""run_exp/static/images/task_images/dig.jpg"",""time"":0.29999999701976776},{""stimulus"":""run_exp/static/images/task_images/land.jpg"",""time"":733.2999999970198},{""stimulus"":""run_exp/static/images/task_images/dig.jpg"",""time"":1464.6000000014901}]",[],5,,,,,,,,,,,,,,
harvest,116,716113,0.0-36.0-1.0,"""event"",""trial"",""time""
""fullscreenenter"",""1"",""261602""
","
","
","""event"",""trial"",""time""
""fullscreenenter"",""1"",""261602""
","
",,null,run_exp/static/images/task_images/gems/59.jpg,null,,,,,,,24,,,5,,,,,59,0.408520261,0.406779661,,,,,,,
decision,117,717133,0.0-36.0-2.0,"""event"",""trial"",""time""
""fullscreenenter"",""1"",""261602""
","
","
","""event"",""trial"",""time""
""fullscreenenter"",""1"",""261602""
","
",,1017.7,run_exp/static/images/task_images/land.jpg,65,,,,,,,24,,,5,,,,,,,,120681,1,1,FALSE,,,
dig,118,719118,0.0-37.0-0.0,"""event"",""trial"",""time""
""fullscreenenter"",""1"",""261602""
","
","
","""event"",""trial"",""time""
""fullscreenenter"",""1"",""261602""
","
",,,,,,,,,,,,"[{""stimulus"":""run_exp/static/images/task_images/dig.jpg"",""time"":0.3999999985098839},{""stimulus"":""run_exp/static/images/task_images/land.jpg"",""time"":663.1000000014901},{""stimulus"":""run_exp/static/images/task_images/dig.jpg"",""time"":1322.1999999955297}]",[],5,,,,,,,,,,,,,,
harvest,119,720122,0.0-37.0-1.0,"""event"",""trial"",""time""
""fullscreenenter"",""1"",""261602""
","
","
","""event"",""trial"",""time""
""fullscreenenter"",""1"",""261602""
","
",,null,run_exp/static/images/task_images/gems/24.jpg,null,,,,,,,11,,,5,,,,,24,0.472942554,0.458333333,,,,,,,
decision,120,723098,0.0-37.0-2.0,"""event"",""trial"",""time""
""fullscreenenter"",""1"",""261602""
","
","
","""event"",""trial"",""time""
""fullscreenenter"",""1"",""261602""
","
",,2974.9,run_exp/static/images/task_images/land.jpg,65,,,,,,,11,,,5,,,,,,,,126647,1,2,FALSE,,,
dig,121,723128,0.0-38.0-0.0,"""event"",""trial"",""time""
""fullscreenenter"",""1"",""261602""
","
","
","""event"",""trial"",""time""
""fullscreenenter"",""1"",""261602""
","
",,,,,,,,,,,,"[{""stimulus"":""run_exp/static/images/task_images/dig.jpg"",""time"":0.29999999701976776},{""stimulus"":""run_exp/static/images/task_images/land.jpg"",""time"":9.599999994039536},{""stimulus"":""run_exp/static/images/task_images/dig.jpg"",""time"":17.399999998509884}]",[],5,,,,,,,,,,,,,,
harvest,122,724131,0.0-38.0-1.0,"""event"",""trial"",""time""
""fullscreenenter"",""1"",""261602""
","
","
","""event"",""trial"",""time""
""fullscreenenter"",""1"",""261602""
","
",,null,run_exp/static/images/task_images/gems/11.jpg,null,,,,,,,6,,,5,,,,,11,0.57562327,0.545454545,,,,,,,
decision,123,724175,0.0-38.0-2.0,"""event"",""trial"",""time""
""fullscreenenter"",""1"",""261602""
","
","
","""event"",""trial"",""time""
""fullscreenenter"",""1"",""261602""
","
",,41.8,run_exp/static/images/task_images/land.jpg,76,,,,,,,6,,,5,,,,,,,,127724,1,3,TRUE,,,
travel,124,734135,0.0-39.0-0.0,"""event"",""trial"",""time""
""fullscreenenter"",""1"",""261602""
","
","
","""event"",""trial"",""time""
""fullscreenenter"",""1"",""261602""
","
",,,,,,,,,,,,"[{""stimulus"":""run_exp/static/images/task_images/rocket-01.jpg"",""time"":0.29999999701976776},{""stimulus"":""run_exp/static/images/task_images/rocket-02.jpg"",""time"":1107.3999999985099},{""stimulus"":""run_exp/static/images/task_images/rocket-03.jpg"",""time"":2214.1999999955297},{""stimulus"":""run_exp/static/images/task_images/rocket-04.jpg"",""time"":3321.39999999851},{""stimulus"":""run_exp/static/images/task_images/rocket-05.jpg"",""time"":4425.39999999851},{""stimulus"":""run_exp/static/images/task_images/rocket-06.jpg"",""time"":5532.39999999851},{""stimulus"":""run_exp/static/images/task_images/rocket-07.jpg"",""time"":6637.89999999851},{""stimulus"":""run_exp/static/images/task_images/rocket-08.jpg"",""time"":7744.19999999553},{""stimulus"":""run_exp/static/images/task_images/rocket-09.jpg"",""time"":8849.89999999851}]",[],5,,,,,,,,,,,,,,
alien_welcome,125,739138,0.0-39.0-1.0,"""event"",""trial"",""time""
""fullscreenenter"",""1"",""261602""
","
","
","""event"",""trial"",""time""
""fullscreenenter"",""1"",""261602""
","
",,null,run_exp/static/images/task_images/aliens/old_aliens/planet/alien_planet-80.jpg,null,,,,,,,,,,,,,80,"57,3,44,9,32,80,63,1,53,21,45,22,19,36,10,67,6,18,59,73,37,58,4,13,16,61,2,65,33,75,60,12,15,38,46,40,74,50,8,31",,,,,,,,,,
land,126,739641,0.0-39.0-2.0,"""event"",""trial"",""time""
""fullscreenenter"",""1"",""261602""
","
","
","""event"",""trial"",""time""
""fullscreenenter"",""1"",""261602""
","
",,null,run_exp/static/images/task_images/land.jpg,null,,,,,,,102,,,6,,,,,,,,,,,,,,
dig,127,741646,0.0-39.0-3.0,"""event"",""trial"",""time""
""fullscreenenter"",""1"",""261602""
","
","
","""event"",""trial"",""time""
""fullscreenenter"",""1"",""261602""
","
",,,,,,,,,,,,"[{""stimulus"":""run_exp/static/images/task_images/dig.jpg"",""time"":0.29999999701976776},{""stimulus"":""run_exp/static/images/task_images/land.jpg"",""time"":669.0999999940395},{""stimulus"":""run_exp/static/images/task_images/dig.jpg"",""time"":1337.3999999985099}]",[],6,,,,,,,,,,,,,,
harvest,128,742648,0.0-39.0-4.0,"""event"",""trial"",""time""
""fullscreenenter"",""1"",""261602""
","
","
","""event"",""trial"",""time""
""fullscreenenter"",""1"",""261602""
","
",,null,run_exp/static/images/task_images/gems/102.jpg,null,,,,,,,83,,,6,,,,,102,0.810373736,0.81372549,,,,,,,
decision,129,743088,0.0-39.0-5.0,"""event"",""trial"",""time""
""fullscreenenter"",""1"",""261602""
","
","
","""event"",""trial"",""time""
""fullscreenenter"",""1"",""261602""
","
",,438,run_exp/static/images/task_images/land.jpg,65,,,,,,,83,,,6,,,,,,,,146636,1,0,FALSE,,,
dig,130,745657,0.0-40.0-0.0,"""event"",""trial"",""time""
""fullscreenenter"",""1"",""261602""
","
","
","""event"",""trial"",""time""
""fullscreenenter"",""1"",""261602""
","
",,,,,,,,,,,,"[{""stimulus"":""run_exp/static/images/task_images/dig.jpg"",""time"":0.4000000059604645},{""stimulus"":""run_exp/static/images/task_images/land.jpg"",""time"":856.1000000014901},{""stimulus"":""run_exp/static/images/task_images/dig.jpg"",""time"":1710.7000000029802}]",[],6,,,,,,,,,,,,,,
harvest,131,746659,0.0-40.0-1.0,"""event"",""trial"",""time""
""fullscreenenter"",""1"",""261602""
","
","
","""event"",""trial"",""time""
""fullscreenenter"",""1"",""261602""
","
",,null,run_exp/static/images/task_images/gems/83.jpg,null,,,,,,,66,,,6,,,,,83,0.789738274,0.795180723,,,,,,,
decision,132,747522,0.0-40.0-2.0,"""event"",""trial"",""time""
""fullscreenenter"",""1"",""261602""
","
","
","""event"",""trial"",""time""
""fullscreenenter"",""1"",""261602""
","
",,860.9,run_exp/static/images/task_images/land.jpg,65,,,,,,,66,,,6,,,,,,,,151071,1,1,FALSE,,,
dig,133,749668,0.0-41.0-0.0,"""event"",""trial"",""time""
""fullscreenenter"",""1"",""261602""
","
","
","""event"",""trial"",""time""
""fullscreenenter"",""1"",""261602""
","
",,,,,,,,,,,,"[{""stimulus"":""run_exp/static/images/task_images/dig.jpg"",""time"":0.30000000447034836},{""stimulus"":""run_exp/static/images/task_images/land.jpg"",""time"":715.8000000044703},{""stimulus"":""run_exp/static/images/task_images/dig.jpg"",""time"":1428.7000000029802}]",[],6,,,,,,,,,,,,,,
harvest,134,750671,0.0-41.0-1.0,"""event"",""trial"",""time""
""fullscreenenter"",""1"",""261602""
","
","
","""event"",""trial"",""time""
""fullscreenenter"",""1"",""261602""
","
",,null,run_exp/static/images/task_images/gems/66.jpg,null,,,,,,,55,,,6,,,,,66,0.840276979,0.833333333,,,,,,,
decision,135,751208,0.0-41.0-2.0,"""event"",""trial"",""time""
""fullscreenenter"",""1"",""261602""
","
","
","""event"",""trial"",""time""
""fullscreenenter"",""1"",""261602""
","
",,534.8,run_exp/static/images/task_images/land.jpg,65,,,,,,,55,,,6,,,,,,,,154756,1,2,FALSE,,,
dig,136,753678,0.0-42.0-0.0,"""event"",""trial"",""time""
""fullscreenenter"",""1"",""261602""
","
","
","""event"",""trial"",""time""
""fullscreenenter"",""1"",""261602""
","
",,,,,,,,,,,,"[{""stimulus"":""run_exp/static/images/task_images/dig.jpg"",""time"":0.29999999701976776},{""stimulus"":""run_exp/static/images/task_images/land.jpg"",""time"":823.1000000014901},{""stimulus"":""run_exp/static/images/task_images/dig.jpg"",""time"":1643.8999999985099}]",[],6,,,,,,,,,,,,,,
harvest,137,754681,0.0-42.0-1.0,"""event"",""trial"",""time""
""fullscreenenter"",""1"",""261602""
","
","
","""event"",""trial"",""time""
""fullscreenenter"",""1"",""261602""
","
",,null,run_exp/static/images/task_images/gems/55.jpg,null,,,,,,,40,,,6,,,,,55,0.727442187,0.727272727,,,,,,,
decision,138,757684,0.0-42.0-2.0,"""event"",""trial"",""time""
""fullscreenenter"",""1"",""261602""
","
","
","""event"",""trial"",""time""
""fullscreenenter"",""1"",""261602""
","
",,null,run_exp/static/images/task_images/land.jpg,null,,,,,,,40,,,6,,,,,,,,161232,1,3,FALSE,,,
time_out,139,759688,0.0-43.0-0.0,"""event"",""trial"",""time""
""fullscreenenter"",""1"",""261602""
","
","
","""event"",""trial"",""time""
""fullscreenenter"",""1"",""261602""
","
",,null,run_exp/static/images/task_images/time_out.jpg,null,,,,,,,40,,,,,,,,,,,,,,,,,
decision,140,762690,0.0-43.0-1.0,"""event"",""trial"",""time""
""fullscreenenter"",""1"",""261602""
","
","
","""event"",""trial"",""time""
""fullscreenenter"",""1"",""261602""
","
",,null,run_exp/static/images/task_images/land.jpg,null,,,,,,,40,,,6,,,,,,,,166239,1,3,FALSE,,,
time_out,141,764696,0.0-44.0-0.0,"""event"",""trial"",""time""
""fullscreenenter"",""1"",""261602""
","
","
","""event"",""trial"",""time""
""fullscreenenter"",""1"",""261602""
","
",,null,run_exp/static/images/task_images/time_out.jpg,null,,,,,,,40,,,,,,,,,,,,,,,,,
decision,142,764957,0.0-44.0-1.0,"""event"",""trial"",""time""
""fullscreenenter"",""1"",""261602""
","
","
","""event"",""trial"",""time""
""fullscreenenter"",""1"",""261602""
","
",,259.3,run_exp/static/images/task_images/land.jpg,76,,,,,,,40,,,6,,,,,,,,168505,1,3,TRUE,,,
travel,143,774701,0.0-45.0-0.0,"""event"",""trial"",""time""
""fullscreenenter"",""1"",""261602""
","
","
","""event"",""trial"",""time""
""fullscreenenter"",""1"",""261602""
","
",,,,,,,,,,,,"[{""stimulus"":""run_exp/static/images/task_images/rocket-01.jpg"",""time"":0.20000000298023224},{""stimulus"":""run_exp/static/images/task_images/rocket-02.jpg"",""time"":1084.2000000029802},{""stimulus"":""run_exp/static/images/task_images/rocket-03.jpg"",""time"":2165.2999999970198},{""stimulus"":""run_exp/static/images/task_images/rocket-04.jpg"",""time"":3248.39999999851},{""stimulus"":""run_exp/static/images/task_images/rocket-05.jpg"",""time"":4329.5},{""stimulus"":""run_exp/static/images/task_images/rocket-06.jpg"",""time"":5411.60000000149},{""stimulus"":""run_exp/static/images/task_images/rocket-07.jpg"",""time"":6494.10000000149},{""stimulus"":""run_exp/static/images/task_images/rocket-08.jpg"",""time"":7575.70000000298},{""stimulus"":""run_exp/static/images/task_images/rocket-09.jpg"",""time"":8658.29999999702}]",[],6,,,,,,,,,,,,,,
alien_welcome,144,779704,0.0-45.0-1.0,"""event"",""trial"",""time""
""fullscreenenter"",""1"",""261602""
","
","
","""event"",""trial"",""time""
""fullscreenenter"",""1"",""261602""
","
",,null,run_exp/static/images/task_images/aliens/old_aliens/planet/alien_planet-63.jpg,null,,,,,,,,,,,,,63,"57,3,44,9,32,80,63,1,53,21,45,22,19,36,10,67,6,18,59,73,37,58,4,13,16,61,2,65,33,75,60,12,15,38,46,40,74,50,8,31",,,,,,,,,,
land,145,780207,0.0-45.0-2.0,"""event"",""trial"",""time""
""fullscreenenter"",""1"",""261602""
","
","
","""event"",""trial"",""time""
""fullscreenenter"",""1"",""261602""
","
",,null,run_exp/static/images/task_images/land.jpg,null,,,,,,,99,,,7,,,,,,,,,,,,,,
dig,146,782212,0.0-45.0-3.0,"""event"",""trial"",""time""
""fullscreenenter"",""1"",""261602""
","
","
","""event"",""trial"",""time""
""fullscreenenter"",""1"",""261602""
","
",,,,,,,,,,,,"[{""stimulus"":""run_exp/static/images/task_images/dig.jpg"",""time"":0.29999999701976776},{""stimulus"":""run_exp/static/images/task_images/land.jpg"",""time"":668.6999999955297},{""stimulus"":""run_exp/static/images/task_images/dig.jpg"",""time"":1335.6999999955297}]",[],7,,,,,,,,,,,,,,
harvest,147,783215,0.0-45.0-4.0,"""event"",""trial"",""time""
""fullscreenenter"",""1"",""261602""
","
","
","""event"",""trial"",""time""
""fullscreenenter"",""1"",""261602""
","
",,null,run_exp/static/images/task_images/gems/99.jpg,null,,,,,,,79,,,7,,,,,99,0.79914702,0.797979798,,,,,,,
decision,148,785107,0.0-45.0-5.0,"""event"",""trial"",""time""
""fullscreenenter"",""1"",""261602""
","
","
","""event"",""trial"",""time""
""fullscreenenter"",""1"",""261602""
","
",,1889.7,run_exp/static/images/task_images/land.jpg,65,,,,,,,79,,,7,,,,,,,,188655,1,0,FALSE,,,
dig,149,786222,0.0-46.0-0.0,"""event"",""trial"",""time""
""fullscreenenter"",""1"",""261602""
","
","
","""event"",""trial"",""time""
""fullscreenenter"",""1"",""261602""
","
",,,,,,,,,,,,"[{""stimulus"":""run_exp/static/images/task_images/dig.jpg"",""time"":0.20000000298023224},{""stimulus"":""run_exp/static/images/task_images/land.jpg"",""time"":371.6000000014901},{""stimulus"":""run_exp/static/images/task_images/dig.jpg"",""time"":741.7000000029802}]",[],7,,,,,,,,,,,,,,
harvest,150,787225,0.0-46.0-1.0,"""event"",""trial"",""time""
""fullscreenenter"",""1"",""261602""
","
","
","""event"",""trial"",""time""
""fullscreenenter"",""1"",""261602""
","
",,null,run_exp/static/images/task_images/gems/79.jpg,null,,,,,,,70,,,7,,,,,79,0.882391164,0.886075949,,,,,,,
decision,151,789393,0.0-46.0-2.0,"""event"",""trial"",""time""
""fullscreenenter"",""1"",""261602""
","
","
","""event"",""trial"",""time""
""fullscreenenter"",""1"",""261602""
","
",,2167.2,run_exp/static/images/task_images/land.jpg,65,,,,,,,70,,,7,,,,,,,,192942,1,1,FALSE,,,
dig,152,790231,0.0-47.0-0.0,"""event"",""trial"",""time""
""fullscreenenter"",""1"",""261602""
","
","
","""event"",""trial"",""time""
""fullscreenenter"",""1"",""261602""
","
",,,,,,,,,,,,"[{""stimulus"":""run_exp/static/images/task_images/dig.jpg"",""time"":0.19999999552965164},{""stimulus"":""run_exp/static/images/task_images/land.jpg"",""time"":278.69999999552965},{""stimulus"":""run_exp/static/images/task_images/dig.jpg"",""time"":556.0999999940395}]",[],7,,,,,,,,,,,,,,
harvest,153,791233,0.0-47.0-1.0,"""event"",""trial"",""time""
""fullscreenenter"",""1"",""261602""
","
","
","""event"",""trial"",""time""
""fullscreenenter"",""1"",""261602""
","
",,null,run_exp/static/images/task_images/gems/70.jpg,null,,,,,,,60,,,7,,,,,70,0.860152066,0.857142857,,,,,,,
decision,154,792817,0.0-47.0-2.0,"""event"",""trial"",""time""
""fullscreenenter"",""1"",""261602""
","
","
","""event"",""trial"",""time""
""fullscreenenter"",""1"",""261602""
","
",,1581.3,run_exp/static/images/task_images/land.jpg,65,,,,,,,60,,,7,,,,,,,,196365,1,2,FALSE,,,
dig,155,794239,0.0-48.0-0.0,"""event"",""trial"",""time""
""fullscreenenter"",""1"",""261602""
","
","
","""event"",""trial"",""time""
""fullscreenenter"",""1"",""261602""
","
",,,,,,,,,,,,"[{""stimulus"":""run_exp/static/images/task_images/dig.jpg"",""time"":0.20000000298023224},{""stimulus"":""run_exp/static/images/task_images/land.jpg"",""time"":474.5},{""stimulus"":""run_exp/static/images/task_images/dig.jpg"",""time"":945.8000000044703}]",[],7,,,,,,,,,,,,,,
harvest,156,795243,0.0-48.0-1.0,"""event"",""trial"",""time""
""fullscreenenter"",""1"",""261602""
","
","
","""event"",""trial"",""time""
""fullscreenenter"",""1"",""261602""
","
",,null,run_exp/static/images/task_images/gems/60.jpg,null,,,,,,,54,,,7,,,,,60,0.902128363,0.9,,,,,,,
decision,157,795960,0.0-48.0-2.0,"""event"",""trial"",""time""
""fullscreenenter"",""1"",""261602""
","
","
","""event"",""trial"",""time""
""fullscreenenter"",""1"",""261602""
","
",,715.2,run_exp/static/images/task_images/land.jpg,65,,,,,,,54,,,7,,,,,,,,199508,1,3,FALSE,,,
dig,158,798249,0.0-49.0-0.0,"""event"",""trial"",""time""
""fullscreenenter"",""1"",""261602""
","
","
","""event"",""trial"",""time""
""fullscreenenter"",""1"",""261602""
","
",,,,,,,,,,,,"[{""stimulus"":""run_exp/static/images/task_images/dig.jpg"",""time"":0.29999999701976776},{""stimulus"":""run_exp/static/images/task_images/land.jpg"",""time"":762.3999999985099},{""stimulus"":""run_exp/static/images/task_images/dig.jpg"",""time"":1523.8999999985099}]",[],7,,,,,,,,,,,,,,
harvest,159,799253,0.0-49.0-1.0,"""event"",""trial"",""time""
""fullscreenenter"",""1"",""261602""
","
","
","""event"",""trial"",""time""
""fullscreenenter"",""1"",""261602""
","
",,null,run_exp/static/images/task_images/gems/54.jpg,null,,,,,,,42,,,7,,,,,54,0.774189531,0.777777778,,,,,,,
decision,160,801002,0.0-49.0-2.0,"""event"",""trial"",""time""
""fullscreenenter"",""1"",""261602""
","
","
","""event"",""trial"",""time""
""fullscreenenter"",""1"",""261602""
","
",,1747.4,run_exp/static/images/task_images/land.jpg,65,,,,,,,42,,,7,,,,,,,,204550,1,4,FALSE,,,
dig,161,802258,0.0-50.0-0.0,"""event"",""trial"",""time""
""fullscreenenter"",""1"",""261602""
","
","
","""event"",""trial"",""time""
""fullscreenenter"",""1"",""261602""
","
",,,,,,,,,,,,"[{""stimulus"":""run_exp/static/images/task_images/dig.jpg"",""time"":0.19999999552965164},{""stimulus"":""run_exp/static/images/task_images/land.jpg"",""time"":418.69999999552965},{""stimulus"":""run_exp/static/images/task_images/dig.jpg"",""time"":837.2999999970198}]",[],7,,,,,,,,,,,,,,
harvest,162,803260,0.0-50.0-1.0,"""event"",""trial"",""time""
""fullscreenenter"",""1"",""261602""
","
","
","""event"",""trial"",""time""
""fullscreenenter"",""1"",""261602""
","
",,null,run_exp/static/images/task_images/gems/42.jpg,null,,,,,,,35,,,7,,,,,42,0.834988572,0.833333333,,,,,,,
decision,163,803815,0.0-50.0-2.0,"""event"",""trial"",""time""
""fullscreenenter"",""1"",""261602""
","
","
","""event"",""trial"",""time""
""fullscreenenter"",""1"",""261602""
","
",,554,run_exp/static/images/task_images/land.jpg,65,,,,,,,35,,,7,,,,,,,,207364,1,5,FALSE,,,
dig,164,806267,0.0-51.0-0.0,"""event"",""trial"",""time""
""fullscreenenter"",""1"",""261602""
","
","
","""event"",""trial"",""time""
""fullscreenenter"",""1"",""261602""
","
",,,,,,,,,,,,"[{""stimulus"":""run_exp/static/images/task_images/dig.jpg"",""time"":0.29999999701976776},{""stimulus"":""run_exp/static/images/task_images/land.jpg"",""time"":816.7999999970198},{""stimulus"":""run_exp/static/images/task_images/dig.jpg"",""time"":1633.3999999985099}]",[],7,,,,,,,,,,,,,,
harvest,165,807270,0.0-51.0-1.0,"""event"",""trial"",""time""
""fullscreenenter"",""1"",""261602""
","
","
","""event"",""trial"",""time""
""fullscreenenter"",""1"",""261602""
","
",,null,run_exp/static/images/task_images/gems/35.jpg,null,,,,,,,26,,,7,,,,,35,0.756914934,0.742857143,,,,,,,
decision,166,807625,0.0-51.0-2.0,"""event"",""trial"",""time""
""fullscreenenter"",""1"",""261602""
","
","
","""event"",""trial"",""time""
""fullscreenenter"",""1"",""261602""
","
",,352.4,run_exp/static/images/task_images/land.jpg,76,,,,,,,26,,,7,,,,,,,,211173,1,6,TRUE,,,
travel,167,817270,0.0-52.0-0.0,"""event"",""trial"",""time""
""fullscreenenter"",""1"",""261602""
","
","
","""event"",""trial"",""time""
""fullscreenenter"",""1"",""261602""
","
",,,,,,,,,,,,"[{""stimulus"":""run_exp/static/images/task_images/rocket-01.jpg"",""time"":0.10000000149011612},{""stimulus"":""run_exp/static/images/task_images/rocket-02.jpg"",""time"":1073.1000000014901},{""stimulus"":""run_exp/static/images/task_images/rocket-03.jpg"",""time"":2143.39999999851},{""stimulus"":""run_exp/static/images/task_images/rocket-04.jpg"",""time"":3215.10000000149},{""stimulus"":""run_exp/static/images/task_images/rocket-05.jpg"",""time"":4286.70000000298},{""stimulus"":""run_exp/static/images/task_images/rocket-06.jpg"",""time"":5356.60000000149},{""stimulus"":""run_exp/static/images/task_images/rocket-07.jpg"",""time"":6427.70000000298},{""stimulus"":""run_exp/static/images/task_images/rocket-08.jpg"",""time"":7498.5},{""stimulus"":""run_exp/static/images/task_images/rocket-09.jpg"",""time"":8570.89999999851}]",[],7,,,,,,,,,,,,,,
alien_welcome,168,822273,0.0-52.0-1.0,"""event"",""trial"",""time""
""fullscreenenter"",""1"",""261602""
","
","
","""event"",""trial"",""time""
""fullscreenenter"",""1"",""261602""
","
",,null,run_exp/static/images/task_images/aliens/old_aliens/planet/alien_planet-1.jpg,null,,,,,,,,,,,,,1,"57,3,44,9,32,80,63,1,53,21,45,22,19,36,10,67,6,18,59,73,37,58,4,13,16,61,2,65,33,75,60,12,15,38,46,40,74,50,8,31",,,,,,,,,,
land,169,822776,0.0-52.0-2.0,"""event"",""trial"",""time""
""fullscreenenter"",""1"",""261602""
","
","
","""event"",""trial"",""time""
""fullscreenenter"",""1"",""261602""
","
",,null,run_exp/static/images/task_images/land.jpg,null,,,,,,,91,,,8,,,,,,,,,,,,,,
dig,170,824780,0.0-52.0-3.0,"""event"",""trial"",""time""
""fullscreenenter"",""1"",""261602""
","
","
","""event"",""trial"",""time""
""fullscreenenter"",""1"",""261602""
","
",,,,,,,,,,,,"[{""stimulus"":""run_exp/static/images/task_images/dig.jpg"",""time"":0.29999999701976776},{""stimulus"":""run_exp/static/images/task_images/land.jpg"",""time"":669.1999999955297},{""stimulus"":""run_exp/static/images/task_images/dig.jpg"",""time"":1335.7999999970198}]",[],8,,,,,,,,,,,,,,
harvest,171,825783,0.0-52.0-4.0,"""event"",""trial"",""time""
""fullscreenenter"",""1"",""261602""
","
","
","""event"",""trial"",""time""
""fullscreenenter"",""1"",""261602""
","
",,null,run_exp/static/images/task_images/gems/91.jpg,null,,,,,,,73,,,8,,,,,91,0.806295305,0.802197802,,,,,,,
decision,172,826163,0.0-52.0-5.0,"""event"",""trial"",""time""
""fullscreenenter"",""1"",""261602""
","
","
","""event"",""trial"",""time""
""fullscreenenter"",""1"",""261602""
","
",,378.4,run_exp/static/images/task_images/land.jpg,65,,,,,,,73,,,8,,,,,,,,229711,1,0,FALSE,,,
dig,173,828788,0.0-53.0-0.0,"""event"",""trial"",""time""
""fullscreenenter"",""1"",""261602""
","
","
","""event"",""trial"",""time""
""fullscreenenter"",""1"",""261602""
","
",,,,,,,,,,,,"[{""stimulus"":""run_exp/static/images/task_images/dig.jpg"",""time"":0.10000000149011612},{""stimulus"":""run_exp/static/images/task_images/land.jpg"",""time"":874.7000000029802},{""stimulus"":""run_exp/static/images/task_images/dig.jpg"",""time"":1748.7000000029802}]",[],8,,,,,,,,,,,,,,
harvest,174,829790,0.0-53.0-1.0,"""event"",""trial"",""time""
""fullscreenenter"",""1"",""261602""
","
","
","""event"",""trial"",""time""
""fullscreenenter"",""1"",""261602""
","
",,null,run_exp/static/images/task_images/gems/73.jpg,null,,,,,,,55,,,8,,,,,73,0.756248528,0.753424658,,,,,,,
decision,175,830283,0.0-53.0-2.0,"""event"",""trial"",""time""
""fullscreenenter"",""1"",""261602""
","
","
","""event"",""trial"",""time""
""fullscreenenter"",""1"",""261602""
","
",,490.9,run_exp/static/images/task_images/land.jpg,65,,,,,,,55,,,8,,,,,,,,233831,1,1,FALSE,,,
dig,176,832797,0.0-54.0-0.0,"""event"",""trial"",""time""
""fullscreenenter"",""1"",""261602""
","
","
","""event"",""trial"",""time""
""fullscreenenter"",""1"",""261602""
","
",,,,,,,,,,,,"[{""stimulus"":""run_exp/static/images/task_images/dig.jpg"",""time"":0.29999999701976776},{""stimulus"":""run_exp/static/images/task_images/land.jpg"",""time"":838.1999999955297},{""stimulus"":""run_exp/static/images/task_images/dig.jpg"",""time"":1673.7999999970198}]",[],8,,,,,,,,,,,,,,
harvest,177,833800,0.0-54.0-1.0,"""event"",""trial"",""time""
""fullscreenenter"",""1"",""261602""
","
","
","""event"",""trial"",""time""
""fullscreenenter"",""1"",""261602""
","
",,null,run_exp/static/images/task_images/gems/55.jpg,null,,,,,,,48,,,8,,,,,55,0.865575409,0.872727273,,,,,,,
decision,178,835357,0.0-54.0-2.0,"""event"",""trial"",""time""
""fullscreenenter"",""1"",""261602""
","
","
","""event"",""trial"",""time""
""fullscreenenter"",""1"",""261602""
","
",,1555.6,run_exp/static/images/task_images/land.jpg,65,,,,,,,48,,,8,,,,,,,,238905,1,2,FALSE,,,
dig,179,836806,0.0-55.0-0.0,"""event"",""trial"",""time""
""fullscreenenter"",""1"",""261602""
","
","
","""event"",""trial"",""time""
""fullscreenenter"",""1"",""261602""
","
",,,,,,,,,,,,"[{""stimulus"":""run_exp/static/images/task_images/dig.jpg"",""time"":0.29999999701976776},{""stimulus"":""run_exp/static/images/task_images/land.jpg"",""time"":483.5},{""stimulus"":""run_exp/static/images/task_images/dig.jpg"",""time"":964.3999999985099}]",[],8,,,,,,,,,,,,,,
harvest,180,837808,0.0-55.0-1.0,"""event"",""trial"",""time""
""fullscreenenter"",""1"",""261602""
","
","
","""event"",""trial"",""time""
""fullscreenenter"",""1"",""261602""
","
",,null,run_exp/static/images/task_images/gems/48.jpg,null,,,,,,,41,,,8,,,,,48,0.860194736,0.854166667,,,,,,,
decision,181,838644,0.0-55.0-2.0,"""event"",""trial"",""time""
""fullscreenenter"",""1"",""261602""
","
","
","""event"",""trial"",""time""
""fullscreenenter"",""1"",""261602""
","
",,833.7,run_exp/static/images/task_images/land.jpg,65,,,,,,,41,,,8,,,,,,,,242192,1,3,FALSE,,,
dig,182,840816,0.0-56.0-0.0,"""event"",""trial"",""time""
""fullscreenenter"",""1"",""261602""
","
","
","""event"",""trial"",""time""
""fullscreenenter"",""1"",""261602""
","
",,,,,,,,,,,,"[{""stimulus"":""run_exp/static/images/task_images/dig.jpg"",""time"":0.19999999552965164},{""stimulus"":""run_exp/static/images/task_images/land.jpg"",""time"":724.5999999940395},{""stimulus"":""run_exp/static/images/task_images/dig.jpg"",""time"":1446.0999999940395}]",[],8,,,,,,,,,,,,,,
harvest,183,841819,0.0-56.0-1.0,"""event"",""trial"",""time""
""fullscreenenter"",""1"",""261602""
","
","
","""event"",""trial"",""time""
""fullscreenenter"",""1"",""261602""
","
",,null,run_exp/static/images/task_images/gems/41.jpg,null,,,,,,,34,,,8,,,,,41,0.840038124,0.829268293,,,,,,,
decision,184,841852,0.0-56.0-2.0,"""event"",""trial"",""time""
""fullscreenenter"",""1"",""261602""
","
","
","""event"",""trial"",""time""
""fullscreenenter"",""1"",""261602""
","
",,30.7,run_exp/static/images/task_images/land.jpg,65,,,,,,,34,,,8,,,,,,,,245400,1,4,FALSE,,,
dig,185,844825,0.0-57.0-0.0,"""event"",""trial"",""time""
""fullscreenenter"",""1"",""261602""
","
","
","""event"",""trial"",""time""
""fullscreenenter"",""1"",""261602""
","
",,,,,,,,,,,,"[{""stimulus"":""run_exp/static/images/task_images/dig.jpg"",""time"":0.19999999552965164},{""stimulus"":""run_exp/static/images/task_images/land.jpg"",""time"":991.6999999955297},{""stimulus"":""run_exp/static/images/task_images/dig.jpg"",""time"":1979.7999999970198}]",[],8,,,,,,,,,,,,,,
harvest,186,845827,0.0-57.0-1.0,"""event"",""trial"",""time""
""fullscreenenter"",""1"",""261602""
","
","
","""event"",""trial"",""time""
""fullscreenenter"",""1"",""261602""
","
",,null,run_exp/static/images/task_images/gems/34.jpg,null,,,,,,,30,,,8,,,,,34,0.87600185,0.882352941,,,,,,,
decision,187,846108,0.0-57.0-2.0,"""event"",""trial"",""time""
""fullscreenenter"",""1"",""261602""
","
","
","""event"",""trial"",""time""
""fullscreenenter"",""1"",""261602""
","
",,279.8,run_exp/static/images/task_images/land.jpg,65,,,,,,,30,,,8,,,,,,,,249656,1,5,FALSE,,,
dig,188,848832,0.0-58.0-0.0,"""event"",""trial"",""time""
""fullscreenenter"",""1"",""261602""
","
","
","""event"",""trial"",""time""
""fullscreenenter"",""1"",""261602""
","
",,,,,,,,,,,,"[{""stimulus"":""run_exp/static/images/task_images/dig.jpg"",""time"":0.30000000447034836},{""stimulus"":""run_exp/static/images/task_images/land.jpg"",""time"":908.6000000014901},{""stimulus"":""run_exp/static/images/task_images/dig.jpg"",""time"":1814.8000000044703}]",[],8,,,,,,,,,,,,,,
harvest,189,849835,0.0-58.0-1.0,"""event"",""trial"",""time""
""fullscreenenter"",""1"",""261602""
","
","
","""event"",""trial"",""time""
""fullscreenenter"",""1"",""261602""
","
",,null,run_exp/static/images/task_images/gems/30.jpg,null,,,,,,,23,,,8,,,,,30,0.781452538,0.766666667,,,,,,,
decision,190,850080,0.0-58.0-2.0,"""event"",""trial"",""time""
""fullscreenenter"",""1"",""261602""
","
","
","""event"",""trial"",""time""
""fullscreenenter"",""1"",""261602""
","
",,242.8,run_exp/static/images/task_images/land.jpg,65,,,,,,,23,,,8,,,,,,,,253628,1,6,FALSE,,,
dig,191,852845,0.0-59.0-0.0,"""event"",""trial"",""time""
""fullscreenenter"",""1"",""261602""
","
","
","""event"",""trial"",""time""
""fullscreenenter"",""1"",""261602""
","
",,,,,,,,,,,,"[{""stimulus"":""run_exp/static/images/task_images/dig.jpg"",""time"":0.30000000447034836},{""stimulus"":""run_exp/static/images/task_images/land.jpg"",""time"":922.1000000014901},{""stimulus"":""run_exp/static/images/task_images/dig.jpg"",""time"":1840.1000000014901}]",[],8,,,,,,,,,,,,,,
harvest,192,853847,0.0-59.0-1.0,"""event"",""trial"",""time""
""fullscreenenter"",""1"",""261602""
","
","
","""event"",""trial"",""time""
""fullscreenenter"",""1"",""261602""
","
",,null,run_exp/static/images/task_images/gems/23.jpg,null,,,,,,,17,,,8,,,,,23,0.750506142,0.739130435,,,,,,,
decision,193,854361,0.0-59.0-2.0,"""event"",""trial"",""time""
""fullscreenenter"",""1"",""261602""
","
","
","""event"",""trial"",""time""
""fullscreenenter"",""1"",""261602""
","
",,512.5,run_exp/static/images/task_images/land.jpg,76,,,,,,,17,,,8,,,,,,,,257909,1,7,TRUE,,,
travel,194,863854,0.0-60.0-0.0,"""event"",""trial"",""time""
""fullscreenenter"",""1"",""261602""
","
","
","""event"",""trial"",""time""
""fullscreenenter"",""1"",""261602""
","
",,,,,,,,,,,,"[{""stimulus"":""run_exp/static/images/task_images/rocket-01.jpg"",""time"":0.29999999701976776},{""stimulus"":""run_exp/static/images/task_images/rocket-02.jpg"",""time"":1056.8999999985099},{""stimulus"":""run_exp/static/images/task_images/rocket-03.jpg"",""time"":2109.39999999851},{""stimulus"":""run_exp/static/images/task_images/rocket-04.jpg"",""time"":3164},{""stimulus"":""run_exp/static/images/task_images/rocket-05.jpg"",""time"":4217.69999999553},{""stimulus"":""run_exp/static/images/task_images/rocket-06.jpg"",""time"":5271.5999999940395},{""stimulus"":""run_exp/static/images/task_images/rocket-07.jpg"",""time"":6326.79999999702},{""stimulus"":""run_exp/static/images/task_images/rocket-08.jpg"",""time"":7379.79999999702},{""stimulus"":""run_exp/static/images/task_images/rocket-09.jpg"",""time"":8434.09999999404}]",[],8,,,,,,,,,,,,,,
alien_welcome,195,868857,0.0-60.0-1.0,"""event"",""trial"",""time""
""fullscreenenter"",""1"",""261602""
","
","
","""event"",""trial"",""time""
""fullscreenenter"",""1"",""261602""
","
",,null,run_exp/static/images/task_images/aliens/old_aliens/planet/alien_planet-53.jpg,null,,,,,,,,,,,,,53,"57,3,44,9,32,80,63,1,53,21,45,22,19,36,10,67,6,18,59,73,37,58,4,13,16,61,2,65,33,75,60,12,15,38,46,40,74,50,8,31",,,,,,,,,,
land,196,869360,0.0-60.0-2.0,"""event"",""trial"",""time""
""fullscreenenter"",""1"",""261602""
","
","
","""event"",""trial"",""time""
""fullscreenenter"",""1"",""261602""
","
",,null,run_exp/static/images/task_images/land.jpg,null,,,,,,,100,,,9,,,,,,,,,,,,,,
dig,197,871363,0.0-60.0-3.0,"""event"",""trial"",""time""
""fullscreenenter"",""1"",""261602""
","
","
","""event"",""trial"",""time""
""fullscreenenter"",""1"",""261602""
","
",,,,,,,,,,,,"[{""stimulus"":""run_exp/static/images/task_images/dig.jpg"",""time"":0.30000000447034836},{""stimulus"":""run_exp/static/images/task_images/land.jpg"",""time"":668.8000000044703},{""stimulus"":""run_exp/static/images/task_images/dig.jpg"",""time"":1336.4000000059605}]",[],9,,,,,,,,,,,,,,
harvest,198,872367,0.0-60.0-4.0,"""event"",""trial"",""time""
""fullscreenenter"",""1"",""261602""
","
","
","""event"",""trial"",""time""
""fullscreenenter"",""1"",""261602""
","
",,null,run_exp/static/images/task_images/gems/100.jpg,null,,,,,,,16,,,9,,,,,100,0.161144882,0.16,,,,,,,
decision,199,872442,0.0-60.0-5.0,"""event"",""trial"",""time""
""fullscreenenter"",""1"",""261602""
","
","
","""event"",""trial"",""time""
""fullscreenenter"",""1"",""261602""
","
",,73.4,run_exp/static/images/task_images/land.jpg,65,,,,,,,16,,,9,,,,,,,,275990,1,0,FALSE,,,
dig,200,875374,0.0-61.0-0.0,"""event"",""trial"",""time""
""fullscreenenter"",""1"",""261602""
","
","
","""event"",""trial"",""time""
""fullscreenenter"",""1"",""261602""
","
",,,,,,,,,,,,"[{""stimulus"":""run_exp/static/images/task_images/dig.jpg"",""time"":0.3999999985098839},{""stimulus"":""run_exp/static/images/task_images/land.jpg"",""time"":976.8999999985099},{""stimulus"":""run_exp/static/images/task_images/dig.jpg"",""time"":1952.1000000014901}]",[],9,,,,,,,,,,,,,,
harvest,201,876378,0.0-61.0-1.0,"""event"",""trial"",""time""
""fullscreenenter"",""1"",""261602""
","
","
","""event"",""trial"",""time""
""fullscreenenter"",""1"",""261602""
","
",,null,run_exp/static/images/task_images/gems/16.jpg,null,,,,,,,3,,,9,,,,,16,0.21410132,0.1875,,,,,,,
decision,202,877032,0.0-61.0-2.0,"""event"",""trial"",""time""
""fullscreenenter"",""1"",""261602""
","
","
","""event"",""trial"",""time""
""fullscreenenter"",""1"",""261602""
","
",,652.2,run_exp/static/images/task_images/land.jpg,76,,,,,,,3,,,9,,,,,,,,280580,1,1,TRUE,,,
travel,203,886380,0.0-62.0-0.0,"""event"",""trial"",""time""
""fullscreenenter"",""1"",""261602""
","
","
","""event"",""trial"",""time""
""fullscreenenter"",""1"",""261602""
","
",,,,,,,,,,,,"[{""stimulus"":""run_exp/static/images/task_images/rocket-01.jpg"",""time"":0.4000000059604645},{""stimulus"":""run_exp/static/images/task_images/rocket-02.jpg"",""time"":1040.6000000014901},{""stimulus"":""run_exp/static/images/task_images/rocket-03.jpg"",""time"":2078.8000000044703},{""stimulus"":""run_exp/static/images/task_images/rocket-04.jpg"",""time"":3115.8000000044703},{""stimulus"":""run_exp/static/images/task_images/rocket-05.jpg"",""time"":4154.60000000149},{""stimulus"":""run_exp/static/images/task_images/rocket-06.jpg"",""time"":5192.9000000059605},{""stimulus"":""run_exp/static/images/task_images/rocket-07.jpg"",""time"":6229.9000000059605},{""stimulus"":""run_exp/static/images/task_images/rocket-08.jpg"",""time"":7267.9000000059605},{""stimulus"":""run_exp/static/images/task_images/rocket-09.jpg"",""time"":8306.5}]",[],9,,,,,,,,,,,,,,
alien_welcome,204,891384,0.0-62.0-1.0,"""event"",""trial"",""time""
""fullscreenenter"",""1"",""261602""
","
","
","""event"",""trial"",""time""
""fullscreenenter"",""1"",""261602""
","
",,null,run_exp/static/images/task_images/aliens/old_aliens/planet/alien_planet-21.jpg,null,,,,,,,,,,,,,21,"57,3,44,9,32,80,63,1,53,21,45,22,19,36,10,67,6,18,59,73,37,58,4,13,16,61,2,65,33,75,60,12,15,38,46,40,74,50,8,31",,,,,,,,,,
land,205,891887,0.0-62.0-2.0,"""event"",""trial"",""time""
""fullscreenenter"",""1"",""261602""
","
","
","""event"",""trial"",""time""
""fullscreenenter"",""1"",""261602""
","
",,null,run_exp/static/images/task_images/land.jpg,null,,,,,,,95,,,10,,,,,,,,,,,,,,
dig,206,893891,0.0-62.0-3.0,"""event"",""trial"",""time""
""fullscreenenter"",""1"",""261602""
","
","
","""event"",""trial"",""time""
""fullscreenenter"",""1"",""261602""
","
",,,,,,,,,,,,"[{""stimulus"":""run_exp/static/images/task_images/dig.jpg"",""time"":0.29999999701976776},{""stimulus"":""run_exp/static/images/task_images/land.jpg"",""time"":669.1000000014901},{""stimulus"":""run_exp/static/images/task_images/dig.jpg"",""time"":1336.1000000014901}]",[],10,,,,,,,,,,,,,,
harvest,207,894894,0.0-62.0-4.0,"""event"",""trial"",""time""
""fullscreenenter"",""1"",""261602""
","
","
","""event"",""trial"",""time""
""fullscreenenter"",""1"",""261602""
","
",,null,run_exp/static/images/task_images/gems/95.jpg,null,,,,,,,14,,,10,,,,,95,0.149577835,0.147368421,,,,,,,
decision,208,895332,0.0-62.0-5.0,"""event"",""trial"",""time""
""fullscreenenter"",""1"",""261602""
","
","
","""event"",""trial"",""time""
""fullscreenenter"",""1"",""261602""
","
",,435.4,run_exp/static/images/task_images/land.jpg,65,,,,,,,14,,,10,,,,,,,,298880,1,0,FALSE,,,
dig,209,897901,0.0-63.0-0.0,"""event"",""trial"",""time""
""fullscreenenter"",""1"",""261602""
","
","
","""event"",""trial"",""time""
""fullscreenenter"",""1"",""261602""
","
",,,,,,,,,,,,"[{""stimulus"":""run_exp/static/images/task_images/dig.jpg"",""time"":0.20000000298023224},{""stimulus"":""run_exp/static/images/task_images/land.jpg"",""time"":855.8999999985099},{""stimulus"":""run_exp/static/images/task_images/dig.jpg"",""time"":1710.2000000029802}]",[],10,,,,,,,,,,,,,,
harvest,210,898903,0.0-63.0-1.0,"""event"",""trial"",""time""
""fullscreenenter"",""1"",""261602""
","
","
","""event"",""trial"",""time""
""fullscreenenter"",""1"",""261602""
","
",,null,run_exp/static/images/task_images/gems/14.jpg,null,,,,,,,2,,,10,,,,,14,0.139585323,0.142857143,,,,,,,
decision,211,899254,0.0-63.0-2.0,"""event"",""trial"",""time""
""fullscreenenter"",""1"",""261602""
","
","
","""event"",""trial"",""time""
""fullscreenenter"",""1"",""261602""
","
",,348.5,run_exp/static/images/task_images/land.jpg,76,,,,,,,2,,,10,,,,,,,,302802,1,1,TRUE,,,
end_of_block_continue,212,908135,0.0-64.0-0.0,"""event"",""trial"",""time""
""fullscreenenter"",""1"",""261602""
","
","
","""event"",""trial"",""time""
""fullscreenenter"",""1"",""261602""
","
",,null,run_exp/static/audio/clip_32_block_end.m4a,,,,,,,null,,,,,,,,,,,,,,,,,,
alien_welcome,213,913142,0.0-65.0-0.0,"""event"",""trial"",""time""
""fullscreenenter"",""1"",""261602""
","
","
","""event"",""trial"",""time""
""fullscreenenter"",""1"",""261602""
","
",,null,run_exp/static/images/task_images/aliens/old_aliens/planet/alien_planet-45.jpg,null,,,,,,,,,,,,,45,"57,3,44,9,32,80,63,1,53,21,45,22,19,36,10,67,6,18,59,73,37,58,4,13,16,61,2,65,33,75,60,12,15,38,46,40,74,50,8,31",,,,,,,,,,
land,214,913645,0.0-65.0-1.0,"""event"",""trial"",""time""
""fullscreenenter"",""1"",""261602""
","
","
","""event"",""trial"",""time""
""fullscreenenter"",""1"",""261602""
","
",,null,run_exp/static/images/task_images/land.jpg,null,,,,,,,97,,,11,,,,,,,,,,,,,,
dig,215,915650,0.0-65.0-2.0,"""event"",""trial"",""time""
""fullscreenenter"",""1"",""261602""
","
","
","""event"",""trial"",""time""
""fullscreenenter"",""1"",""261602""
","
",,,,,,,,,,,,"[{""stimulus"":""run_exp/static/images/task_images/dig.jpg"",""time"":0.5},{""stimulus"":""run_exp/static/images/task_images/land.jpg"",""time"":669.8000000044703},{""stimulus"":""run_exp/static/images/task_images/dig.jpg"",""time"":1335.6000000014901}]",[],11,,,,,,,,,,,,,,
harvest,216,916653,0.0-65.0-3.0,"""event"",""trial"",""time""
""fullscreenenter"",""1"",""261602""
","
","
","""event"",""trial"",""time""
""fullscreenenter"",""1"",""261602""
","
",,null,run_exp/static/images/task_images/gems/97.jpg,null,,,,,,,33,,,11,,,,,97,0.336506617,0.340206186,,,,,,,
decision,217,919205,0.0-65.0-4.0,"""event"",""trial"",""time""
""fullscreenenter"",""1"",""261602""
","
","
","""event"",""trial"",""time""
""fullscreenenter"",""1"",""261602""
","
",,2550.6,run_exp/static/images/task_images/land.jpg,65,,,,,,,33,,,11,,,,,,,,11066,2,0,FALSE,,,
dig,218,919657,0.0-66.0-0.0,"""event"",""trial"",""time""
""fullscreenenter"",""1"",""261602""
","
","
","""event"",""trial"",""time""
""fullscreenenter"",""1"",""261602""
","
",,,,,,,,,,,,"[{""stimulus"":""run_exp/static/images/task_images/dig.jpg"",""time"":0},{""stimulus"":""run_exp/static/images/task_images/land.jpg"",""time"":151.29999999701977},{""stimulus"":""run_exp/static/images/task_images/dig.jpg"",""time"":299.6000000014901}]",[],11,,,,,,,,,,,,,,
harvest,219,920660,0.0-66.0-1.0,"""event"",""trial"",""time""
""fullscreenenter"",""1"",""261602""
","
","
","""event"",""trial"",""time""
""fullscreenenter"",""1"",""261602""
","
",,null,run_exp/static/images/task_images/gems/33.jpg,null,,,,,,,5,,,11,,,,,33,0.165948877,0.151515152,,,,,,,
decision,220,922858,0.0-66.0-2.0,"""event"",""trial"",""time""
""fullscreenenter"",""1"",""261602""
","
","
","""event"",""trial"",""time""
""fullscreenenter"",""1"",""261602""
","
",,2195.9,run_exp/static/images/task_images/land.jpg,65,,,,,,,5,,,11,,,,,,,,14718,2,1,FALSE,,,
dig,221,923669,0.0-67.0-0.0,"""event"",""trial"",""time""
""fullscreenenter"",""1"",""261602""
","
","
","""event"",""trial"",""time""
""fullscreenenter"",""1"",""261602""
","
",,,,,,,,,,,,"[{""stimulus"":""run_exp/static/images/task_images/dig.jpg"",""time"":0.29999999701976776},{""stimulus"":""run_exp/static/images/task_images/land.jpg"",""time"":270.5},{""stimulus"":""run_exp/static/images/task_images/dig.jpg"",""time"":538.1999999955297}]",[],11,,,,,,,,,,,,,,
harvest,222,924671,0.0-67.0-1.0,"""event"",""trial"",""time""
""fullscreenenter"",""1"",""261602""
","
","
","""event"",""trial"",""time""
""fullscreenenter"",""1"",""261602""
","
",,null,run_exp/static/images/task_images/gems/5.jpg,null,,,,,,,1,,,11,,,,,5,0.228519789,0.2,,,,,,,
decision,223,927033,0.0-67.0-2.0,"""event"",""trial"",""time""
""fullscreenenter"",""1"",""261602""
","
","
","""event"",""trial"",""time""
""fullscreenenter"",""1"",""261602""
","
",,2360.9,run_exp/static/images/task_images/land.jpg,65,,,,,,,1,,,11,,,,,,,,18894,2,2,FALSE,,,
dig,224,927678,0.0-68.0-0.0,"""event"",""trial"",""time""
""fullscreenenter"",""1"",""261602""
","
","
","""event"",""trial"",""time""
""fullscreenenter"",""1"",""261602""
","
",,,,,,,,,,,,"[{""stimulus"":""run_exp/static/images/task_images/dig.jpg"",""time"":0.29999999701976776},{""stimulus"":""run_exp/static/images/task_images/land.jpg"",""time"":215.29999999701977},{""stimulus"":""run_exp/static/images/task_images/dig.jpg"",""time"":427.70000000298023}]",[],11,,,,,,,,,,,,,,
harvest,225,928680,0.0-68.0-1.0,"""event"",""trial"",""time""
""fullscreenenter"",""1"",""261602""
","
","
","""event"",""trial"",""time""
""fullscreenenter"",""1"",""261602""
","
",,null,run_exp/static/images/task_images/gems/1.jpg,null,,,,,,,0,,,11,,,,,1,0.211078051,0,,,,,,,
decision,226,929086,0.0-68.0-2.0,"""event"",""trial"",""time""
""fullscreenenter"",""1"",""261602""
","
","
","""event"",""trial"",""time""
""fullscreenenter"",""1"",""261602""
","
",,403.9,run_exp/static/images/task_images/land.jpg,76,,,,,,,0,,,11,,,,,,,,20946,2,3,TRUE,,,
travel,227,938686,0.0-69.0-0.0,"""event"",""trial"",""time""
""fullscreenenter"",""1"",""261602""
","
","
","""event"",""trial"",""time""
""fullscreenenter"",""1"",""261602""
","
",,,,,,,,,,,,"[{""stimulus"":""run_exp/static/images/task_images/rocket-01.jpg"",""time"":0.20000000298023224},{""stimulus"":""run_exp/static/images/task_images/rocket-02.jpg"",""time"":1067.2000000029802},{""stimulus"":""run_exp/static/images/task_images/rocket-03.jpg"",""time"":2133.8000000044703},{""stimulus"":""run_exp/static/images/task_images/rocket-04.jpg"",""time"":3199.60000000149},{""stimulus"":""run_exp/static/images/task_images/rocket-05.jpg"",""time"":4266.39999999851},{""stimulus"":""run_exp/static/images/task_images/rocket-06.jpg"",""time"":5332.10000000149},{""stimulus"":""run_exp/static/images/task_images/rocket-07.jpg"",""time"":6397.10000000149},{""stimulus"":""run_exp/static/images/task_images/rocket-08.jpg"",""time"":7464.30000000447},{""stimulus"":""run_exp/static/images/task_images/rocket-09.jpg"",""time"":8529.70000000298}]",[],11,,,,,,,,,,,,,,
alien_welcome,228,943689,0.0-69.0-1.0,"""event"",""trial"",""time""
""fullscreenenter"",""1"",""261602""
","
","
","""event"",""trial"",""time""
""fullscreenenter"",""1"",""261602""
","
",,null,run_exp/static/images/task_images/aliens/old_aliens/planet/alien_planet-22.jpg,null,,,,,,,,,,,,,22,"57,3,44,9,32,80,63,1,53,21,45,22,19,36,10,67,6,18,59,73,37,58,4,13,16,61,2,65,33,75,60,12,15,38,46,40,74,50,8,31",,,,,,,,,,
land,229,944191,0.0-69.0-2.0,"""event"",""trial"",""time""
""fullscreenenter"",""1"",""261602""
","
","
","""event"",""trial"",""time""
""fullscreenenter"",""1"",""261602""
","
",,null,run_exp/static/images/task_images/land.jpg,null,,,,,,,102,,,12,,,,,,,,,,,,,,
dig,230,946196,0.0-69.0-3.0,"""event"",""trial"",""time""
""fullscreenenter"",""1"",""261602""
","
","
","""event"",""trial"",""time""
""fullscreenenter"",""1"",""261602""
","
",,,,,,,,,,,,"[{""stimulus"":""run_exp/static/images/task_images/dig.jpg"",""time"":0.5},{""stimulus"":""run_exp/static/images/task_images/land.jpg"",""time"":668.3999999985099},{""stimulus"":""run_exp/static/images/task_images/dig.jpg"",""time"":1337.3999999985099}]",[],12,,,,,,,,,,,,,,
harvest,231,947198,0.0-69.0-4.0,"""event"",""trial"",""time""
""fullscreenenter"",""1"",""261602""
","
","
","""event"",""trial"",""time""
""fullscreenenter"",""1"",""261602""
","
",,null,run_exp/static/images/task_images/gems/102.jpg,null,,,,,,,27,,,12,,,,,102,0.261515604,0.264705882,,,,,,,
decision,232,947770,0.0-69.0-5.0,"""event"",""trial"",""time""
""fullscreenenter"",""1"",""261602""
","
","
","""event"",""trial"",""time""
""fullscreenenter"",""1"",""261602""
","
",,570.2,run_exp/static/images/task_images/land.jpg,65,,,,,,,27,,,12,,,,,,,,39630,2,0,FALSE,,,
dig,233,950203,0.0-70.0-0.0,"""event"",""trial"",""time""
""fullscreenenter"",""1"",""261602""
","
","
","""event"",""trial"",""time""
""fullscreenenter"",""1"",""261602""
","
",,,,,,,,,,,,"[{""stimulus"":""run_exp/static/images/task_images/dig.jpg"",""time"":0.20000000298023224},{""stimulus"":""run_exp/static/images/task_images/land.jpg"",""time"":810.7999999970198},{""stimulus"":""run_exp/static/images/task_images/dig.jpg"",""time"":1620.1000000014901}]",[],12,,,,,,,,,,,,,,
harvest,234,951206,0.0-70.0-1.0,"""event"",""trial"",""time""
""fullscreenenter"",""1"",""261602""
","
","
","""event"",""trial"",""time""
""fullscreenenter"",""1"",""261602""
","
",,null,run_exp/static/images/task_images/gems/27.jpg,null,,,,,,,5,,,12,,,,,27,0.172182196,0.185185185,,,,,,,
decision,235,951460,0.0-70.0-2.0,"""event"",""trial"",""time""
""fullscreenenter"",""1"",""261602""
","
","
","""event"",""trial"",""time""
""fullscreenenter"",""1"",""261602""
","
",,252.8,run_exp/static/images/task_images/land.jpg,65,,,,,,,5,,,12,,,,,,,,43320,2,1,FALSE,,,
dig,236,954211,0.0-71.0-0.0,"""event"",""trial"",""time""
""fullscreenenter"",""1"",""261602""
","
","
","""event"",""trial"",""time""
""fullscreenenter"",""1"",""261602""
","
",,,,,,,,,,,,"[{""stimulus"":""run_exp/static/images/task_images/dig.jpg"",""time"":0.20000000298023224},{""stimulus"":""run_exp/static/images/task_images/land.jpg"",""time"":918.2000000029802},{""stimulus"":""run_exp/static/images/task_images/dig.jpg"",""time"":1831.8000000044703}]",[],12,,,,,,,,,,,,,,
harvest,237,955214,0.0-71.0-1.0,"""event"",""trial"",""time""
""fullscreenenter"",""1"",""261602""
","
","
","""event"",""trial"",""time""
""fullscreenenter"",""1"",""261602""
","
",,null,run_exp/static/images/task_images/gems/5.jpg,null,,,,,,,1,,,12,,,,,5,0.169449765,0.2,,,,,,,
decision,238,955834,0.0-71.0-2.0,"""event"",""trial"",""time""
""fullscreenenter"",""1"",""261602""
","
","
","""event"",""trial"",""time""
""fullscreenenter"",""1"",""261602""
","
",,618.6,run_exp/static/images/task_images/land.jpg,76,,,,,,,1,,,12,,,,,,,,47694,2,2,TRUE,,,
travel,239,965218,0.0-72.0-0.0,"""event"",""trial"",""time""
""fullscreenenter"",""1"",""261602""
","
","
","""event"",""trial"",""time""
""fullscreenenter"",""1"",""261602""
","
",,,,,,,,,,,,"[{""stimulus"":""run_exp/static/images/task_images/rocket-01.jpg"",""time"":0.29999999701976776},{""stimulus"":""run_exp/static/images/task_images/rocket-02.jpg"",""time"":1043.8999999985099},{""stimulus"":""run_exp/static/images/task_images/rocket-03.jpg"",""time"":2085},{""stimulus"":""run_exp/static/images/task_images/rocket-04.jpg"",""time"":3127.5},{""stimulus"":""run_exp/static/images/task_images/rocket-05.jpg"",""time"":4170.60000000149},{""stimulus"":""run_exp/static/images/task_images/rocket-06.jpg"",""time"":5211.60000000149},{""stimulus"":""run_exp/static/images/task_images/rocket-07.jpg"",""time"":6255.20000000298},{""stimulus"":""run_exp/static/images/task_images/rocket-08.jpg"",""time"":7295.29999999702},{""stimulus"":""run_exp/static/images/task_images/rocket-09.jpg"",""time"":8337.89999999851}]",[],12,,,,,,,,,,,,,,
alien_welcome,240,970224,0.0-72.0-1.0,"""event"",""trial"",""time""
""fullscreenenter"",""1"",""261602""
","
","
","""event"",""trial"",""time""
""fullscreenenter"",""1"",""261602""
","
",,null,run_exp/static/images/task_images/aliens/old_aliens/planet/alien_planet-19.jpg,null,,,,,,,,,,,,,19,"57,3,44,9,32,80,63,1,53,21,45,22,19,36,10,67,6,18,59,73,37,58,4,13,16,61,2,65,33,75,60,12,15,38,46,40,74,50,8,31",,,,,,,,,,
land,241,970728,0.0-72.0-2.0,"""event"",""trial"",""time""
""fullscreenenter"",""1"",""261602""
","
","
","""event"",""trial"",""time""
""fullscreenenter"",""1"",""261602""
","
