trial_type,trial_index,time_elapsed,internal_node_id,interactions,blur_events,focus_events,fullscreenenter_events,fullscreenexit_events,success,rt,stimulus,key_press,prompt,subject_id,participant_id,age,gender,button_pressed,next_reward,animation_sequence,responses,planet,curr_prac_trial,n_prac_rounds,alien,aliens,reward_received,decay_rate_actual,decay_rate_exp,time_in_block,block_num,prt,last_trial_on_planet,button_html,bonus,num_failures
pavlovia,0,15,0.0-0.0,"""event"",""trial"",""time""
""fullscreenenter"",""1"",""8691""
","
","
","""event"",""trial"",""time""
""fullscreenenter"",""1"",""8691""
","
",,,,,,,,,,,,,,,,,,,,,,,,,,,,
fullscreen,1,9682,0.0-1.0,"""event"",""trial"",""time""
""fullscreenenter"",""1"",""8691""
","
","
","""event"",""trial"",""time""
""fullscreenenter"",""1"",""8691""
","
",TRUE,,,,,,,,,,,,,,,,,,,,,,,,,,,
instruc_welcome,2,19589,0.0-2.0,"""event"",""trial"",""time""
""fullscreenenter"",""1"",""8691""
","
","
","""event"",""trial"",""time""
""fullscreenenter"",""1"",""8691""
","
",,null,run_exp/static/audio/clip_1_welcome.m4a,null,"<p>Howdy! In this experiment, you’ll be an explorer traveling through space to collect space treasure.</p><p>Your mission is to collect as much treasure as possible.</p><br><br><p><img src='run_exp/static/images/task_images/opening_img-01.jpg' height='300' width='auto'></p>",9187,550,25.14,Female,,,,,,,,,,,,,,,,,,,
audio-keyboard-response,3,36187,0.0-3.0,"""event"",""trial"",""time""
""fullscreenenter"",""1"",""8691""
","
","
","""event"",""trial"",""time""
""fullscreenenter"",""1"",""8691""
","
",,null,run_exp/static/audio/clip_2_move.m4a,null,,,,,,,,,,,,,,,,,,,,,,,,
welcome_dec,4,41228,0.0-4.0,"""event"",""trial"",""time""
""fullscreenenter"",""1"",""8691""
","
","
","""event"",""trial"",""time""
""fullscreenenter"",""1"",""8691""
","
",,5035.2,"<p>Howdy! In this experiment, you’ll be an explorer traveling through space to collect space treasure.</p><p>Your mission is to collect as much treasure as possible.</p><br><br><p><img src='run_exp/static/images/task_images/opening_img-01.jpg' height='300' width='auto'></p>",,,,,,,1,,,,,,,,,,,,,,,,,,
html-keyboard-response,5,42754,0.0-5.0,"""event"",""trial"",""time""
""fullscreenenter"",""1"",""8691""
","
","
","""event"",""trial"",""time""
""fullscreenenter"",""1"",""8691""
","
",,1523.8,"<p>Howdy! In this experiment, you’ll be an explorer traveling through space to collect space treasure.</p><p>Your mission is to collect as much treasure as possible.</p><br><br><p><img src='run_exp/static/images/task_images/opening_img-01.jpg' height='300' width='auto'></p><button class=""jspsych-html-btn-unchosen""><img src=""run_exp/static/images/task_images/planet-01.jpg"" height=""50""></button><button class=""jspsych-html-btn-chosen""><img src=""run_exp/static/images/task_images/planet-02.jpg"" height=""50""></button><p><b>[press the space bar to lock in your answer]<b><br></p>",32,,,,,,,,,,,,,,,,,,,,,,,,
instruc_goal,6,52827,0.0-6.0-0.0,"""event"",""trial"",""time""
""fullscreenenter"",""1"",""8691""
","
","
","""event"",""trial"",""time""
""fullscreenenter"",""1"",""8691""
","
",,null,run_exp/static/audio/clip_3_goal.m4a,null,"<p> As a space explorer, you’ll visit different planets to dig for space treasure, these pink gems.</p> <p> The more treasure you dig up, the more bonus money you’ll win! </p><br><br><p><img src='run_exp/static/images/task_images/pink_gem.jpg' height='300' width='auto'></p>",,,,,,,,,,,,,,,,,,,,,,,
instruc_goal,7,54302,0.0-6.0-1.0,"""event"",""trial"",""time""
""fullscreenenter"",""1"",""8691""
","
","
","""event"",""trial"",""time""
""fullscreenenter"",""1"",""8691""
","
",,1470.7,"<p> As a space explorer, you’ll visit different planets to dig for space treasure, these pink gems.</p> <p> The more treasure you dig up, the more bonus money you’ll win! </p><br><br><p><img src='run_exp/static/images/task_images/pink_gem.jpg' height='300' width='auto'></p>",,,,,,,1,,,,,,,,,,,,,,,,,,
html-keyboard-response,8,54732,0.0-6.0-2.0,"""event"",""trial"",""time""
""fullscreenenter"",""1"",""8691""
","
","
","""event"",""trial"",""time""
""fullscreenenter"",""1"",""8691""
","
",,425.5,"<p> As a space explorer, you’ll visit different planets to dig for space treasure, these pink gems.</p> <p> The more treasure you dig up, the more bonus money you’ll win! </p><br><br><p><img src='run_exp/static/images/task_images/pink_gem.jpg' height='300' width='auto'></p><button class=""jspsych-html-btn-unchosen""><img src=""run_exp/static/images/task_images/planet-01.jpg"" height=""50""></button><button class=""jspsych-html-btn-chosen""><img src=""run_exp/static/images/task_images/planet-02.jpg"" height=""50""></button><p><b>[press the space bar to lock in your answer]<b><br></p>",32,,,,,,,,,,,,,,,,,,,,,,,,
instruc_dig,9,70768,0.0-7.0-0.0,"""event"",""trial"",""time""
""fullscreenenter"",""1"",""8691""
","
","
","""event"",""trial"",""time""
""fullscreenenter"",""1"",""8691""
","
",,null,run_exp/static/audio/clip_4_dig.m4a,null,,,,,,,100,,,,,,,,,,,,,,,,,
instruc_dig_try,10,72292,0.0-7.0-1.0,"""event"",""trial"",""time""
""fullscreenenter"",""1"",""8691""
","
","
","""event"",""trial"",""time""
""fullscreenenter"",""1"",""8691""
","
",,1521.5,"<p> When you’ve arrived at a new planet, you will dig once. </p> <p>Then, you get to decide if you want to stay on the planet and dig again or travel to a new planet and dig there.</p> <p> To stay and dig, press the letter <strong>‘A’</strong> on your keyboard. Try pressing it now! </p><p><img src='run_exp/static/images/task_images/land.jpg'  height='700' width='auto'></p>",65,"<p> When you’ve arrived at a new planet, you will dig once. </p> <p>Then, you get to decide if you want to stay on the planet and dig again or travel to a new planet and dig there.</p> <p> To stay and dig, press the letter <strong>‘A’</strong> on your keyboard. Try pressing it now! </p><p><img src='run_exp/static/images/task_images/land.jpg'  height='700' width='auto'></p>",,,,,,100,,,,,,,,,,,,,,,,,
dig_prac,11,74322,0.0-7.0-2.0,"""event"",""trial"",""time""
""fullscreenenter"",""1"",""8691""
","
","
","""event"",""trial"",""time""
""fullscreenenter"",""1"",""8691""
","
",,,,,,,,,,,,"[{""stimulus"":""run_exp/static/images/task_images/dig.jpg"",""time"":0.7000000476837158},{""stimulus"":""run_exp/static/images/task_images/land.jpg"",""time"":674.7999999523163},{""stimulus"":""run_exp/static/images/task_images/dig.jpg"",""time"":1344.7999999523163}]",[],,,,,,,,,,,,,,,
instruc_travel,12,110587,0.0-7.0-3.0,"""event"",""trial"",""time""
""fullscreenenter"",""1"",""8691""
","
","
","""event"",""trial"",""time""
""fullscreenenter"",""1"",""8691""
","
",,null,run_exp/static/audio/clip_5_travel.m4a,null,"<p>Every time you dig up gems, there are less gems on the planet, so the more you dig on a planet the fewer gems you’ll get with each dig.</p><p>When gems are running low, you may want to travel to a new planet. </p> <p>  Planets are very far apart in this galaxy, so it will take some time to travel between them. </p> <br><p>There are lots and lots of planets for you to visit, so you won’t be able to return to any planets you’ve seen before. </p><br><p>To leave this planet and travel to a new one, press the letter <strong>‘L’</strong> on your keyboard. Try pressing it now! </p><p><img src='run_exp/static/images/task_images/rocket-01.jpg'  height='600' width='auto'></p>",,,,,,,,,,,,,,,,,,,,,,,
instruc_travel_try,13,111644,0.0-7.0-4.0,"""event"",""trial"",""time""
""fullscreenenter"",""1"",""8691""
","
","
","""event"",""trial"",""time""
""fullscreenenter"",""1"",""8691""
","
",,1052.9,"<p>Every time you dig up gems, there are less gems on the planet, so the more you dig on a planet the fewer gems you’ll get with each dig.</p><p>When gems are running low, you may want to travel to a new planet. </p> <p>  Planets are very far apart in this galaxy, so it will take some time to travel between them. </p> <br><p>There are lots and lots of planets for you to visit, so you won’t be able to return to any planets you’ve seen before. </p><br><p>To leave this planet and travel to a new one, press the letter <strong>‘L’</strong> on your keyboard. Try pressing it now! </p><p><img src='run_exp/static/images/task_images/rocket-01.jpg'  height='600' width='auto'></p>",76,"<p>Every time you dig up gems, there are less gems on the planet, so the more you dig on a planet the fewer gems you’ll get with each dig.</p><p>When gems are running low, you may want to travel to a new planet. </p> <p>  Planets are very far apart in this galaxy, so it will take some time to travel between them. </p> <br><p>There are lots and lots of planets for you to visit, so you won’t be able to return to any planets you’ve seen before. </p><br><p>To leave this planet and travel to a new one, press the letter <strong>‘L’</strong> on your keyboard. Try pressing it now! </p><p><img src='run_exp/static/images/task_images/rocket-01.jpg'  height='600' width='auto'></p>",,,,,,,,,,,,,,,,,,,,,,,
travel_prac,14,121663,0.0-7.0-5.0,"""event"",""trial"",""time""
""fullscreenenter"",""1"",""8691""
","
","
","""event"",""trial"",""time""
""fullscreenenter"",""1"",""8691""
","
",,,,,,,,,,,,"[{""stimulus"":""run_exp/static/images/task_images/rocket-01.jpg"",""time"":0.5},{""stimulus"":""run_exp/static/images/task_images/rocket-02.jpg"",""time"":1114.1000000238419},{""stimulus"":""run_exp/static/images/task_images/rocket-03.jpg"",""time"":2239.5},{""stimulus"":""run_exp/static/images/task_images/rocket-04.jpg"",""time"":3336},{""stimulus"":""run_exp/static/images/task_images/rocket-05.jpg"",""time"":4449.600000023842},{""stimulus"":""run_exp/static/images/task_images/rocket-06.jpg"",""time"":5558.600000023842},{""stimulus"":""run_exp/static/images/task_images/rocket-07.jpg"",""time"":6681},{""stimulus"":""run_exp/static/images/task_images/rocket-08.jpg"",""time"":7788.700000047684},{""stimulus"":""run_exp/static/images/task_images/rocket-09.jpg"",""time"":8896}]",[],0,,,,,,,,,,,,,,
instruc_alien_greet,15,148876,0.0-7.0-6.0,"""event"",""trial"",""time""
""fullscreenenter"",""1"",""8691""
","
","
","""event"",""trial"",""time""
""fullscreenenter"",""1"",""8691""
","
",,null,run_exp/static/audio/clip_6_alien.m4a,null,"<p>When you arrive at a new planet, the alien who owns the treasure mine on that planet will greet you!</p><p>The better an alien takes care of their mine the easier it is to dig for gems. Some aliens take better care of their mine than others. So, you won’t get exactly the same amount of gems on each planet.</p><p>What the alien looks like does not tell you anything about how many gems there are on the planet.</p><br><p><img src=""run_exp/static/images/task_images/aliens/instructions_aliens/planet/alien_planet-1.jpg""  height=""600"" width=""auto""></p>",,,,,,,,,,,,,,,,,,,,,,,
instruc_alien_greet,16,152052,0.0-7.0-7.0,"""event"",""trial"",""time""
""fullscreenenter"",""1"",""8691""
","
","
","""event"",""trial"",""time""
""fullscreenenter"",""1"",""8691""
","
",,3170.5,"<p>When you arrive at a new planet, the alien who owns the treasure mine on that planet will greet you!</p><p>The better an alien takes care of their mine the easier it is to dig for gems. Some aliens take better care of their mine than others. So, you won’t get exactly the same amount of gems on each planet.</p><p>What the alien looks like does not tell you anything about how many gems there are on the planet.</p><br><p><img src=""run_exp/static/images/task_images/aliens/instructions_aliens/planet/alien_planet-1.jpg""  height=""600"" width=""auto""></p>",,,,,,,1,,,,,,,,,,,,,,,,,,
html-keyboard-response,17,152311,0.0-7.0-8.0,"""event"",""trial"",""time""
""fullscreenenter"",""1"",""8691""
","
","
","""event"",""trial"",""time""
""fullscreenenter"",""1"",""8691""
","
",,256.7,"<p>When you arrive at a new planet, the alien who owns the treasure mine on that planet will greet you!</p><p>The better an alien takes care of their mine the easier it is to dig for gems. Some aliens take better care of their mine than others. So, you won’t get exactly the same amount of gems on each planet.</p><p>What the alien looks like does not tell you anything about how many gems there are on the planet.</p><br><p><img src=""run_exp/static/images/task_images/aliens/instructions_aliens/planet/alien_planet-1.jpg""  height=""600"" width=""auto""></p><button class=""jspsych-html-btn-unchosen""><img src=""run_exp/static/images/task_images/planet-01.jpg"" height=""50""></button><button class=""jspsych-html-btn-chosen""><img src=""run_exp/static/images/task_images/planet-02.jpg"" height=""50""></button><p><b>[press the space bar to lock in your answer]<b><br></p>",32,,,,,,,,,,,,,,,,,,,,,,,,
time_out,18,163437,0.0-8.0-0.0,"""event"",""trial"",""time""
""fullscreenenter"",""1"",""8691""
","
","
","""event"",""trial"",""time""
""fullscreenenter"",""1"",""8691""
","
",,null,run_exp/static/audio/clip_7_timeout.m4a,null,"<p>If you don't make your choice fast enough, you’ll have to wait a few seconds before you can make another one.</p><p>You can’t dig for more gems or travel to new planets. You just have to sit and wait.</p><br><p><img src='run_exp/static/images/task_images/time_out.jpg'  height='600' width='auto'></p>",,,,,,,,,,,,,,,,,,,,,,,
time_out,19,164757,0.0-8.0-1.0,"""event"",""trial"",""time""
""fullscreenenter"",""1"",""8691""
","
","
","""event"",""trial"",""time""
""fullscreenenter"",""1"",""8691""
","
",,1316.1,"<p>If you don't make your choice fast enough, you’ll have to wait a few seconds before you can make another one.</p><p>You can’t dig for more gems or travel to new planets. You just have to sit and wait.</p><br><p><img src='run_exp/static/images/task_images/time_out.jpg'  height='600' width='auto'></p>",,,,,,,1,,,,,,,,,,,,,,,,,,
html-keyboard-response,20,165011,0.0-8.0-2.0,"""event"",""trial"",""time""
""fullscreenenter"",""1"",""8691""
","
","
","""event"",""trial"",""time""
""fullscreenenter"",""1"",""8691""
","
",,250.9,"<p>If you don't make your choice fast enough, you’ll have to wait a few seconds before you can make another one.</p><p>You can’t dig for more gems or travel to new planets. You just have to sit and wait.</p><br><p><img src='run_exp/static/images/task_images/time_out.jpg'  height='600' width='auto'></p><button class=""jspsych-html-btn-unchosen""><img src=""run_exp/static/images/task_images/planet-01.jpg"" height=""50""></button><button class=""jspsych-html-btn-chosen""><img src=""run_exp/static/images/task_images/planet-02.jpg"" height=""50""></button><p><b>[press the space bar to lock in your answer]<b><br></p>",32,,,,,,,,,,,,,,,,,,,,,,,,
instruc_break,21,180697,0.0-9.0-0.0,"""event"",""trial"",""time""
""fullscreenenter"",""1"",""8691""
","
","
","""event"",""trial"",""time""
""fullscreenenter"",""1"",""8691""
","
",,null,run_exp/static/audio/clip_8_break.m4a,null,"<p> After digging and traveling for a while, you’ll be able to take a break at home base. </p><p>The game will last 20 minutes no matter what.</p><p>You will visit home base every 5 minutes, so, you will visit home base three times during the game.</p><br><p><img src='run_exp/static/images/task_images/home_base.jpg' height='600' width='auto'></p>",,,,,,,,,,,,,,,,,,,,,,,
instruc_break,22,182652,0.0-9.0-1.0,"""event"",""trial"",""time""
""fullscreenenter"",""1"",""8691""
","
","
","""event"",""trial"",""time""
""fullscreenenter"",""1"",""8691""
","
",,1948.7,"<p> After digging and traveling for a while, you’ll be able to take a break at home base. </p><p>The game will last 20 minutes no matter what.</p><p>You will visit home base every 5 minutes, so, you will visit home base three times during the game.</p><br><p><img src='run_exp/static/images/task_images/home_base.jpg' height='600' width='auto'></p>",,,,,,,1,,,,,,,,,,,,,,,,,,
html-keyboard-response,23,182989,0.0-9.0-2.0,"""event"",""trial"",""time""
""fullscreenenter"",""1"",""8691""
","
","
","""event"",""trial"",""time""
""fullscreenenter"",""1"",""8691""
","
",,332.8000001,"<p> After digging and traveling for a while, you’ll be able to take a break at home base. </p><p>The game will last 20 minutes no matter what.</p><p>You will visit home base every 5 minutes, so, you will visit home base three times during the game.</p><br><p><img src='run_exp/static/images/task_images/home_base.jpg' height='600' width='auto'></p><button class=""jspsych-html-btn-unchosen""><img src=""run_exp/static/images/task_images/planet-01.jpg"" height=""50""></button><button class=""jspsych-html-btn-chosen""><img src=""run_exp/static/images/task_images/planet-02.jpg"" height=""50""></button><p><b>[press the space bar to lock in your answer]<b><br></p>",32,,,,,,,,,,,,,,,,,,,,,,,,
instruc_prac_game,24,193115,0.0-10.0-0.0,"""event"",""trial"",""time""
""fullscreenenter"",""1"",""8691""
","
","
","""event"",""trial"",""time""
""fullscreenenter"",""1"",""8691""
","
",,null,run_exp/static/audio/clip_9_practice.m4a,null,"<p> Are you ready to play a practice game? </p> <p>In this practice game, you'll be digging up barrels of gems. But, in the real game, you'll be digging up the gems themselves. </p>",,,,,,,,,,,,,,,,,,,,,,,
html-button-response,25,195252,0.0-10.0-1.0,"""event"",""trial"",""time""
""fullscreenenter"",""1"",""8691""
","
","
","""event"",""trial"",""time""
""fullscreenenter"",""1"",""8691""
","
",,2134.3,"<p> Are you ready to play a practice game? </p> <p>In this practice game, you'll be digging up barrels of gems. But, in the real game, you'll be digging up the gems themselves. </p>",,,,,,,0,,,,,,,,,,,,,,,,,,
alien_welcome_prac,26,200266,0.0-11.0-0.0,"""event"",""trial"",""time""
""fullscreenenter"",""1"",""8691""
","
","
","""event"",""trial"",""time""
""fullscreenenter"",""1"",""8691""
","
",,null,run_exp/static/images/task_images/aliens/practice_aliens/planet/alien_planet-5.jpg,null,,,,,,,,,,,,,,,,,,,,,,,,
land_prac,27,200770,0.0-11.0-1.0,"""event"",""trial"",""time""
""fullscreenenter"",""1"",""8691""
","
","
","""event"",""trial"",""time""
""fullscreenenter"",""1"",""8691""
","
",,null,run_exp/static/images/task_images/land.jpg,null,,,,,,,100,,,0,,,,,,,,,,,,,,
dig_prac,28,202785,0.0-11.0-2.0,"""event"",""trial"",""time""
""fullscreenenter"",""1"",""8691""
","
","
","""event"",""trial"",""time""
""fullscreenenter"",""1"",""8691""
","
",,,,,,,,,,,,"[{""stimulus"":""run_exp/static/images/task_images/dig.jpg"",""time"":0.30000007152557373},{""stimulus"":""run_exp/static/images/task_images/land.jpg"",""time"":669.1000000238419},{""stimulus"":""run_exp/static/images/task_images/dig.jpg"",""time"":1342.7000000476837}]",[],,,,,,,,,,,,,,,
harvest_prac,29,203791,0.0-11.0-3.0,"""event"",""trial"",""time""
""fullscreenenter"",""1"",""8691""
","
","
","""event"",""trial"",""time""
""fullscreenenter"",""1"",""8691""
","
",,null,run_exp/static/images/task_images/barrel_text.jpg,null,,,,,,,,,,,,,,,,,,,,,,,,
decision_prac,30,204581,0.0-11.0-4.0,"""event"",""trial"",""time""
""fullscreenenter"",""1"",""8691""
","
","
","""event"",""trial"",""time""
""fullscreenenter"",""1"",""8691""
","
",,788,run_exp/static/images/task_images/land.jpg,65,,,,,,,,,,,1,,,,,,,,,,,,,
dig_prac,31,206601,0.0-12.0-0.0,"""event"",""trial"",""time""
""fullscreenenter"",""1"",""8691""
","
","
","""event"",""trial"",""time""
""fullscreenenter"",""1"",""8691""
","
",,,,,,,,,,,,"[{""stimulus"":""run_exp/static/images/task_images/dig.jpg"",""time"":0.5},{""stimulus"":""run_exp/static/images/task_images/land.jpg"",""time"":672.3999999761581},{""stimulus"":""run_exp/static/images/task_images/dig.jpg"",""time"":1344}]",[],,,,,,,,,,,,,,,
harvest_prac,32,207614,0.0-12.0-1.0,"""event"",""trial"",""time""
""fullscreenenter"",""1"",""8691""
","
","
","""event"",""trial"",""time""
""fullscreenenter"",""1"",""8691""
","
",,null,run_exp/static/images/task_images/barrel_text.jpg,null,,,,,,,,,,,,,,,,,,,,,,,,
decision_prac,33,207722,0.0-12.0-2.0,"""event"",""trial"",""time""
""fullscreenenter"",""1"",""8691""
","
","
","""event"",""trial"",""time""
""fullscreenenter"",""1"",""8691""
","
",,104.4,run_exp/static/images/task_images/land.jpg,65,,,,,,,,,,,2,,,,,,,,,,,,,
dig_prac,34,209748,0.0-13.0-0.0,"""event"",""trial"",""time""
""fullscreenenter"",""1"",""8691""
","
","
","""event"",""trial"",""time""
""fullscreenenter"",""1"",""8691""
","
",,,,,,,,,,,,"[{""stimulus"":""run_exp/static/images/task_images/dig.jpg"",""time"":0.6000000238418579},{""stimulus"":""run_exp/static/images/task_images/land.jpg"",""time"":683.5},{""stimulus"":""run_exp/static/images/task_images/dig.jpg"",""time"":1342.1000000238419}]",[],,,,,,,,,,,,,,,
harvest_prac,35,210759,0.0-13.0-1.0,"""event"",""trial"",""time""
""fullscreenenter"",""1"",""8691""
","
","
","""event"",""trial"",""time""
""fullscreenenter"",""1"",""8691""
","
",,null,run_exp/static/images/task_images/barrel_text.jpg,null,,,,,,,,,,,,,,,,,,,,,,,,
decision_prac,36,211074,0.0-13.0-2.0,"""event"",""trial"",""time""
""fullscreenenter"",""1"",""8691""
","
","
","""event"",""trial"",""time""
""fullscreenenter"",""1"",""8691""
","
",,313.4,run_exp/static/images/task_images/land.jpg,65,,,,,,,,,,,3,,,,,,,,,,,,,
dig_prac,37,213088,0.0-14.0-0.0,"""event"",""trial"",""time""
""fullscreenenter"",""1"",""8691""
","
","
","""event"",""trial"",""time""
""fullscreenenter"",""1"",""8691""
","
",,,,,,,,,,,,"[{""stimulus"":""run_exp/static/images/task_images/dig.jpg"",""time"":0.3999999761581421},{""stimulus"":""run_exp/static/images/task_images/land.jpg"",""time"":679.8999999761581},{""stimulus"":""run_exp/static/images/task_images/dig.jpg"",""time"":1351.1999999284744}]",[],,,,,,,,,,,,,,,
harvest_prac,38,214098,0.0-14.0-1.0,"""event"",""trial"",""time""
""fullscreenenter"",""1"",""8691""
","
","
","""event"",""trial"",""time""
""fullscreenenter"",""1"",""8691""
","
",,null,run_exp/static/images/task_images/barrel_text.jpg,null,,,,,,,,,,,,,,,,,,,,,,,,
decision_prac,39,214762,0.0-14.0-2.0,"""event"",""trial"",""time""
""fullscreenenter"",""1"",""8691""
","
","
","""event"",""trial"",""time""
""fullscreenenter"",""1"",""8691""
","
",,662.1,run_exp/static/images/task_images/land.jpg,65,,,,,,,,,,,4,,,,,,,,,,,,,
dig_prac,40,216781,0.0-15.0-0.0,"""event"",""trial"",""time""
""fullscreenenter"",""1"",""8691""
","
","
","""event"",""trial"",""time""
""fullscreenenter"",""1"",""8691""
","
",,,,,,,,,,,,"[{""stimulus"":""run_exp/static/images/task_images/dig.jpg"",""time"":0.5999999046325684},{""stimulus"":""run_exp/static/images/task_images/land.jpg"",""time"":674.6999999284744},{""stimulus"":""run_exp/static/images/task_images/dig.jpg"",""time"":1343.5}]",[],,,,,,,,,,,,,,,
harvest_prac,41,217789,0.0-15.0-1.0,"""event"",""trial"",""time""
""fullscreenenter"",""1"",""8691""
","
","
","""event"",""trial"",""time""
""fullscreenenter"",""1"",""8691""
","
",,null,run_exp/static/images/task_images/barrel_text.jpg,null,,,,,,,,,,,,,,,,,,,,,,,,
decision_prac,42,218283,0.0-15.0-2.0,"""event"",""trial"",""time""
""fullscreenenter"",""1"",""8691""
","
","
","""event"",""trial"",""time""
""fullscreenenter"",""1"",""8691""
","
",,491.4,run_exp/static/images/task_images/land.jpg,65,,,,,,,,,,,,1,,,,,,,,,,,,
quiz_instruc,43,220714,0.0-16.0-0.0,"""event"",""trial"",""time""
""fullscreenenter"",""1"",""8691""
","
","
","""event"",""trial"",""time""
""fullscreenenter"",""1"",""8691""
","
",,2424.2,run_exp/static/audio/clip_10_quiz.m4a,,,,,,,0,,,,,,,,,,,,,,,,,,
instruc_repeat,44,263516,0.0-16.0-1.0,"""event"",""trial"",""time""
""fullscreenenter"",""1"",""8691""
","
","
","""event"",""trial"",""time""
""fullscreenenter"",""1"",""8691""
","
",,null,"<p> Are you ready to play a practice game? </p> <p>In this practice game, you'll be digging up barrels of gems. But, in the real game, you'll be digging up the gems themselves. </p>",null,"<p>In this game, your goal is to collect as many gems as you can. That’s how you will win bonus money. </p> <p>The entire game will last 20 minutes no matter how many gems you collect or how many planets you visit. </p><p>To stay on a planet and dig again, press the letter A on your keyboard. To leave for a new planet, press the letter L.</p><p>The more you dig on a planet, the fewer gems you’ll get with each dig which is why you might consider leaving for a new planet. </p><p>When you arrive at a new planet, you’ll be greeted by an alien. What the alien looks like does not tell you anything about how much treasure is on the planet. </p>",,,,,,,,,,,,,,,,,,,,,,,
instruc_repeat_continue,45,264860,0.0-16.0-2.0,"""event"",""trial"",""time""
""fullscreenenter"",""1"",""8691""
","
","
","""event"",""trial"",""time""
""fullscreenenter"",""1"",""8691""
","
",,1342.2,"<p> Are you ready to play a practice game? </p> <p>In this practice game, you'll be digging up barrels of gems. But, in the real game, you'll be digging up the gems themselves. </p>",,,,,,,0,,,,,,,,,,,,,,,,,,
quiz_q_1_ask,46,268217,0.0-16.0-3.0,"""event"",""trial"",""time""
""fullscreenenter"",""1"",""8691""
","
","
","""event"",""trial"",""time""
""fullscreenenter"",""1"",""8691""
","
",,3355,run_exp/static/audio/clip_11_q1_ask.m4a,,,,,,,2,,,,,,,,,,,,,,,,,,
quiz_q_1_fb_correct,47,272097,0.0-17.0-0.0,"""event"",""trial"",""time""
""fullscreenenter"",""1"",""8691""
","
","
","""event"",""trial"",""time""
""fullscreenenter"",""1"",""8691""
","
",,null,run_exp/static/audio/clip_12_q1_correct.m4a,null,<p>That’s correct. You win extra money by collecting more gems.</p>,,,,,,,,,,,,,,,,,,,,,,,
quiz_q_2_ask,48,273704,0.0-17.0-1.0,"""event"",""trial"",""time""
""fullscreenenter"",""1"",""8691""
","
","
","""event"",""trial"",""time""
""fullscreenenter"",""1"",""8691""
","
",,1603.1,run_exp/static/audio/clip_14_q2_ask.m4a,,,,,,,1,,,,,,,,,,,,,,,,,,
quiz_q_2_fb_correct,49,277737,0.0-18.0-0.0,"""event"",""trial"",""time""
""fullscreenenter"",""1"",""8691""
","
","
","""event"",""trial"",""time""
""fullscreenenter"",""1"",""8691""
","
",,null,run_exp/static/audio/clip_15_q2_correct.m4a,null,<p>That’s correct. The experiment is 20 minutes no matter what.</p>,,,,,,,,,,,,,,,,,,,,,,,
quiz_q_3_ask,50,280902,0.0-18.0-1.0,"""event"",""trial"",""time""
""fullscreenenter"",""1"",""8691""
","
","
","""event"",""trial"",""time""
""fullscreenenter"",""1"",""8691""
","
",,3162.3,run_exp/static/audio/clip_17_q3_ask.m4a,,,,,,,1,,,,,,,,,,,,,,,,,,
quiz_q_3_fb_correct,51,284917,0.0-19.0-0.0,"""event"",""trial"",""time""
""fullscreenenter"",""1"",""8691""
","
","
","""event"",""trial"",""time""
""fullscreenenter"",""1"",""8691""
","
",,null,run_exp/static/audio/clip_18_q3_correct.m4a,null,<p> That’s correct. You press the letter L to travel to a new planet.</p>,,,,,,,,,,,,,,,,,,,,,,,
quiz_q_4_ask,52,286667,0.0-19.0-1.0,"""event"",""trial"",""time""
""fullscreenenter"",""1"",""8691""
","
","
","""event"",""trial"",""time""
""fullscreenenter"",""1"",""8691""
","
",,1742.2,run_exp/static/audio/clip_20_q4_ask.m4a,,,,,,,0,,,,,,,,,,,,,,,,,,
quiz_q_4_fb_correct,53,291995,0.0-20.0-0.0,"""event"",""trial"",""time""
""fullscreenenter"",""1"",""8691""
","
","
","""event"",""trial"",""time""
""fullscreenenter"",""1"",""8691""
","
",,null,run_exp/static/audio/clip_21_q4_correct.m4a,null,<p> That’s correct. The more you dig on a planet the fewer gems you’ll get with each dig. </p>,,,,,,,,,,,,,,,,,,,,,,,
quiz_q_5_ask,54,293905,0.0-20.0-1.0,"""event"",""trial"",""time""
""fullscreenenter"",""1"",""8691""
","
","
","""event"",""trial"",""time""
""fullscreenenter"",""1"",""8691""
","
",,1907.5,run_exp/static/audio/clip_23_q5_ask.m4a,,,,,,,1,,,,,,,,,,,,,,,,,,
quiz_q_5_fb_correct,55,298937,0.0-21.0-0.0,"""event"",""trial"",""time""
""fullscreenenter"",""1"",""8691""
","
","
","""event"",""trial"",""time""
""fullscreenenter"",""1"",""8691""
","
",,null,run_exp/static/audio/clip_24_q5_correct.m4a,null,<p> That’s correct. The alien tells you nothing about how much treasure is on the planet.</p>,,,,,,,,,,,,,,,,,,,,,,,
quiz_correct,56,302417,0.0-22.0-0.0,"""event"",""trial"",""time""
""fullscreenenter"",""1"",""8691""
","
","
","""event"",""trial"",""time""
""fullscreenenter"",""1"",""8691""
","
",,null,run_exp/static/audio/clip_26_correct_quiz.m4a,null,,,,,,,,,,,,,,,,,,,,,,,,
quiz_correct_continue,57,302700,0.0-22.0-1.0,"""event"",""trial"",""time""
""fullscreenenter"",""1"",""8691""
","
","
","""event"",""trial"",""time""
""fullscreenenter"",""1"",""8691""
","
",,280.8,<p>Good job! You're now ready to move on to the real game!</p>,,,,,,,0,,,,,,,,,,,,,,,,,,
audio-keyboard-response,58,312817,0.0-22.0-2.0,"""event"",""trial"",""time""
""fullscreenenter"",""1"",""8691""
","
","
","""event"",""trial"",""time""
""fullscreenenter"",""1"",""8691""
","
",,null,run_exp/static/audio/clip_28_real_game.m4a,null,,,,,,,,,,,,,,,,,,,,,,,,
instruc_begin_exp_contine,59,313897,0.0-22.0-3.0,"""event"",""trial"",""time""
""fullscreenenter"",""1"",""8691""
","
","
","""event"",""trial"",""time""
""fullscreenenter"",""1"",""8691""
","
",,1077.6,"<p>Now that you know how  to dig for space treasure and travel to new planets,you can start exploring! </p><p>Do you want to go over the instructions again or get started with the real game?</p>",,,,,,,1,,,,,,1,,,,,,,,,,,,
alien_welcome,60,318910,0.0-23.0-0.0,"""event"",""trial"",""time""
""fullscreenenter"",""1"",""8691""
","
","
","""event"",""trial"",""time""
""fullscreenenter"",""1"",""8691""
","
",,null,run_exp/static/images/task_images/aliens/old_aliens/planet/alien_planet-47.jpg,null,,,,,,,,,,,,,47,"47,22,23,63,24,35,5,15,34,42,52,73,43,72,4,21,77,9,40,25,55,65,76,69,1,57,49,11,62,3,8,70,36,48,32,67,64,79,51,16,58,78,38,18,30,13,26,10,60,45",,,,,,,,,,
land,61,319423,0.0-23.0-1.0,"""event"",""trial"",""time""
""fullscreenenter"",""1"",""8691""
","
","
","""event"",""trial"",""time""
""fullscreenenter"",""1"",""8691""
","
",,null,run_exp/static/images/task_images/land.jpg,null,,,,,,,92,,,1,,,,,,,,,,,,,,
dig,62,321435,0.0-23.0-2.0,"""event"",""trial"",""time""
""fullscreenenter"",""1"",""8691""
","
","
","""event"",""trial"",""time""
""fullscreenenter"",""1"",""8691""
","
",,,,,,,,,,,,"[{""stimulus"":""run_exp/static/images/task_images/dig.jpg"",""time"":0.5},{""stimulus"":""run_exp/static/images/task_images/land.jpg"",""time"":684.3999999761581},{""stimulus"":""run_exp/static/images/task_images/dig.jpg"",""time"":1338.8000000715256}]",[],1,,,,,,,,,,,,,,
harvest,63,322449,0.0-23.0-3.0,"""event"",""trial"",""time""
""fullscreenenter"",""1"",""8691""
","
","
","""event"",""trial"",""time""
""fullscreenenter"",""1"",""8691""
","
",,null,run_exp/static/images/task_images/gems/92.jpg,null,,,,,,,19,,,1,,,,,92,0.210127154,0.206521739,,,,,,,
decision,64,322936,0.0-23.0-4.0,"""event"",""trial"",""time""
""fullscreenenter"",""1"",""8691""
","
","
","""event"",""trial"",""time""
""fullscreenenter"",""1"",""8691""
","
",,483.1,run_exp/static/images/task_images/land.jpg,65,,,,,,,19,,,1,,,,,,,,9034,1,0,FALSE,,,
dig,65,325462,0.0-24.0-0.0,"""event"",""trial"",""time""
""fullscreenenter"",""1"",""8691""
","
","
","""event"",""trial"",""time""
""fullscreenenter"",""1"",""8691""
","
",,,,,,,,,,,,"[{""stimulus"":""run_exp/static/images/task_images/dig.jpg"",""time"":0.5},{""stimulus"":""run_exp/static/images/task_images/land.jpg"",""time"":850.1000000238419},{""stimulus"":""run_exp/static/images/task_images/dig.jpg"",""time"":1692.5}]",[],1,,,,,,,,,,,,,,
harvest,66,326468,0.0-24.0-1.0,"""event"",""trial"",""time""
""fullscreenenter"",""1"",""8691""
","
","
","""event"",""trial"",""time""
""fullscreenenter"",""1"",""8691""
","
",,null,run_exp/static/images/task_images/gems/19.jpg,null,,,,,,,6,,,1,,,,,19,0.312970541,0.315789474,,,,,,,
decision,67,326887,0.0-24.0-2.0,"""event"",""trial"",""time""
""fullscreenenter"",""1"",""8691""
","
","
","""event"",""trial"",""time""
""fullscreenenter"",""1"",""8691""
","
",,416.3000001,run_exp/static/images/task_images/land.jpg,65,,,,,,,6,,,1,,,,,,,,12984,1,1,FALSE,,,
dig,68,329489,0.0-25.0-0.0,"""event"",""trial"",""time""
""fullscreenenter"",""1"",""8691""
","
","
","""event"",""trial"",""time""
""fullscreenenter"",""1"",""8691""
","
",,,,,,,,,,,,"[{""stimulus"":""run_exp/static/images/task_images/dig.jpg"",""time"":0.3999999761581421},{""stimulus"":""run_exp/static/images/task_images/land.jpg"",""time"":867},{""stimulus"":""run_exp/static/images/task_images/dig.jpg"",""time"":1737.3999999761581}]",[],1,,,,,,,,,,,,,,
harvest,69,330504,0.0-25.0-1.0,"""event"",""trial"",""time""
""fullscreenenter"",""1"",""8691""
","
","
","""event"",""trial"",""time""
""fullscreenenter"",""1"",""8691""
","
",,null,run_exp/static/images/task_images/gems/6.jpg,null,,,,,,,1,,,1,,,,,6,0.181051506,0.166666667,,,,,,,
decision,70,330510,0.0-25.0-2.0,"""event"",""trial"",""time""
""fullscreenenter"",""1"",""8691""
","
","
","""event"",""trial"",""time""
""fullscreenenter"",""1"",""8691""
","
",,2.799999952,run_exp/static/images/task_images/land.jpg,76,,,,,,,1,,,1,,,,,,,,16607,1,2,TRUE,,,
travel,71,340509,0.0-26.0-0.0,"""event"",""trial"",""time""
""fullscreenenter"",""1"",""8691""
","
","
","""event"",""trial"",""time""
""fullscreenenter"",""1"",""8691""
","
",,,,,,,,,,,,"[{""stimulus"":""run_exp/static/images/task_images/rocket-01.jpg"",""time"":0.6000000238418579},{""stimulus"":""run_exp/static/images/task_images/rocket-02.jpg"",""time"":1127},{""stimulus"":""run_exp/static/images/task_images/rocket-03.jpg"",""time"":2223.2000000476837},{""stimulus"":""run_exp/static/images/task_images/rocket-04.jpg"",""time"":3332.600000023842},{""stimulus"":""run_exp/static/images/task_images/rocket-05.jpg"",""time"":4457.799999952316},{""stimulus"":""run_exp/static/images/task_images/rocket-06.jpg"",""time"":5568.100000023842},{""stimulus"":""run_exp/static/images/task_images/rocket-07.jpg"",""time"":6668.299999952316},{""stimulus"":""run_exp/static/images/task_images/rocket-08.jpg"",""time"":7779.200000047684},{""stimulus"":""run_exp/static/images/task_images/rocket-09.jpg"",""time"":8884.600000023842}]",[],1,,,,,,,,,,,,,,
alien_welcome,72,345519,0.0-26.0-1.0,"""event"",""trial"",""time""
""fullscreenenter"",""1"",""8691""
","
","
","""event"",""trial"",""time""
""fullscreenenter"",""1"",""8691""
","
",,null,run_exp/static/images/task_images/aliens/old_aliens/planet/alien_planet-22.jpg,null,,,,,,,,,,,,,22,"47,22,23,63,24,35,5,15,34,42,52,73,43,72,4,21,77,9,40,25,55,65,76,69,1,57,49,11,62,3,8,70,36,48,32,67,64,79,51,16,58,78,38,18,30,13,26,10,60,45",,,,,,,,,,
land,73,346031,0.0-26.0-2.0,"""event"",""trial"",""time""
""fullscreenenter"",""1"",""8691""
","
","
","""event"",""trial"",""time""
""fullscreenenter"",""1"",""8691""
","
",,null,run_exp/static/images/task_images/land.jpg,null,,,,,,,99,,,2,,,,,,,,,,,,,,
dig,74,348046,0.0-26.0-3.0,"""event"",""trial"",""time""
""fullscreenenter"",""1"",""8691""
","
","
","""event"",""trial"",""time""
""fullscreenenter"",""1"",""8691""
","
",,,,,,,,,,,,"[{""stimulus"":""run_exp/static/images/task_images/dig.jpg"",""time"":0.5},{""stimulus"":""run_exp/static/images/task_images/land.jpg"",""time"":670},{""stimulus"":""run_exp/static/images/task_images/dig.jpg"",""time"":1341.8999999761581}]",[],2,,,,,,,,,,,,,,
harvest,75,349060,0.0-26.0-4.0,"""event"",""trial"",""time""
""fullscreenenter"",""1"",""8691""
","
","
","""event"",""trial"",""time""
""fullscreenenter"",""1"",""8691""
","
",,null,run_exp/static/images/task_images/gems/99.jpg,null,,,,,,,26,,,2,,,,,99,0.263046952,0.262626263,,,,,,,
decision,76,349437,0.0-26.0-5.0,"""event"",""trial"",""time""
""fullscreenenter"",""1"",""8691""
","
","
","""event"",""trial"",""time""
""fullscreenenter"",""1"",""8691""
","
",,374,run_exp/static/images/task_images/land.jpg,65,,,,,,,26,,,2,,,,,,,,35534,1,0,FALSE,,,
dig,77,352071,0.0-27.0-0.0,"""event"",""trial"",""time""
""fullscreenenter"",""1"",""8691""
","
","
","""event"",""trial"",""time""
""fullscreenenter"",""1"",""8691""
","
",,,,,,,,,,,,"[{""stimulus"":""run_exp/static/images/task_images/dig.jpg"",""time"":0.40000009536743164},{""stimulus"":""run_exp/static/images/task_images/land.jpg"",""time"":882},{""stimulus"":""run_exp/static/images/task_images/dig.jpg"",""time"":1758.6000000238419}]",[],2,,,,,,,,,,,,,,
harvest,78,353074,0.0-27.0-1.0,"""event"",""trial"",""time""
""fullscreenenter"",""1"",""8691""
","
","
","""event"",""trial"",""time""
""fullscreenenter"",""1"",""8691""
","
",,null,run_exp/static/images/task_images/gems/26.jpg,null,,,,,,,8,,,2,,,,,26,0.289372961,0.307692308,,,,,,,
decision,79,353676,0.0-27.0-2.0,"""event"",""trial"",""time""
""fullscreenenter"",""1"",""8691""
","
","
","""event"",""trial"",""time""
""fullscreenenter"",""1"",""8691""
","
",,598.6999999,run_exp/static/images/task_images/land.jpg,65,,,,,,,8,,,2,,,,,,,,39773,1,1,FALSE,,,
dig,80,356101,0.0-28.0-0.0,"""event"",""trial"",""time""
""fullscreenenter"",""1"",""8691""
","
","
","""event"",""trial"",""time""
""fullscreenenter"",""1"",""8691""
","
",,,,,,,,,,,,"[{""stimulus"":""run_exp/static/images/task_images/dig.jpg"",""time"":0.5},{""stimulus"":""run_exp/static/images/task_images/land.jpg"",""time"":813.8999999761581},{""stimulus"":""run_exp/static/images/task_images/dig.jpg"",""time"":1609}]",[],2,,,,,,,,,,,,,,
harvest,81,357108,0.0-28.0-1.0,"""event"",""trial"",""time""
""fullscreenenter"",""1"",""8691""
","
","
","""event"",""trial"",""time""
""fullscreenenter"",""1"",""8691""
","
",,null,run_exp/static/images/task_images/gems/8.jpg,null,,,,,,,1,,,2,,,,,8,0.155267069,0.125,,,,,,,
decision,82,357397,0.0-28.0-2.0,"""event"",""trial"",""time""
""fullscreenenter"",""1"",""8691""
","
","
","""event"",""trial"",""time""
""fullscreenenter"",""1"",""8691""
","
",,286.4,run_exp/static/images/task_images/land.jpg,65,,,,,,,1,,,2,,,,,,,,43494,1,2,FALSE,,,
dig,83,360119,0.0-29.0-0.0,"""event"",""trial"",""time""
""fullscreenenter"",""1"",""8691""
","
","
","""event"",""trial"",""time""
""fullscreenenter"",""1"",""8691""
","
",,,,,,,,,,,,"[{""stimulus"":""run_exp/static/images/task_images/dig.jpg"",""time"":0.5},{""stimulus"":""run_exp/static/images/task_images/land.jpg"",""time"":921.7999999523163},{""stimulus"":""run_exp/static/images/task_images/dig.jpg"",""time"":1825.2999999523163}]",[],2,,,,,,,,,,,,,,
harvest,84,361132,0.0-29.0-1.0,"""event"",""trial"",""time""
""fullscreenenter"",""1"",""8691""
","
","
","""event"",""trial"",""time""
""fullscreenenter"",""1"",""8691""
","
",,null,run_exp/static/images/task_images/gems/1.jpg,null,,,,,,,0,,,2,,,,,1,0.220377393,0,,,,,,,
decision,85,361812,0.0-29.0-2.0,"""event"",""trial"",""time""
""fullscreenenter"",""1"",""8691""
","
","
","""event"",""trial"",""time""
""fullscreenenter"",""1"",""8691""
","
",,676.5999999,run_exp/static/images/task_images/land.jpg,76,,,,,,,0,,,2,,,,,,,,47909,1,3,TRUE,,,
travel,86,371141,0.0-30.0-0.0,"""event"",""trial"",""time""
""fullscreenenter"",""1"",""8691""
","
","
","""event"",""trial"",""time""
""fullscreenenter"",""1"",""8691""
","
",,,,,,,,,,,,"[{""stimulus"":""run_exp/static/images/task_images/rocket-01.jpg"",""time"":0.6000000238418579},{""stimulus"":""run_exp/static/images/task_images/rocket-02.jpg"",""time"":1047.2000000476837},{""stimulus"":""run_exp/static/images/task_images/rocket-03.jpg"",""time"":2077.5},{""stimulus"":""run_exp/static/images/task_images/rocket-04.jpg"",""time"":3122.600000023842},{""stimulus"":""run_exp/static/images/task_images/rocket-05.jpg"",""time"":4155},{""stimulus"":""run_exp/static/images/task_images/rocket-06.jpg"",""time"":5179},{""stimulus"":""run_exp/static/images/task_images/rocket-07.jpg"",""time"":6216.100000023842},{""stimulus"":""run_exp/static/images/task_images/rocket-08.jpg"",""time"":7262.899999976158},{""stimulus"":""run_exp/static/images/task_images/rocket-09.jpg"",""time"":8295.600000023842}]",[],2,,,,,,,,,,,,,,
alien_welcome,87,376159,0.0-30.0-1.0,"""event"",""trial"",""time""
""fullscreenenter"",""1"",""8691""
","
","
","""event"",""trial"",""time""
""fullscreenenter"",""1"",""8691""
","
",,null,run_exp/static/images/task_images/aliens/old_aliens/planet/alien_planet-23.jpg,null,,,,,,,,,,,,,23,"47,22,23,63,24,35,5,15,34,42,52,73,43,72,4,21,77,9,40,25,55,65,76,69,1,57,49,11,62,3,8,70,36,48,32,67,64,79,51,16,58,78,38,18,30,13,26,10,60,45",,,,,,,,,,
land,88,376671,0.0-30.0-2.0,"""event"",""trial"",""time""
""fullscreenenter"",""1"",""8691""
","
","
","""event"",""trial"",""time""
""fullscreenenter"",""1"",""8691""
","
",,null,run_exp/static/images/task_images/land.jpg,null,,,,,,,94,,,3,,,,,,,,,,,,,,
dig,89,378681,0.0-30.0-3.0,"""event"",""trial"",""time""
""fullscreenenter"",""1"",""8691""
","
","
","""event"",""trial"",""time""
""fullscreenenter"",""1"",""8691""
","
",,,,,,,,,,,,"[{""stimulus"":""run_exp/static/images/task_images/dig.jpg"",""time"":0.6000000238418579},{""stimulus"":""run_exp/static/images/task_images/land.jpg"",""time"":681.6999999284744},{""stimulus"":""run_exp/static/images/task_images/dig.jpg"",""time"":1338.6999999284744}]",[],3,,,,,,,,,,,,,,
harvest,90,379690,0.0-30.0-4.0,"""event"",""trial"",""time""
""fullscreenenter"",""1"",""8691""
","
","
","""event"",""trial"",""time""
""fullscreenenter"",""1"",""8691""
","
",,null,run_exp/static/images/task_images/gems/94.jpg,null,,,,,,,50,,,3,,,,,94,0.526720354,0.531914894,,,,,,,
decision,91,379960,0.0-30.0-5.0,"""event"",""trial"",""time""
""fullscreenenter"",""1"",""8691""
","
","
","""event"",""trial"",""time""
""fullscreenenter"",""1"",""8691""
","
",,267.8,run_exp/static/images/task_images/land.jpg,65,,,,,,,50,,,3,,,,,,,,66057,1,0,FALSE,,,
dig,92,382710,0.0-31.0-0.0,"""event"",""trial"",""time""
""fullscreenenter"",""1"",""8691""
","
","
","""event"",""trial"",""time""
""fullscreenenter"",""1"",""8691""
","
",,,,,,,,,,,,"[{""stimulus"":""run_exp/static/images/task_images/dig.jpg"",""time"":0.3999999761581421},{""stimulus"":""run_exp/static/images/task_images/land.jpg"",""time"":923.2999999523163},{""stimulus"":""run_exp/static/images/task_images/dig.jpg"",""time"":1829.2999999523163}]",[],3,,,,,,,,,,,,,,
harvest,93,383727,0.0-31.0-1.0,"""event"",""trial"",""time""
""fullscreenenter"",""1"",""8691""
","
","
","""event"",""trial"",""time""
""fullscreenenter"",""1"",""8691""
","
",,null,run_exp/static/images/task_images/gems/50.jpg,null,,,,,,,25,,,3,,,,,50,0.49935438,0.5,,,,,,,
decision,94,383980,0.0-31.0-2.0,"""event"",""trial"",""time""
""fullscreenenter"",""1"",""8691""
","
","
","""event"",""trial"",""time""
""fullscreenenter"",""1"",""8691""
","
",,250.9,run_exp/static/images/task_images/land.jpg,65,,,,,,,25,,,3,,,,,,,,70077,1,1,FALSE,,,
dig,95,386742,0.0-32.0-0.0,"""event"",""trial"",""time""
""fullscreenenter"",""1"",""8691""
","
","
","""event"",""trial"",""time""
""fullscreenenter"",""1"",""8691""
","
",,,,,,,,,,,,"[{""stimulus"":""run_exp/static/images/task_images/dig.jpg"",""time"":0.3999999761581421},{""stimulus"":""run_exp/static/images/task_images/land.jpg"",""time"":928.8999999761581},{""stimulus"":""run_exp/static/images/task_images/dig.jpg"",""time"":1834.3999999761581}]",[],3,,,,,,,,,,,,,,
harvest,96,387757,0.0-32.0-1.0,"""event"",""trial"",""time""
""fullscreenenter"",""1"",""8691""
","
","
","""event"",""trial"",""time""
""fullscreenenter"",""1"",""8691""
","
",,null,run_exp/static/images/task_images/gems/25.jpg,null,,,,,,,13,,,3,,,,,25,0.511946966,0.52,,,,,,,
decision,97,387976,0.0-32.0-2.0,"""event"",""trial"",""time""
""fullscreenenter"",""1"",""8691""
","
","
","""event"",""trial"",""time""
""fullscreenenter"",""1"",""8691""
","
",,218.6,run_exp/static/images/task_images/land.jpg,65,,,,,,,13,,,3,,,,,,,,74073,1,2,FALSE,,,
dig,98,390770,0.0-33.0-0.0,"""event"",""trial"",""time""
""fullscreenenter"",""1"",""8691""
","
","
","""event"",""trial"",""time""
""fullscreenenter"",""1"",""8691""
","
",,,,,,,,,,,,"[{""stimulus"":""run_exp/static/images/task_images/dig.jpg"",""time"":0.3999999761581421},{""stimulus"":""run_exp/static/images/task_images/land.jpg"",""time"":935.1999999284744},{""stimulus"":""run_exp/static/images/task_images/dig.jpg"",""time"":1858.6999999284744}]",[],3,,,,,,,,,,,,,,
harvest,99,391782,0.0-33.0-1.0,"""event"",""trial"",""time""
""fullscreenenter"",""1"",""8691""
","
","
","""event"",""trial"",""time""
""fullscreenenter"",""1"",""8691""
","
",,null,run_exp/static/images/task_images/gems/13.jpg,null,,,,,,,6,,,3,,,,,13,0.476943055,0.461538462,,,,,,,
decision,100,391929,0.0-33.0-2.0,"""event"",""trial"",""time""
""fullscreenenter"",""1"",""8691""
","
","
","""event"",""trial"",""time""
""fullscreenenter"",""1"",""8691""
","
",,145.0999999,run_exp/static/images/task_images/land.jpg,65,,,,,,,6,,,3,,,,,,,,78026,1,3,FALSE,,,
dig,101,394800,0.0-34.0-0.0,"""event"",""trial"",""time""
""fullscreenenter"",""1"",""8691""
","
","
","""event"",""trial"",""time""
""fullscreenenter"",""1"",""8691""
","
",,,,,,,,,,,,"[{""stimulus"":""run_exp/static/images/task_images/dig.jpg"",""time"":0.5},{""stimulus"":""run_exp/static/images/task_images/land.jpg"",""time"":962.7000000476837},{""stimulus"":""run_exp/static/images/task_images/dig.jpg"",""time"":1914.7000000476837}]",[],3,,,,,,,,,,,,,,
harvest,102,395817,0.0-34.0-1.0,"""event"",""trial"",""time""
""fullscreenenter"",""1"",""8691""
","
","
","""event"",""trial"",""time""
""fullscreenenter"",""1"",""8691""
","
",,null,run_exp/static/images/task_images/gems/6.jpg,null,,,,,,,2,,,3,,,,,6,0.416365665,0.333333333,,,,,,,
decision,103,395997,0.0-34.0-2.0,"""event"",""trial"",""time""
""fullscreenenter"",""1"",""8691""
","
","
","""event"",""trial"",""time""
""fullscreenenter"",""1"",""8691""
","
",,177.4,run_exp/static/images/task_images/land.jpg,76,,,,,,,2,,,3,,,,,,,,82094,1,4,TRUE,,,
travel,104,405836,0.0-35.0-0.0,"""event"",""trial"",""time""
""fullscreenenter"",""1"",""8691""
","
","
","""event"",""trial"",""time""
""fullscreenenter"",""1"",""8691""
","
",,,,,,,,,,,,"[{""stimulus"":""run_exp/static/images/task_images/rocket-01.jpg"",""time"":0.5},{""stimulus"":""run_exp/static/images/task_images/rocket-02.jpg"",""time"":1108.6000000238419},{""stimulus"":""run_exp/static/images/task_images/rocket-03.jpg"",""time"":2189},{""stimulus"":""run_exp/static/images/task_images/rocket-04.jpg"",""time"":3290.100000023842},{""stimulus"":""run_exp/static/images/task_images/rocket-05.jpg"",""time"":4369.699999928474},{""stimulus"":""run_exp/static/images/task_images/rocket-06.jpg"",""time"":5462},{""stimulus"":""run_exp/static/images/task_images/rocket-07.jpg"",""time"":6553.100000023842},{""stimulus"":""run_exp/static/images/task_images/rocket-08.jpg"",""time"":7648.100000023842},{""stimulus"":""run_exp/static/images/task_images/rocket-09.jpg"",""time"":8741.299999952316}]",[],3,,,,,,,,,,,,,,
alien_welcome,105,410848,0.0-35.0-1.0,"""event"",""trial"",""time""
""fullscreenenter"",""1"",""8691""
","
","
","""event"",""trial"",""time""
""fullscreenenter"",""1"",""8691""
","
",,null,run_exp/static/images/task_images/aliens/old_aliens/planet/alien_planet-63.jpg,null,,,,,,,,,,,,,63,"47,22,23,63,24,35,5,15,34,42,52,73,43,72,4,21,77,9,40,25,55,65,76,69,1,57,49,11,62,3,8,70,36,48,32,67,64,79,51,16,58,78,38,18,30,13,26,10,60,45",,,,,,,,,,
land,106,411361,0.0-35.0-2.0,"""event"",""trial"",""time""
""fullscreenenter"",""1"",""8691""
","
","
","""event"",""trial"",""time""
""fullscreenenter"",""1"",""8691""
","
",,null,run_exp/static/images/task_images/land.jpg,null,,,,,,,103,,,4,,,,,,,,,,,,,,
dig,107,413372,0.0-35.0-3.0,"""event"",""trial"",""time""
""fullscreenenter"",""1"",""8691""
","
","
","""event"",""trial"",""time""
""fullscreenenter"",""1"",""8691""
","
",,,,,,,,,,,,"[{""stimulus"":""run_exp/static/images/task_images/dig.jpg"",""time"":0.5},{""stimulus"":""run_exp/static/images/task_images/land.jpg"",""time"":669.3999999761581},{""stimulus"":""run_exp/static/images/task_images/dig.jpg"",""time"":1339.1999999284744}]",[],4,,,,,,,,,,,,,,
harvest,108,414389,0.0-35.0-4.0,"""event"",""trial"",""time""
""fullscreenenter"",""1"",""8691""
","
","
","""event"",""trial"",""time""
""fullscreenenter"",""1"",""8691""
","
",,null,run_exp/static/images/task_images/gems/103.jpg,null,,,,,,,39,,,4,,,,,103,0.383407547,0.378640777,,,,,,,
decision,109,414758,0.0-35.0-5.0,"""event"",""trial"",""time""
""fullscreenenter"",""1"",""8691""
","
","
","""event"",""trial"",""time""
""fullscreenenter"",""1"",""8691""
","
",,366.5,run_exp/static/images/task_images/land.jpg,65,,,,,,,39,,,4,,,,,,,,100855,1,0,FALSE,,,
dig,110,417408,0.0-36.0-0.0,"""event"",""trial"",""time""
""fullscreenenter"",""1"",""8691""
","
","
","""event"",""trial"",""time""
""fullscreenenter"",""1"",""8691""
","
",,,,,,,,,,,,"[{""stimulus"":""run_exp/static/images/task_images/dig.jpg"",""time"":0.8000000715255737},{""stimulus"":""run_exp/static/images/task_images/land.jpg"",""time"":894.6000000238419},{""stimulus"":""run_exp/static/images/task_images/dig.jpg"",""time"":1770.7000000476837}]",[],4,,,,,,,,,,,,,,
harvest,111,418424,0.0-36.0-1.0,"""event"",""trial"",""time""
""fullscreenenter"",""1"",""8691""
","
","
","""event"",""trial"",""time""
""fullscreenenter"",""1"",""8691""
","
",,null,run_exp/static/images/task_images/gems/39.jpg,null,,,,,,,19,,,4,,,,,39,0.499963372,0.487179487,,,,,,,
decision,112,418807,0.0-36.0-2.0,"""event"",""trial"",""time""
""fullscreenenter"",""1"",""8691""
","
","
","""event"",""trial"",""time""
""fullscreenenter"",""1"",""8691""
","
",,381.6999999,run_exp/static/images/task_images/land.jpg,76,,,,,,,19,,,4,,,,,,,,104904,1,1,TRUE,,,
travel,113,428441,0.0-37.0-0.0,"""event"",""trial"",""time""
""fullscreenenter"",""1"",""8691""
","
","
","""event"",""trial"",""time""
""fullscreenenter"",""1"",""8691""
","
",,,,,,,,,,,,"[{""stimulus"":""run_exp/static/images/task_images/rocket-01.jpg"",""time"":0.2999999523162842},{""stimulus"":""run_exp/static/images/task_images/rocket-02.jpg"",""time"":1076},{""stimulus"":""run_exp/static/images/task_images/rocket-03.jpg"",""time"":2152.1999999284744},{""stimulus"":""run_exp/static/images/task_images/rocket-04.jpg"",""time"":3211.399999976158},{""stimulus"":""run_exp/static/images/task_images/rocket-05.jpg"",""time"":4286.899999976158},{""stimulus"":""run_exp/static/images/task_images/rocket-06.jpg"",""time"":5345},{""stimulus"":""run_exp/static/images/task_images/rocket-07.jpg"",""time"":6422},{""stimulus"":""run_exp/static/images/task_images/rocket-08.jpg"",""time"":7485.899999976158},{""stimulus"":""run_exp/static/images/task_images/rocket-09.jpg"",""time"":8556.5}]",[],4,,,,,,,,,,,,,,
alien_welcome,114,433447,0.0-37.0-1.0,"""event"",""trial"",""time""
""fullscreenenter"",""1"",""8691""
","
","
","""event"",""trial"",""time""
""fullscreenenter"",""1"",""8691""
","
",,null,run_exp/static/images/task_images/aliens/old_aliens/planet/alien_planet-24.jpg,null,,,,,,,,,,,,,24,"47,22,23,63,24,35,5,15,34,42,52,73,43,72,4,21,77,9,40,25,55,65,76,69,1,57,49,11,62,3,8,70,36,48,32,67,64,79,51,16,58,78,38,18,30,13,26,10,60,45",,,,,,,,,,
land,115,433963,0.0-37.0-2.0,"""event"",""trial"",""time""
""fullscreenenter"",""1"",""8691""
","
","
","""event"",""trial"",""time""
""fullscreenenter"",""1"",""8691""
","
",,null,run_exp/static/images/task_images/land.jpg,null,,,,,,,98,,,5,,,,,,,,,,,,,,
dig,116,435977,0.0-37.0-3.0,"""event"",""trial"",""time""
""fullscreenenter"",""1"",""8691""
","
","
","""event"",""trial"",""time""
""fullscreenenter"",""1"",""8691""
","
",,,,,,,,,,,,"[{""stimulus"":""run_exp/static/images/task_images/dig.jpg"",""time"":0.6000000238418579},{""stimulus"":""run_exp/static/images/task_images/land.jpg"",""time"":671.5},{""stimulus"":""run_exp/static/images/task_images/dig.jpg"",""time"":1341.1999999284744}]",[],5,,,,,,,,,,,,,,
harvest,117,436992,0.0-37.0-4.0,"""event"",""trial"",""time""
""fullscreenenter"",""1"",""8691""
","
","
","""event"",""trial"",""time""
""fullscreenenter"",""1"",""8691""
","
",,null,run_exp/static/images/task_images/gems/98.jpg,null,,,,,,,50,,,5,,,,,98,0.505236337,0.510204082,,,,,,,
decision,118,437227,0.0-37.0-5.0,"""event"",""trial"",""time""
""fullscreenenter"",""1"",""8691""
","
","
","""event"",""trial"",""time""
""fullscreenenter"",""1"",""8691""
","
",,232.1,run_exp/static/images/task_images/land.jpg,65,,,,,,,50,,,5,,,,,,,,123324,1,0,FALSE,,,
dig,119,440013,0.0-38.0-0.0,"""event"",""trial"",""time""
""fullscreenenter"",""1"",""8691""
","
","
","""event"",""trial"",""time""
""fullscreenenter"",""1"",""8691""
","
",,,,,,,,,,,,"[{""stimulus"":""run_exp/static/images/task_images/dig.jpg"",""time"":0.5},{""stimulus"":""run_exp/static/images/task_images/land.jpg"",""time"":927.6000000238419},{""stimulus"":""run_exp/static/images/task_images/dig.jpg"",""time"":1861.6000000238419}]",[],5,,,,,,,,,,,,,,
harvest,120,441018,0.0-38.0-1.0,"""event"",""trial"",""time""
""fullscreenenter"",""1"",""8691""
","
","
","""event"",""trial"",""time""
""fullscreenenter"",""1"",""8691""
","
",,null,run_exp/static/images/task_images/gems/50.jpg,null,,,,,,,28,,,5,,,,,50,0.559547226,0.56,,,,,,,
decision,121,441306,0.0-38.0-2.0,"""event"",""trial"",""time""
""fullscreenenter"",""1"",""8691""
","
","
","""event"",""trial"",""time""
""fullscreenenter"",""1"",""8691""
","
",,286.1,run_exp/static/images/task_images/land.jpg,65,,,,,,,28,,,5,,,,,,,,127403,1,1,FALSE,,,
dig,122,444038,0.0-39.0-0.0,"""event"",""trial"",""time""
""fullscreenenter"",""1"",""8691""
","
","
","""event"",""trial"",""time""
""fullscreenenter"",""1"",""8691""
","
",,,,,,,,,,,,"[{""stimulus"":""run_exp/static/images/task_images/dig.jpg"",""time"":0.5},{""stimulus"":""run_exp/static/images/task_images/land.jpg"",""time"":907.2000000476837},{""stimulus"":""run_exp/static/images/task_images/dig.jpg"",""time"":1825.3999999761581}]",[],5,,,,,,,,,,,,,,
harvest,123,445051,0.0-39.0-1.0,"""event"",""trial"",""time""
""fullscreenenter"",""1"",""8691""
","
","
","""event"",""trial"",""time""
""fullscreenenter"",""1"",""8691""
","
",,null,run_exp/static/images/task_images/gems/28.jpg,null,,,,,,,13,,,5,,,,,28,0.454613159,0.464285714,,,,,,,
decision,124,445388,0.0-39.0-2.0,"""event"",""trial"",""time""
""fullscreenenter"",""1"",""8691""
","
","
","""event"",""trial"",""time""
""fullscreenenter"",""1"",""8691""
","
",,334.6,run_exp/static/images/task_images/land.jpg,65,,,,,,,13,,,5,,,,,,,,131485,1,2,FALSE,,,
dig,125,448074,0.0-40.0-0.0,"""event"",""trial"",""time""
""fullscreenenter"",""1"",""8691""
","
","
","""event"",""trial"",""time""
""fullscreenenter"",""1"",""8691""
","
",,,,,,,,,,,,"[{""stimulus"":""run_exp/static/images/task_images/dig.jpg"",""time"":0.6000000238418579},{""stimulus"":""run_exp/static/images/task_images/land.jpg"",""time"":905},{""stimulus"":""run_exp/static/images/task_images/dig.jpg"",""time"":1791}]",[],5,,,,,,,,,,,,,,
harvest,126,449089,0.0-40.0-1.0,"""event"",""trial"",""time""
""fullscreenenter"",""1"",""8691""
","
","
","""event"",""trial"",""time""
""fullscreenenter"",""1"",""8691""
","
",,null,run_exp/static/images/task_images/gems/13.jpg,null,,,,,,,7,,,5,,,,,13,0.529947333,0.538461538,,,,,,,
decision,127,449127,0.0-40.0-2.0,"""event"",""trial"",""time""
""fullscreenenter"",""1"",""8691""
","
","
","""event"",""trial"",""time""
""fullscreenenter"",""1"",""8691""
","
",,35.10000002,run_exp/static/images/task_images/land.jpg,76,,,,,,,7,,,5,,,,,,,,135224,1,3,TRUE,,,
travel,128,459099,0.0-41.0-0.0,"""event"",""trial"",""time""
""fullscreenenter"",""1"",""8691""
","
","
","""event"",""trial"",""time""
""fullscreenenter"",""1"",""8691""
","
",,,,,,,,,,,,"[{""stimulus"":""run_exp/static/images/task_images/rocket-01.jpg"",""time"":0.2999999523162842},{""stimulus"":""run_exp/static/images/task_images/rocket-02.jpg"",""time"":1111.3999999761581},{""stimulus"":""run_exp/static/images/task_images/rocket-03.jpg"",""time"":2223},{""stimulus"":""run_exp/static/images/task_images/rocket-04.jpg"",""time"":3330.899999976158},{""stimulus"":""run_exp/static/images/task_images/rocket-05.jpg"",""time"":4437.700000047684},{""stimulus"":""run_exp/static/images/task_images/rocket-06.jpg"",""time"":5547.399999976158},{""stimulus"":""run_exp/static/images/task_images/rocket-07.jpg"",""time"":6659.5},{""stimulus"":""run_exp/static/images/task_images/rocket-08.jpg"",""time"":7766.600000023842},{""stimulus"":""run_exp/static/images/task_images/rocket-09.jpg"",""time"":8871.600000023842}]",[],5,,,,,,,,,,,,,,
alien_welcome,129,464116,0.0-41.0-1.0,"""event"",""trial"",""time""
""fullscreenenter"",""1"",""8691""
","
","
","""event"",""trial"",""time""
""fullscreenenter"",""1"",""8691""
","
",,null,run_exp/static/images/task_images/aliens/old_aliens/planet/alien_planet-35.jpg,null,,,,,,,,,,,,,35,"47,22,23,63,24,35,5,15,34,42,52,73,43,72,4,21,77,9,40,25,55,65,76,69,1,57,49,11,62,3,8,70,36,48,32,67,64,79,51,16,58,78,38,18,30,13,26,10,60,45",,,,,,,,,,
land,130,464631,0.0-41.0-2.0,"""event"",""trial"",""time""
""fullscreenenter"",""1"",""8691""
","
","
","""event"",""trial"",""time""
""fullscreenenter"",""1"",""8691""
","
",,null,run_exp/static/images/task_images/land.jpg,null,,,,,,,93,,,6,,,,,,,,,,,,,,
dig,131,466639,0.0-41.0-3.0,"""event"",""trial"",""time""
""fullscreenenter"",""1"",""8691""
","
","
","""event"",""trial"",""time""
""fullscreenenter"",""1"",""8691""
","
",,,,,,,,,,,,"[{""stimulus"":""run_exp/static/images/task_images/dig.jpg"",""time"":0.5},{""stimulus"":""run_exp/static/images/task_images/land.jpg"",""time"":682.7999999523163},{""stimulus"":""run_exp/static/images/task_images/dig.jpg"",""time"":1351.7999999523163}]",[],6,,,,,,,,,,,,,,
harvest,132,467656,0.0-41.0-4.0,"""event"",""trial"",""time""
""fullscreenenter"",""1"",""8691""
","
","
","""event"",""trial"",""time""
""fullscreenenter"",""1"",""8691""
","
",,null,run_exp/static/images/task_images/gems/93.jpg,null,,,,,,,78,,,6,,,,,93,0.837461767,0.838709677,,,,,,,
decision,133,468138,0.0-41.0-5.0,"""event"",""trial"",""time""
""fullscreenenter"",""1"",""8691""
","
","
","""event"",""trial"",""time""
""fullscreenenter"",""1"",""8691""
","
",,480.1999999,run_exp/static/images/task_images/land.jpg,65,,,,,,,78,,,6,,,,,,,,154236,1,0,FALSE,,,
dig,134,470681,0.0-42.0-0.0,"""event"",""trial"",""time""
""fullscreenenter"",""1"",""8691""
","
","
","""event"",""trial"",""time""
""fullscreenenter"",""1"",""8691""
","
",,,,,,,,,,,,"[{""stimulus"":""run_exp/static/images/task_images/dig.jpg"",""time"":0.3999999761581421},{""stimulus"":""run_exp/static/images/task_images/land.jpg"",""time"":849.5},{""stimulus"":""run_exp/static/images/task_images/dig.jpg"",""time"":1688.6999999284744}]",[],6,,,,,,,,,,,,,,
harvest,135,471692,0.0-42.0-1.0,"""event"",""trial"",""time""
""fullscreenenter"",""1"",""8691""
","
","
","""event"",""trial"",""time""
""fullscreenenter"",""1"",""8691""
","
",,null,run_exp/static/images/task_images/gems/78.jpg,null,,,,,,,62,,,6,,,,,78,0.797687307,0.794871795,,,,,,,
decision,136,472152,0.0-42.0-2.0,"""event"",""trial"",""time""
""fullscreenenter"",""1"",""8691""
","
","
","""event"",""trial"",""time""
""fullscreenenter"",""1"",""8691""
","
",,456.8000001,run_exp/static/images/task_images/land.jpg,65,,,,,,,62,,,6,,,,,,,,158249,1,1,FALSE,,,
dig,137,474713,0.0-43.0-0.0,"""event"",""trial"",""time""
""fullscreenenter"",""1"",""8691""
","
","
","""event"",""trial"",""time""
""fullscreenenter"",""1"",""8691""
","
",,,,,,,,,,,,"[{""stimulus"":""run_exp/static/images/task_images/dig.jpg"",""time"":0.6000000238418579},{""stimulus"":""run_exp/static/images/task_images/land.jpg"",""time"":860.3999999761581},{""stimulus"":""run_exp/static/images/task_images/dig.jpg"",""time"":1701.2999999523163}]",[],6,,,,,,,,,,,,,,
harvest,138,475728,0.0-43.0-1.0,"""event"",""trial"",""time""
""fullscreenenter"",""1"",""8691""
","
","
","""event"",""trial"",""time""
""fullscreenenter"",""1"",""8691""
","
",,null,run_exp/static/images/task_images/gems/62.jpg,null,,,,,,,46,,,6,,,,,62,0.747906639,0.741935484,,,,,,,
decision,139,476031,0.0-43.0-2.0,"""event"",""trial"",""time""
""fullscreenenter"",""1"",""8691""
","
","
","""event"",""trial"",""time""
""fullscreenenter"",""1"",""8691""
","
",,300.1,run_exp/static/images/task_images/land.jpg,65,,,,,,,46,,,6,,,,,,,,162128,1,2,FALSE,,,
dig,140,478743,0.0-44.0-0.0,"""event"",""trial"",""time""
""fullscreenenter"",""1"",""8691""
","
","
","""event"",""trial"",""time""
""fullscreenenter"",""1"",""8691""
","
",,,,,,,,,,,,"[{""stimulus"":""run_exp/static/images/task_images/dig.jpg"",""time"":0.5},{""stimulus"":""run_exp/static/images/task_images/land.jpg"",""time"":908.5},{""stimulus"":""run_exp/static/images/task_images/dig.jpg"",""time"":1813.7000000476837}]",[],6,,,,,,,,,,,,,,
harvest,141,479759,0.0-44.0-1.0,"""event"",""trial"",""time""
""fullscreenenter"",""1"",""8691""
","
","
","""event"",""trial"",""time""
""fullscreenenter"",""1"",""8691""
","
",,null,run_exp/static/images/task_images/gems/46.jpg,null,,,,,,,36,,,6,,,,,46,0.781785624,0.782608696,,,,,,,
decision,142,479989,0.0-44.0-2.0,"""event"",""trial"",""time""
""fullscreenenter"",""1"",""8691""
","
","
","""event"",""trial"",""time""
""fullscreenenter"",""1"",""8691""
","
",,227.5,run_exp/static/images/task_images/land.jpg,65,,,,,,,36,,,6,,,,,,,,166086,1,3,FALSE,,,
dig,143,482781,0.0-45.0-0.0,"""event"",""trial"",""time""
""fullscreenenter"",""1"",""8691""
","
","
","""event"",""trial"",""time""
""fullscreenenter"",""1"",""8691""
","
",,,,,,,,,,,,"[{""stimulus"":""run_exp/static/images/task_images/dig.jpg"",""time"":0.5},{""stimulus"":""run_exp/static/images/task_images/land.jpg"",""time"":932.1000000238419},{""stimulus"":""run_exp/static/images/task_images/dig.jpg"",""time"":1862.8000000715256}]",[],6,,,,,,,,,,,,,,
harvest,144,483787,0.0-45.0-1.0,"""event"",""trial"",""time""
""fullscreenenter"",""1"",""8691""
","
","
","""event"",""trial"",""time""
""fullscreenenter"",""1"",""8691""
","
",,null,run_exp/static/images/task_images/gems/36.jpg,null,,,,,,,28,,,6,,,,,36,0.768501977,0.777777778,,,,,,,
decision,145,484048,0.0-45.0-2.0,"""event"",""trial"",""time""
""fullscreenenter"",""1"",""8691""
","
","
","""event"",""trial"",""time""
""fullscreenenter"",""1"",""8691""
","
",,258.3,run_exp/static/images/task_images/land.jpg,65,,,,,,,28,,,6,,,,,,,,170145,1,4,FALSE,,,
dig,146,486803,0.0-46.0-0.0,"""event"",""trial"",""time""
""fullscreenenter"",""1"",""8691""
","
","
","""event"",""trial"",""time""
""fullscreenenter"",""1"",""8691""
","
",,,,,,,,,,,,"[{""stimulus"":""run_exp/static/images/task_images/dig.jpg"",""time"":0.40000009536743164},{""stimulus"":""run_exp/static/images/task_images/land.jpg"",""time"":920.2000000476837},{""stimulus"":""run_exp/static/images/task_images/dig.jpg"",""time"":1842}]",[],6,,,,,,,,,,,,,,
harvest,147,487816,0.0-46.0-1.0,"""event"",""trial"",""time""
""fullscreenenter"",""1"",""8691""
","
","
","""event"",""trial"",""time""
""fullscreenenter"",""1"",""8691""
","
",,null,run_exp/static/images/task_images/gems/28.jpg,null,,,,,,,23,,,6,,,,,28,0.803792448,0.821428571,,,,,,,
decision,148,487868,0.0-46.0-2.0,"""event"",""trial"",""time""
""fullscreenenter"",""1"",""8691""
","
","
","""event"",""trial"",""time""
""fullscreenenter"",""1"",""8691""
","
",,49.70000005,run_exp/static/images/task_images/land.jpg,65,,,,,,,23,,,6,,,,,,,,173965,1,5,FALSE,,,
dig,149,490839,0.0-47.0-0.0,"""event"",""trial"",""time""
""fullscreenenter"",""1"",""8691""
","
","
","""event"",""trial"",""time""
""fullscreenenter"",""1"",""8691""
","
",,,,,,,,,,,,"[{""stimulus"":""run_exp/static/images/task_images/dig.jpg"",""time"":0.3999999761581421},{""stimulus"":""run_exp/static/images/task_images/land.jpg"",""time"":988.3999999761581},{""stimulus"":""run_exp/static/images/task_images/dig.jpg"",""time"":1968.7999999523163}]",[],6,,,,,,,,,,,,,,
harvest,150,491852,0.0-47.0-1.0,"""event"",""trial"",""time""
""fullscreenenter"",""1"",""8691""
","
","
","""event"",""trial"",""time""
""fullscreenenter"",""1"",""8691""
","
",,null,run_exp/static/images/task_images/gems/23.jpg,null,,,,,,,18,,,6,,,,,23,0.782131962,0.782608696,,,,,,,
decision,151,492109,0.0-47.0-2.0,"""event"",""trial"",""time""
""fullscreenenter"",""1"",""8691""
","
","
","""event"",""trial"",""time""
""fullscreenenter"",""1"",""8691""
","
",,253.9,run_exp/static/images/task_images/land.jpg,65,,,,,,,18,,,6,,,,,,,,178206,1,6,FALSE,,,
dig,152,494869,0.0-48.0-0.0,"""event"",""trial"",""time""
""fullscreenenter"",""1"",""8691""
","
","
","""event"",""trial"",""time""
""fullscreenenter"",""1"",""8691""
","
",,,,,,,,,,,,"[{""stimulus"":""run_exp/static/images/task_images/dig.jpg"",""time"":0.5},{""stimulus"":""run_exp/static/images/task_images/land.jpg"",""time"":919.3000000715256},{""stimulus"":""run_exp/static/images/task_images/dig.jpg"",""time"":1836.2000000476837}]",[],6,,,,,,,,,,,,,,
harvest,153,495884,0.0-48.0-1.0,"""event"",""trial"",""time""
""fullscreenenter"",""1"",""8691""
","
","
","""event"",""trial"",""time""
""fullscreenenter"",""1"",""8691""
","
",,null,run_exp/static/images/task_images/gems/18.jpg,null,,,,,,,14,,,6,,,,,18,0.757611797,0.777777778,,,,,,,
decision,154,496097,0.0-48.0-2.0,"""event"",""trial"",""time""
""fullscreenenter"",""1"",""8691""
","
","
","""event"",""trial"",""time""
""fullscreenenter"",""1"",""8691""
","
",,211.5,run_exp/static/images/task_images/land.jpg,65,,,,,,,14,,,6,,,,,,,,182195,1,7,FALSE,,,
dig,155,498894,0.0-49.0-0.0,"""event"",""trial"",""time""
""fullscreenenter"",""1"",""8691""
","
","
","""event"",""trial"",""time""
""fullscreenenter"",""1"",""8691""
","
",,,,,,,,,,,,"[{""stimulus"":""run_exp/static/images/task_images/dig.jpg"",""time"":0.3999999761581421},{""stimulus"":""run_exp/static/images/task_images/land.jpg"",""time"":936.5},{""stimulus"":""run_exp/static/images/task_images/dig.jpg"",""time"":1871.7999999523163}]",[],6,,,,,,,,,,,,,,
harvest,156,499909,0.0-49.0-1.0,"""event"",""trial"",""time""
""fullscreenenter"",""1"",""8691""
","
","
","""event"",""trial"",""time""
""fullscreenenter"",""1"",""8691""
","
",,null,run_exp/static/images/task_images/gems/14.jpg,null,,,,,,,11,,,6,,,,,14,0.808257403,0.785714286,,,,,,,
decision,157,500118,0.0-49.0-2.0,"""event"",""trial"",""time""
""fullscreenenter"",""1"",""8691""
","
","
","""event"",""trial"",""time""
""fullscreenenter"",""1"",""8691""
","
",,206.4,run_exp/static/images/task_images/land.jpg,65,,,,,,,11,,,6,,,,,,,,186215,1,8,FALSE,,,
dig,158,502933,0.0-50.0-0.0,"""event"",""trial"",""time""
""fullscreenenter"",""1"",""8691""
","
","
","""event"",""trial"",""time""
""fullscreenenter"",""1"",""8691""
","
",,,,,,,,,,,,"[{""stimulus"":""run_exp/static/images/task_images/dig.jpg"",""time"":0.5},{""stimulus"":""run_exp/static/images/task_images/land.jpg"",""time"":938.5},{""stimulus"":""run_exp/static/images/task_images/dig.jpg"",""time"":1876.5}]",[],6,,,,,,,,,,,,,,
harvest,159,503947,0.0-50.0-1.0,"""event"",""trial"",""time""
""fullscreenenter"",""1"",""8691""
","
","
","""event"",""trial"",""time""
""fullscreenenter"",""1"",""8691""
","
",,null,run_exp/static/images/task_images/gems/11.jpg,null,,,,,,,9,,,6,,,,,11,0.82811475,0.818181818,,,,,,,
decision,160,504172,0.0-50.0-2.0,"""event"",""trial"",""time""
""fullscreenenter"",""1"",""8691""
","
","
","""event"",""trial"",""time""
""fullscreenenter"",""1"",""8691""
","
",,222.3,run_exp/static/images/task_images/land.jpg,65,,,,,,,9,,,6,,,,,,,,190269,1,9,FALSE,,,
dig,161,506959,0.0-51.0-0.0,"""event"",""trial"",""time""
""fullscreenenter"",""1"",""8691""
","
","
","""event"",""trial"",""time""
""fullscreenenter"",""1"",""8691""
","
",,,,,,,,,,,,"[{""stimulus"":""run_exp/static/images/task_images/dig.jpg"",""time"":0.3999999761581421},{""stimulus"":""run_exp/static/images/task_images/land.jpg"",""time"":937.5},{""stimulus"":""run_exp/static/images/task_images/dig.jpg"",""time"":1860}]",[],6,,,,,,,,,,,,,,
harvest,162,507969,0.0-51.0-1.0,"""event"",""trial"",""time""
""fullscreenenter"",""1"",""8691""
","
","
","""event"",""trial"",""time""
""fullscreenenter"",""1"",""8691""
","
",,null,run_exp/static/images/task_images/gems/9.jpg,null,,,,,,,7,,,6,,,,,9,0.830058995,0.777777778,,,,,,,
decision,163,508187,0.0-51.0-2.0,"""event"",""trial"",""time""
""fullscreenenter"",""1"",""8691""
","
","
","""event"",""trial"",""time""
""fullscreenenter"",""1"",""8691""
","
",,216.8,run_exp/static/images/task_images/land.jpg,65,,,,,,,7,,,6,,,,,,,,194285,1,10,FALSE,,,
dig,164,510982,0.0-52.0-0.0,"""event"",""trial"",""time""
""fullscreenenter"",""1"",""8691""
","
","
","""event"",""trial"",""time""
""fullscreenenter"",""1"",""8691""
","
",,,,,,,,,,,,"[{""stimulus"":""run_exp/static/images/task_images/dig.jpg"",""time"":0.2999999523162842},{""stimulus"":""run_exp/static/images/task_images/land.jpg"",""time"":943.5999999046326},{""stimulus"":""run_exp/static/images/task_images/dig.jpg"",""time"":1865.8999999761581}]",[],6,,,,,,,,,,,,,,
harvest,165,511996,0.0-52.0-1.0,"""event"",""trial"",""time""
""fullscreenenter"",""1"",""8691""
","
","
","""event"",""trial"",""time""
""fullscreenenter"",""1"",""8691""
","
",,null,run_exp/static/images/task_images/gems/7.jpg,null,,,,,,,5,,,6,,,,,7,0.759769245,0.714285714,,,,,,,
decision,166,512238,0.0-52.0-2.0,"""event"",""trial"",""time""
""fullscreenenter"",""1"",""8691""
","
","
","""event"",""trial"",""time""
""fullscreenenter"",""1"",""8691""
","
",,238.7,run_exp/static/images/task_images/land.jpg,65,,,,,,,5,,,6,,,,,,,,198335,1,11,FALSE,,,
dig,167,515010,0.0-53.0-0.0,"""event"",""trial"",""time""
""fullscreenenter"",""1"",""8691""
","
","
","""event"",""trial"",""time""
""fullscreenenter"",""1"",""8691""
","
",,,,,,,,,,,,"[{""stimulus"":""run_exp/static/images/task_images/dig.jpg"",""time"":0.5},{""stimulus"":""run_exp/static/images/task_images/land.jpg"",""time"":924.1999999284744},{""stimulus"":""run_exp/static/images/task_images/dig.jpg"",""time"":1846.6000000238419}]",[],6,,,,,,,,,,,,,,
harvest,168,516026,0.0-53.0-1.0,"""event"",""trial"",""time""
""fullscreenenter"",""1"",""8691""
","
","
","""event"",""trial"",""time""
""fullscreenenter"",""1"",""8691""
","
",,null,run_exp/static/images/task_images/gems/5.jpg,null,,,,,,,4,,,6,,,,,5,0.724845353,0.8,,,,,,,
decision,169,516148,0.0-53.0-2.0,"""event"",""trial"",""time""
""fullscreenenter"",""1"",""8691""
","
","
","""event"",""trial"",""time""
""fullscreenenter"",""1"",""8691""
","
",,119.3000001,run_exp/static/images/task_images/land.jpg,65,,,,,,,4,,,6,,,,,,,,202245,1,12,FALSE,,,
dig,170,519038,0.0-54.0-0.0,"""event"",""trial"",""time""
""fullscreenenter"",""1"",""8691""
","
","
","""event"",""trial"",""time""
""fullscreenenter"",""1"",""8691""
","
",,,,,,,,,,,,"[{""stimulus"":""run_exp/static/images/task_images/dig.jpg"",""time"":0.5},{""stimulus"":""run_exp/static/images/task_images/land.jpg"",""time"":977.8999999761581},{""stimulus"":""run_exp/static/images/task_images/dig.jpg"",""time"":1932.8999999761581}]",[],6,,,,,,,,,,,,,,
harvest,171,520054,0.0-54.0-1.0,"""event"",""trial"",""time""
""fullscreenenter"",""1"",""8691""
","
","
","""event"",""trial"",""time""
""fullscreenenter"",""1"",""8691""
","
",,null,run_exp/static/images/task_images/gems/4.jpg,null,,,,,,,3,,,6,,,,,4,0.784385391,0.75,,,,,,,
decision,172,520279,0.0-54.0-2.0,"""event"",""trial"",""time""
""fullscreenenter"",""1"",""8691""
","
","
","""event"",""trial"",""time""
""fullscreenenter"",""1"",""8691""
","
",,223.1999999,run_exp/static/images/task_images/land.jpg,65,,,,,,,3,,,6,,,,,,,,206377,1,13,FALSE,,,
dig,173,523075,0.0-55.0-0.0,"""event"",""trial"",""time""
""fullscreenenter"",""1"",""8691""
","
","
","""event"",""trial"",""time""
""fullscreenenter"",""1"",""8691""
","
",,,,,,,,,,,,"[{""stimulus"":""run_exp/static/images/task_images/dig.jpg"",""time"":0.5},{""stimulus"":""run_exp/static/images/task_images/land.jpg"",""time"":935.3999999761581},{""stimulus"":""run_exp/static/images/task_images/dig.jpg"",""time"":1854.1000000238419}]",[],6,,,,,,,,,,,,,,
harvest,174,524089,0.0-55.0-1.0,"""event"",""trial"",""time""
""fullscreenenter"",""1"",""8691""
","
","
","""event"",""trial"",""time""
""fullscreenenter"",""1"",""8691""
","
",,null,run_exp/static/images/task_images/gems/3.jpg,null,,,,,,,3,,,6,,,,,3,0.857750423,1,,,,,,,
decision,175,524127,0.0-55.0-2.0,"""event"",""trial"",""time""
""fullscreenenter"",""1"",""8691""
","
","
","""event"",""trial"",""time""
""fullscreenenter"",""1"",""8691""
","
",,36.39999998,run_exp/static/images/task_images/land.jpg,65,,,,,,,3,,,6,,,,,,,,210225,1,14,FALSE,,,
dig,176,527100,0.0-56.0-0.0,"""event"",""trial"",""time""
""fullscreenenter"",""1"",""8691""
","
","
","""event"",""trial"",""time""
""fullscreenenter"",""1"",""8691""
","
",,,,,,,,,,,,"[{""stimulus"":""run_exp/static/images/task_images/dig.jpg"",""time"":0.5},{""stimulus"":""run_exp/static/images/task_images/land.jpg"",""time"":1003.4000000953674},{""stimulus"":""run_exp/static/images/task_images/dig.jpg"",""time"":1985.3000000715256}]",[],6,,,,,,,,,,,,,,
harvest,177,528115,0.0-56.0-1.0,"""event"",""trial"",""time""
""fullscreenenter"",""1"",""8691""
","
","
","""event"",""trial"",""time""
""fullscreenenter"",""1"",""8691""
","
",,null,run_exp/static/images/task_images/gems/3.jpg,null,,,,,,,2,,,6,,,,,3,0.789923368,0.666666667,,,,,,,
decision,178,528680,0.0-56.0-2.0,"""event"",""trial"",""time""
""fullscreenenter"",""1"",""8691""
","
","
","""event"",""trial"",""time""
""fullscreenenter"",""1"",""8691""
","
",,562.3,run_exp/static/images/task_images/land.jpg,65,,,,,,,2,,,6,,,,,,,,214777,1,15,FALSE,,,
dig,179,531127,0.0-57.0-0.0,"""event"",""trial"",""time""
""fullscreenenter"",""1"",""8691""
","
","
","""event"",""trial"",""time""
""fullscreenenter"",""1"",""8691""
","
",,,,,,,,,,,,"[{""stimulus"":""run_exp/static/images/task_images/dig.jpg"",""time"":0.5},{""stimulus"":""run_exp/static/images/task_images/land.jpg"",""time"":820},{""stimulus"":""run_exp/static/images/task_images/dig.jpg"",""time"":1631}]",[],6,,,,,,,,,,,,,,
harvest,180,532131,0.0-57.0-1.0,"""event"",""trial"",""time""
""fullscreenenter"",""1"",""8691""
","
","
","""event"",""trial"",""time""
""fullscreenenter"",""1"",""8691""
","
",,null,run_exp/static/images/task_images/gems/2.jpg,null,,,,,,,2,,,6,,,,,2,0.77752667,1,,,,,,,
decision,181,532390,0.0-57.0-2.0,"""event"",""trial"",""time""
""fullscreenenter"",""1"",""8691""
","
","
","""event"",""trial"",""time""
""fullscreenenter"",""1"",""8691""
","
",,255.5999999,run_exp/static/images/task_images/land.jpg,65,,,,,,,2,,,6,,,,,,,,218487,1,16,FALSE,,,
dig,182,535151,0.0-58.0-0.0,"""event"",""trial"",""time""
""fullscreenenter"",""1"",""8691""
","
","
","""event"",""trial"",""time""
""fullscreenenter"",""1"",""8691""
","
",,,,,,,,,,,,"[{""stimulus"":""run_exp/static/images/task_images/dig.jpg"",""time"":0.5},{""stimulus"":""run_exp/static/images/task_images/land.jpg"",""time"":918.8000000715256},{""stimulus"":""run_exp/static/images/task_images/dig.jpg"",""time"":1838.5}]",[],6,,,,,,,,,,,,,,
harvest,183,536163,0.0-58.0-1.0,"""event"",""trial"",""time""
""fullscreenenter"",""1"",""8691""
","
","
","""event"",""trial"",""time""
""fullscreenenter"",""1"",""8691""
","
",,null,run_exp/static/images/task_images/gems/2.jpg,null,,,,,,,2,,,6,,,,,2,0.764535633,1,,,,,,,
decision,184,536337,0.0-58.0-2.0,"""event"",""trial"",""time""
""fullscreenenter"",""1"",""8691""
","
","
","""event"",""trial"",""time""
""fullscreenenter"",""1"",""8691""
","
",,171.3,run_exp/static/images/task_images/land.jpg,65,,,,,,,0,,,6,,,,,,,,222435,1,17,FALSE,,,
dig,185,539186,0.0-59.0-0.0,"""event"",""trial"",""time""
""fullscreenenter"",""1"",""8691""
","
","
","""event"",""trial"",""time""
""fullscreenenter"",""1"",""8691""
","
",,,,,,,,,,,,"[{""stimulus"":""run_exp/static/images/task_images/dig.jpg"",""time"":0.5},{""stimulus"":""run_exp/static/images/task_images/land.jpg"",""time"":953},{""stimulus"":""run_exp/static/images/task_images/dig.jpg"",""time"":1887.1999999284744}]",[],6,,,,,,,,,,,,,,
harvest,186,540189,0.0-59.0-1.0,"""event"",""trial"",""time""
""fullscreenenter"",""1"",""8691""
","
","
","""event"",""trial"",""time""
""fullscreenenter"",""1"",""8691""
","
",,null,run_exp/static/images/task_images/gems/0.jpg,null,,,,,,,0,,,6,,,,,0,0.863688697,NaN,,,,,,,
decision,187,541020,0.0-59.0-2.0,"""event"",""trial"",""time""
""fullscreenenter"",""1"",""8691""
","
","
","""event"",""trial"",""time""
""fullscreenenter"",""1"",""8691""
","
",,828.4,run_exp/static/images/task_images/land.jpg,76,,,,,,,0,,,6,,,,,,,,227117,1,18,TRUE,,,
travel,188,550204,0.0-60.0-0.0,"""event"",""trial"",""time""
""fullscreenenter"",""1"",""8691""
","
","
","""event"",""trial"",""time""
""fullscreenenter"",""1"",""8691""
","
",,,,,,,,,,,,"[{""stimulus"":""run_exp/static/images/task_images/rocket-01.jpg"",""time"":0.3999999761581421},{""stimulus"":""run_exp/static/images/task_images/rocket-02.jpg"",""time"":1028.8999999761581},{""stimulus"":""run_exp/static/images/task_images/rocket-03.jpg"",""time"":2043.2999999523163},{""stimulus"":""run_exp/static/images/task_images/rocket-04.jpg"",""time"":3073.2999999523163},{""stimulus"":""run_exp/static/images/task_images/rocket-05.jpg"",""time"":4087.600000023842},{""stimulus"":""run_exp/static/images/task_images/rocket-06.jpg"",""time"":5104.799999952316},{""stimulus"":""run_exp/static/images/task_images/rocket-07.jpg"",""time"":6119.200000047684},{""stimulus"":""run_exp/static/images/task_images/rocket-08.jpg"",""time"":7149.899999976158},{""stimulus"":""run_exp/static/images/task_images/rocket-09.jpg"",""time"":8163.799999952316}]",[],6,,,,,,,,,,,,,,
alien_welcome,189,555211,0.0-60.0-1.0,"""event"",""trial"",""time""
""fullscreenenter"",""1"",""8691""
","
","
","""event"",""trial"",""time""
""fullscreenenter"",""1"",""8691""
","
",,null,run_exp/static/images/task_images/aliens/old_aliens/planet/alien_planet-5.jpg,null,,,,,,,,,,,,,5,"47,22,23,63,24,35,5,15,34,42,52,73,43,72,4,21,77,9,40,25,55,65,76,69,1,57,49,11,62,3,8,70,36,48,32,67,64,79,51,16,58,78,38,18,30,13,26,10,60,45",,,,,,,,,,
land,190,555729,0.0-60.0-2.0,"""event"",""trial"",""time""
""fullscreenenter"",""1"",""8691""
","
","
","""event"",""trial"",""time""
""fullscreenenter"",""1"",""8691""
","
",,null,run_exp/static/images/task_images/land.jpg,null,,,,,,,92,,,7,,,,,,,,,,,,,,
dig,191,557740,0.0-60.0-3.0,"""event"",""trial"",""time""
""fullscreenenter"",""1"",""8691""
","
","
","""event"",""trial"",""time""
""fullscreenenter"",""1"",""8691""
","
",,,,,,,,,,,,"[{""stimulus"":""run_exp/static/images/task_images/dig.jpg"",""time"":0.5999999046325684},{""stimulus"":""run_exp/static/images/task_images/land.jpg"",""time"":669.7999999523163},{""stimulus"":""run_exp/static/images/task_images/dig.jpg"",""time"":1336.1999999284744}]",[],7,,,,,,,,,,,,,,
harvest,192,558757,0.0-60.0-4.0,"""event"",""trial"",""time""
""fullscreenenter"",""1"",""8691""
","
","
","""event"",""trial"",""time""
""fullscreenenter"",""1"",""8691""
","
",,null,run_exp/static/images/task_images/gems/92.jpg,null,,,,,,,81,,,7,,,,,92,0.884374015,0.880434783,,,,,,,
decision,193,559028,0.0-60.0-5.0,"""event"",""trial"",""time""
""fullscreenenter"",""1"",""8691""
","
","
","""event"",""trial"",""time""
""fullscreenenter"",""1"",""8691""
","
",,269.9000001,run_exp/static/images/task_images/land.jpg,65,,,,,,,81,,,7,,,,,,,,245126,1,0,FALSE,,,
dig,194,561781,0.0-61.0-0.0,"""event"",""trial"",""time""
""fullscreenenter"",""1"",""8691""
","
","
","""event"",""trial"",""time""
""fullscreenenter"",""1"",""8691""
","
",,,,,,,,,,,,"[{""stimulus"":""run_exp/static/images/task_images/dig.jpg"",""time"":0.3999999761581421},{""stimulus"":""run_exp/static/images/task_images/land.jpg"",""time"":924.2000000476837},{""stimulus"":""run_exp/static/images/task_images/dig.jpg"",""time"":1828.8000000715256}]",[],7,,,,,,,,,,,,,,
harvest,195,562793,0.0-61.0-1.0,"""event"",""trial"",""time""
""fullscreenenter"",""1"",""8691""
","
","
","""event"",""trial"",""time""
""fullscreenenter"",""1"",""8691""
","
",,null,run_exp/static/images/task_images/gems/81.jpg,null,,,,,,,56,,,7,,,,,81,0.689429055,0.691358025,,,,,,,
decision,196,563048,0.0-61.0-2.0,"""event"",""trial"",""time""
""fullscreenenter"",""1"",""8691""
","
","
","""event"",""trial"",""time""
""fullscreenenter"",""1"",""8691""
","
",,252.7,run_exp/static/images/task_images/land.jpg,65,,,,,,,56,,,7,,,,,,,,249146,1,1,FALSE,,,
dig,197,565807,0.0-62.0-0.0,"""event"",""trial"",""time""
""fullscreenenter"",""1"",""8691""
","
","
","""event"",""trial"",""time""
""fullscreenenter"",""1"",""8691""
","
",,,,,,,,,,,,"[{""stimulus"":""run_exp/static/images/task_images/dig.jpg"",""time"":0.8000000715255737},{""stimulus"":""run_exp/static/images/task_images/land.jpg"",""time"":921.7000000476837},{""stimulus"":""run_exp/static/images/task_images/dig.jpg"",""time"":1847.3000000715256}]",[],7,,,,,,,,,,,,,,
harvest,198,566823,0.0-62.0-1.0,"""event"",""trial"",""time""
""fullscreenenter"",""1"",""8691""
","
","
","""event"",""trial"",""time""
""fullscreenenter"",""1"",""8691""
","
",,null,run_exp/static/images/task_images/gems/56.jpg,null,,,,,,,43,,,7,,,,,56,0.759061748,0.767857143,,,,,,,
decision,199,567079,0.0-62.0-2.0,"""event"",""trial"",""time""
""fullscreenenter"",""1"",""8691""
","
","
","""event"",""trial"",""time""
""fullscreenenter"",""1"",""8691""
","
",,253.8,run_exp/static/images/task_images/land.jpg,65,,,,,,,43,,,7,,,,,,,,253177,1,2,FALSE,,,
dig,200,569851,0.0-63.0-0.0,"""event"",""trial"",""time""
""fullscreenenter"",""1"",""8691""
","
","
","""event"",""trial"",""time""
""fullscreenenter"",""1"",""8691""
","
",,,,,,,,,,,,"[{""stimulus"":""run_exp/static/images/task_images/dig.jpg"",""time"":0.6000000238418579},{""stimulus"":""run_exp/static/images/task_images/land.jpg"",""time"":922},{""stimulus"":""run_exp/static/images/task_images/dig.jpg"",""time"":1837.5}]",[],7,,,,,,,,,,,,,,
harvest,201,570864,0.0-63.0-1.0,"""event"",""trial"",""time""
""fullscreenenter"",""1"",""8691""
","
","
","""event"",""trial"",""time""
""fullscreenenter"",""1"",""8691""
","
",,null,run_exp/static/images/task_images/gems/43.jpg,null,,,,,,,33,,,7,,,,,43,0.769516155,0.76744186,,,,,,,
decision,202,571129,0.0-63.0-2.0,"""event"",""trial"",""time""
""fullscreenenter"",""1"",""8691""
","
","
","""event"",""trial"",""time""
""fullscreenenter"",""1"",""8691""
","
",,262.5,run_exp/static/images/task_images/land.jpg,65,,,,,,,33,,,7,,,,,,,,257227,1,3,FALSE,,,
dig,203,573883,0.0-64.0-0.0,"""event"",""trial"",""time""
""fullscreenenter"",""1"",""8691""
","
","
","""event"",""trial"",""time""
""fullscreenenter"",""1"",""8691""
","
",,,,,,,,,,,,"[{""stimulus"":""run_exp/static/images/task_images/dig.jpg"",""time"":0.5},{""stimulus"":""run_exp/static/images/task_images/land.jpg"",""time"":926.2999999523163},{""stimulus"":""run_exp/static/images/task_images/dig.jpg"",""time"":1829.5999999046326}]",[],7,,,,,,,,,,,,,,
harvest,204,574895,0.0-64.0-1.0,"""event"",""trial"",""time""
""fullscreenenter"",""1"",""8691""
","
","
","""event"",""trial"",""time""
""fullscreenenter"",""1"",""8691""
","
",,null,run_exp/static/images/task_images/gems/33.jpg,null,,,,,,,26,,,7,,,,,33,0.793929247,0.787878788,,,,,,,
decision,205,575129,0.0-64.0-2.0,"""event"",""trial"",""time""
""fullscreenenter"",""1"",""8691""
","
","
","""event"",""trial"",""time""
""fullscreenenter"",""1"",""8691""
","
",,230.9,run_exp/static/images/task_images/land.jpg,65,,,,,,,26,,,7,,,,,,,,261226,1,4,FALSE,,,
dig,206,577922,0.0-65.0-0.0,"""event"",""trial"",""time""
""fullscreenenter"",""1"",""8691""
","
","
","""event"",""trial"",""time""
""fullscreenenter"",""1"",""8691""
","
",,,,,,,,,,,,"[{""stimulus"":""run_exp/static/images/task_images/dig.jpg"",""time"":0.5},{""stimulus"":""run_exp/static/images/task_images/land.jpg"",""time"":930.3999999761581},{""stimulus"":""run_exp/static/images/task_images/dig.jpg"",""time"":1853.6000000238419}]",[],7,,,,,,,,,,,,,,
harvest,207,578935,0.0-65.0-1.0,"""event"",""trial"",""time""
""fullscreenenter"",""1"",""8691""
","
","
","""event"",""trial"",""time""
""fullscreenenter"",""1"",""8691""
","
",,null,run_exp/static/images/task_images/gems/26.jpg,null,,,,,,,20,,,7,,,,,26,0.784390726,0.769230769,,,,,,,
decision,208,579130,0.0-65.0-2.0,"""event"",""trial"",""time""
""fullscreenenter"",""1"",""8691""
","
","
","""event"",""trial"",""time""
""fullscreenenter"",""1"",""8691""
","
",,193,run_exp/static/images/task_images/land.jpg,65,,,,,,,20,,,7,,,,,,,,265227,1,5,FALSE,,,
dig,209,581947,0.0-66.0-0.0,"""event"",""trial"",""time""
""fullscreenenter"",""1"",""8691""
","
","
","""event"",""trial"",""time""
""fullscreenenter"",""1"",""8691""
","
",,,,,,,,,,,,"[{""stimulus"":""run_exp/static/images/task_images/dig.jpg"",""time"":0.3999999761581421},{""stimulus"":""run_exp/static/images/task_images/land.jpg"",""time"":938.3999999761581},{""stimulus"":""run_exp/static/images/task_images/dig.jpg"",""time"":1874.3999999761581}]",[],7,,,,,,,,,,,,,,
harvest,210,582954,0.0-66.0-1.0,"""event"",""trial"",""time""
""fullscreenenter"",""1"",""8691""
","
","
","""event"",""trial"",""time""
""fullscreenenter"",""1"",""8691""
","
",,null,run_exp/static/images/task_images/gems/20.jpg,null,,,,,,,14,,,7,,,,,20,0.709239041,0.7,,,,,,,
decision,211,583199,0.0-66.0-2.0,"""event"",""trial"",""time""
""fullscreenenter"",""1"",""8691""
","
","
","""event"",""trial"",""time""
""fullscreenenter"",""1"",""8691""
","
",,242.8,run_exp/static/images/task_images/land.jpg,65,,,,,,,14,,,7,,,,,,,,269296,1,6,FALSE,,,
dig,212,585980,0.0-67.0-0.0,"""event"",""trial"",""time""
""fullscreenenter"",""1"",""8691""
","
","
","""event"",""trial"",""time""
""fullscreenenter"",""1"",""8691""
","
",,,,,,,,,,,,"[{""stimulus"":""run_exp/static/images/task_images/dig.jpg"",""time"":0.5},{""stimulus"":""run_exp/static/images/task_images/land.jpg"",""time"":931.5999999046326},{""stimulus"":""run_exp/static/images/task_images/dig.jpg"",""time"":1854}]",[],7,,,,,,,,,,,,,,
harvest,213,586991,0.0-67.0-1.0,"""event"",""trial"",""time""
""fullscreenenter"",""1"",""8691""
","
","
","""event"",""trial"",""time""
""fullscreenenter"",""1"",""8691""
","
",,null,run_exp/static/images/task_images/gems/14.jpg,null,,,,,,,12,,,7,,,,,14,0.837310545,0.857142857,,,,,,,
decision,214,587212,0.0-67.0-2.0,"""event"",""trial"",""time""
""fullscreenenter"",""1"",""8691""
","
","
","""event"",""trial"",""time""
""fullscreenenter"",""1"",""8691""
","
",,218.3000001,run_exp/static/images/task_images/land.jpg,65,,,,,,,12,,,7,,,,,,,,273309,1,7,FALSE,,,
dig,215,590017,0.0-68.0-0.0,"""event"",""trial"",""time""
""fullscreenenter"",""1"",""8691""
","
","
","""event"",""trial"",""time""
""fullscreenenter"",""1"",""8691""
","
",,,,,,,,,,,,"[{""stimulus"":""run_exp/static/images/task_images/dig.jpg"",""time"":0.5},{""stimulus"":""run_exp/static/images/task_images/land.jpg"",""time"":944.4000000953674},{""stimulus"":""run_exp/static/images/task_images/dig.jpg"",""time"":1861.4000000953674}]",[],7,,,,,,,,,,,,,,
harvest,216,591030,0.0-68.0-1.0,"""event"",""trial"",""time""
""fullscreenenter"",""1"",""8691""
","
","
","""event"",""trial"",""time""
""fullscreenenter"",""1"",""8691""
","
",,null,run_exp/static/images/task_images/gems/12.jpg,null,,,,,,,10,,,7,,,,,12,0.822049479,0.833333333,,,,,,,
decision,217,591300,0.0-68.0-2.0,"""event"",""trial"",""time""
""fullscreenenter"",""1"",""8691""
","
","
","""event"",""trial"",""time""
""fullscreenenter"",""1"",""8691""
","
",,268,run_exp/static/images/task_images/land.jpg,65,,,,,,,10,,,7,,,,,,,,277397,1,8,FALSE,,,
dig,218,594043,0.0-69.0-0.0,"""event"",""trial"",""time""
""fullscreenenter"",""1"",""8691""
","
","
","""event"",""trial"",""time""
""fullscreenenter"",""1"",""8691""
","
",,,,,,,,,,,,"[{""stimulus"":""run_exp/static/images/task_images/dig.jpg"",""time"":0.5},{""stimulus"":""run_exp/static/images/task_images/land.jpg"",""time"":912.6000000238419},{""stimulus"":""run_exp/static/images/task_images/dig.jpg"",""time"":1832.2000000476837}]",[],7,,,,,,,,,,,,,,
harvest,219,595058,0.0-69.0-1.0,"""event"",""trial"",""time""
""fullscreenenter"",""1"",""8691""
","
","
","""event"",""trial"",""time""
""fullscreenenter"",""1"",""8691""
","
",,null,run_exp/static/images/task_images/gems/10.jpg,null,,,,,,,8,,,7,,,,,10,0.799872531,0.8,,,,,,,
decision,220,595309,0.0-69.0-2.0,"""event"",""trial"",""time""
""fullscreenenter"",""1"",""8691""
","
","
","""event"",""trial"",""time""
""fullscreenenter"",""1"",""8691""
","
",,248.7,run_exp/static/images/task_images/land.jpg,65,,,,,,,8,,,7,,,,,,,,281406,1,9,FALSE,,,
dig,221,598081,0.0-70.0-0.0,"""event"",""trial"",""time""
""fullscreenenter"",""1"",""8691""
","
","
","""event"",""trial"",""time""
""fullscreenenter"",""1"",""8691""
","
",,,,,,,,,,,,"[{""stimulus"":""run_exp/static/images/task_images/dig.jpg"",""time"":0.5},{""stimulus"":""run_exp/static/images/task_images/land.jpg"",""time"":926.2000000476837},{""stimulus"":""run_exp/static/images/task_images/dig.jpg"",""time"":1846.6000000238419}]",[],7,,,,,,,,,,,,,,
harvest,222,599093,0.0-70.0-1.0,"""event"",""trial"",""time""
""fullscreenenter"",""1"",""8691""
","
","
","""event"",""trial"",""time""
""fullscreenenter"",""1"",""8691""
","
",,null,run_exp/static/images/task_images/gems/8.jpg,null,,,,,,,6,,,7,,,,,8,0.810388067,0.75,,,,,,,
decision,223,599459,0.0-70.0-2.0,"""event"",""trial"",""time""
""fullscreenenter"",""1"",""8691""
","
","
","""event"",""trial"",""time""
""fullscreenenter"",""1"",""8691""
","
",,363.1,run_exp/static/images/task_images/land.jpg,65,,,,,,,6,,,7,,,,,,,,285556,1,10,FALSE,,,
dig,224,602110,0.0-71.0-0.0,"""event"",""trial"",""time""
""fullscreenenter"",""1"",""8691""
","
","
","""event"",""trial"",""time""
""fullscreenenter"",""1"",""8691""
","
",,,,,,,,,,,,"[{""stimulus"":""run_exp/static/images/task_images/dig.jpg"",""time"":0.6000000238418579},{""stimulus"":""run_exp/static/images/task_images/land.jpg"",""time"":881.8999999761581},{""stimulus"":""run_exp/static/images/task_images/dig.jpg"",""time"":1768.8999999761581}]",[],7,,,,,,,,,,,,,,
harvest,225,603121,0.0-71.0-1.0,"""event"",""trial"",""time""
""fullscreenenter"",""1"",""8691""
","
","
","""event"",""trial"",""time""
""fullscreenenter"",""1"",""8691""
","
",,null,run_exp/static/images/task_images/gems/6.jpg,null,,,,,,,5,,,7,,,,,6,0.779125688,0.833333333,,,,,,,
decision,226,603417,0.0-71.0-2.0,"""event"",""trial"",""time""
""fullscreenenter"",""1"",""8691""
","
","
","""event"",""trial"",""time""
""fullscreenenter"",""1"",""8691""
","
",,294.9,run_exp/static/images/task_images/land.jpg,76,,,,,,,5,,,7,,,,,,,,289514,1,11,TRUE,,,
travel,227,613136,0.0-72.0-0.0,"""event"",""trial"",""time""
""fullscreenenter"",""1"",""8691""
","
","
","""event"",""trial"",""time""
""fullscreenenter"",""1"",""8691""
","
",,,,,,,,,,,,"[{""stimulus"":""run_exp/static/images/task_images/rocket-01.jpg"",""time"":0.10000002384185791},{""stimulus"":""run_exp/static/images/task_images/rocket-02.jpg"",""time"":1094},{""stimulus"":""run_exp/static/images/task_images/rocket-03.jpg"",""time"":2165.899999976158},{""stimulus"":""run_exp/static/images/task_images/rocket-04.jpg"",""time"":3239},{""stimulus"":""run_exp/static/images/task_images/rocket-05.jpg"",""time"":4314.300000071526},{""stimulus"":""run_exp/static/images/task_images/rocket-06.jpg"",""time"":5395.899999976158},{""stimulus"":""run_exp/static/images/task_images/rocket-07.jpg"",""time"":6470.399999976158},{""stimulus"":""run_exp/static/images/task_images/rocket-08.jpg"",""time"":7548},{""stimulus"":""run_exp/static/images/task_images/rocket-09.jpg"",""time"":8639.100000023842}]",[],7,,,,,,,,,,,,,,
alien_welcome,228,618147,0.0-72.0-1.0,"""event"",""trial"",""time""
""fullscreenenter"",""1"",""8691""
","
","
","""event"",""trial"",""time""
""fullscreenenter"",""1"",""8691""
","
",,null,run_exp/static/images/task_images/aliens/old_aliens/planet/alien_planet-15.jpg,null,,,,,,,,,,,,,15,"47,22,23,63,24,35,5,15,34,42,52,73,43,72,4,21,77,9,40,25,55,65,76,69,1,57,49,11,62,3,8,70,36,48,32,67,64,79,51,16,58,78,38,18,30,13,26,10,60,45",,,,,,,,,,
land,229,618663,0.0-72.0-2.0,"""event"",""trial"",""time""
""fullscreenenter"",""1"",""8691""
","
","
","""event"",""trial"",""time""
""fullscreenenter"",""1"",""8691""
","
",,null,run_exp/static/images/task_images/land.jpg,null,,,,,,,97,,,8,,,,,,,,,,,,,,
dig,230,620671,0.0-72.0-3.0,"""event"",""trial"",""time""
""fullscreenenter"",""1"",""8691""
","
","
","""event"",""trial"",""time""
""fullscreenenter"",""1"",""8691""
","
",,,,,,,,,,,,"[{""stimulus"":""run_exp/static/images/task_images/dig.jpg"",""time"":0.5},{""stimulus"":""run_exp/static/images/task_images/land.jpg"",""time"":669.2000000476837},{""stimulus"":""run_exp/static/images/task_images/dig.jpg"",""time"":1337.1000000238419}]",[],8,,,,,,,,,,,,,,
harvest,231,621685,0.0-72.0-4.0,"""event"",""trial"",""time""
""fullscreenenter"",""1"",""8691""
","
","
","""event"",""trial"",""time""
""fullscreenenter"",""1"",""8691""
","
",,null,run_exp/static/images/task_images/gems/97.jpg,null,,,,,,,75,,,8,,,,,97,0.772839234,0.773195876,,,,,,,
decision,232,621759,0.0-72.0-5.0,"""event"",""trial"",""time""
""fullscreenenter"",""1"",""8691""
","
","
","""event"",""trial"",""time""
""fullscreenenter"",""1"",""8691""
","
",,72.20000005,run_exp/static/images/task_images/land.jpg,65,,,,,,,75,,,8,,,,,,,,307856,1,0,TRUE,,,
end_of_block_continue,233,630637,0.0-73.0-0.0,"""event"",""trial"",""time""
""fullscreenenter"",""1"",""8691""
","
","
","""event"",""trial"",""time""
""fullscreenenter"",""1"",""8691""
","
",,null,run_exp/static/audio/clip_32_block_end.m4a,,,,,,,null,,,,,,,,,,,,,,,,,,
alien_welcome,234,635652,0.0-74.0-0.0,"""event"",""trial"",""time""
""fullscreenenter"",""1"",""8691""
","
","
","""event"",""trial"",""time""
""fullscreenenter"",""1"",""8691""
","
",,null,run_exp/static/images/task_images/aliens/old_aliens/planet/alien_planet-34.jpg,null,,,,,,,,,,,,,34,"47,22,23,63,24,35,5,15,34,42,52,73,43,72,4,21,77,9,40,25,55,65,76,69,1,57,49,11,62,3,8,70,36,48,32,67,64,79,51,16,58,78,38,18,30,13,26,10,60,45",,,,,,,,,,
land,235,636155,0.0-74.0-1.0,"""event"",""trial"",""time""
""fullscreenenter"",""1"",""8691""
","
","
","""event"",""trial"",""time""
""fullscreenenter"",""1"",""8691""
","
",,null,run_exp/static/images/task_images/land.jpg,null,,,,,,,98,,,9,,,,,,,,,,,,,,
dig,236,638170,0.0-74.0-2.0,"""event"",""trial"",""time""
""fullscreenenter"",""1"",""8691""
","
","
","""event"",""trial"",""time""
""fullscreenenter"",""1"",""8691""
","
",,,,,,,,,,,,"[{""stimulus"":""run_exp/static/images/task_images/dig.jpg"",""time"":0.6000000238418579},{""stimulus"":""run_exp/static/images/task_images/land.jpg"",""time"":683},{""stimulus"":""run_exp/static/images/task_images/dig.jpg"",""time"":1342}]",[],9,,,,,,,,,,,,,,
harvest,237,639183,0.0-74.0-3.0,"""event"",""trial"",""time""
""fullscreenenter"",""1"",""8691""
","
","
","""event"",""trial"",""time""
""fullscreenenter"",""1"",""8691""
","
",,null,run_exp/static/images/task_images/gems/98.jpg,null,,,,,,,21,,,9,,,,,98,0.212026422,0.214285714,,,,,,,
decision,238,639450,0.0-74.0-4.0,"""event"",""trial"",""time""
""fullscreenenter"",""1"",""8691""
","
","
","""event"",""trial"",""time""
""fullscreenenter"",""1"",""8691""
","
",,264.4000001,run_exp/static/images/task_images/land.jpg,65,,,,,,,21,,,9,,,,,,,,8804,2,0,FALSE,,,
dig,239,642199,0.0-75.0-0.0,"""event"",""trial"",""time""
""fullscreenenter"",""1"",""8691""
","
","
","""event"",""trial"",""time""
""fullscreenenter"",""1"",""8691""
","
",,,,,,,,,,,,"[{""stimulus"":""run_exp/static/images/task_images/dig.jpg"",""time"":0.5},{""stimulus"":""run_exp/static/images/task_images/land.jpg"",""time"":927.8999999761581},{""stimulus"":""run_exp/static/images/task_images/dig.jpg"",""time"":1831.5}]",[],9,,,,,,,,,,,,,,
harvest,240,643211,0.0-75.0-1.0,"""event"",""trial"",""time""
""fullscreenenter"",""1"",""8691""
","
","
","""event"",""trial"",""time""
""fullscreenenter"",""1"",""8691""
","
",,null,run_exp/static/images/task_images/gems/21.jpg,null,,,,,,,4,,,9,,,,,21,0.168760226,0.19047619,,,,,,,
decision,241,644250,0.0-75.0-2.0,"""event"",""trial"",""time""
""fullscreenenter"",""1"",""8691""
","
","
","""event"",""trial"",""time""
""fullscreenenter"",""1"",""8691""
","
",,1035.8,run_exp/static/images/task_images/land.jpg,76,,,,,,,4,,,9,,,,,,,,13604,2,1,TRUE,,,
travel,242,653224,0.0-76.0-0.0,"""event"",""trial"",""time""
""fullscreenenter"",""1"",""8691""
","
","
","""event"",""trial"",""time""
""fullscreenenter"",""1"",""8691""
","
",,,,,,,,,,,,"[{""stimulus"":""run_exp/static/images/task_images/rocket-01.jpg"",""time"":0.20000004768371582},{""stimulus"":""run_exp/static/images/task_images/rocket-02.jpg"",""time"":1005.7000000476837},{""stimulus"":""run_exp/static/images/task_images/rocket-03.jpg"",""time"":1994.8999999761581},{""stimulus"":""run_exp/static/images/task_images/rocket-04.jpg"",""time"":2997.2000000476837},{""stimulus"":""run_exp/static/images/task_images/rocket-05.jpg"",""time"":3994},{""stimulus"":""run_exp/static/images/task_images/rocket-06.jpg"",""time"":4996},{""stimulus"":""run_exp/static/images/task_images/rocket-07.jpg"",""time"":5985.800000071526},{""stimulus"":""run_exp/static/images/task_images/rocket-08.jpg"",""time"":6983.800000071526},{""stimulus"":""run_exp/static/images/task_images/rocket-09.jpg"",""time"":7970}]",[],9,,,,,,,,,,,,,,
alien_welcome,243,658233,0.0-76.0-1.0,"""event"",""trial"",""time""
""fullscreenenter"",""1"",""8691""
","
","
","""event"",""trial"",""time""
""fullscreenenter"",""1"",""8691""
","
",,null,run_exp/static/images/task_images/aliens/old_aliens/planet/alien_planet-42.jpg,null,,,,,,,,,,,,,42,"47,22,23,63,24,35,5,15,34,42,52,73,43,72,4,21,77,9,40,25,55,65,76,69,1,57,49,11,62,3,8,70,36,48,32,67,64,79,51,16,58,78,38,18,30,13,26,10,60,45",,,,,,,,,,
land,244,658747,0.0-76.0-2.0,"""event"",""trial"",""time""
""fullscreenenter"",""1"",""8691""
","
","
","""event"",""trial"",""time""
""fullscreenenter"",""1"",""8691""
","
",,null,run_exp/static/images/task_images/land.jpg,null,,,,,,,106,,,10,,,,,,,,,,,,,,
dig,245,660758,0.0-76.0-3.0,"""event"",""trial"",""time""
""fullscreenenter"",""1"",""8691""
","
","
","""event"",""trial"",""time""
""fullscreenenter"",""1"",""8691""
","
",,,,,,,,,,,,"[{""stimulus"":""run_exp/static/images/task_images/dig.jpg"",""time"":0.6000000238418579},{""stimulus"":""run_exp/static/images/task_images/land.jpg"",""time"":682.5},{""stimulus"":""run_exp/static/images/task_images/dig.jpg"",""time"":1338.5}]",[],10,,,,,,,,,,,,,,
harvest,246,661772,0.0-76.0-4.0,"""event"",""trial"",""time""
""fullscreenenter"",""1"",""8691""
","
","
","""event"",""trial"",""time""
""fullscreenenter"",""1"",""8691""
","
",,null,run_exp/static/images/task_images/gems/106.jpg,null,,,,,,,15,,,10,,,,,106,0.145555989,0.141509434,,,,,,,
decision,247,662314,0.0-76.0-5.0,"""event"",""trial"",""time""
""fullscreenenter"",""1"",""8691""
","
","
","""event"",""trial"",""time""
""fullscreenenter"",""1"",""8691""
","
",,539.8,run_exp/static/images/task_images/land.jpg,65,,,,,,,15,,,10,,,,,,,,31668,2,0,FALSE,,,
dig,248,664787,0.0-77.0-0.0,"""event"",""trial"",""time""
""fullscreenenter"",""1"",""8691""
","
","
","""event"",""trial"",""time""
""fullscreenenter"",""1"",""8691""
","
",,,,,,,,,,,,"[{""stimulus"":""run_exp/static/images/task_images/dig.jpg"",""time"":0.6000000238418579},{""stimulus"":""run_exp/static/images/task_images/land.jpg"",""time"":835.2000000476837},{""stimulus"":""run_exp/static/images/task_images/dig.jpg"",""time"":1648.6000000238419}]",[],10,,,,,,,,,,,,,,
harvest,249,665800,0.0-77.0-1.0,"""event"",""trial"",""time""
""fullscreenenter"",""1"",""8691""
","
","
","""event"",""trial"",""time""
""fullscreenenter"",""1"",""8691""
","
",,null,run_exp/static/images/task_images/gems/15.jpg,null,,,,,,,3,,,10,,,,,15,0.189018562,0.2,,,,,,,
decision,250,666351,0.0-77.0-2.0,"""event"",""trial"",""time""
""fullscreenenter"",""1"",""8691""
","
","
","""event"",""trial"",""time""
""fullscreenenter"",""1"",""8691""
","
",,548.7,run_exp/static/images/task_images/land.jpg,65,,,,,,,3,,,10,,,,,,,,35706,2,1,FALSE,,,
dig,251,668824,0.0-78.0-0.0,"""event"",""trial"",""time""
""fullscreenenter"",""1"",""8691""
","
","
","""event"",""trial"",""time""
""fullscreenenter"",""1"",""8691""
","
",,,,,,,,,,,,"[{""stimulus"":""run_exp/static/images/task_images/dig.jpg"",""time"":0.5},{""stimulus"":""run_exp/static/images/task_images/land.jpg"",""time"":827},{""stimulus"":""run_exp/static/images/task_images/dig.jpg"",""time"":1637}]",[],10,,,,,,,,,,,,,,
harvest,252,669841,0.0-78.0-1.0,"""event"",""trial"",""time""
""fullscreenenter"",""1"",""8691""
","
","
","""event"",""trial"",""time""
