trial_type,trial_index,time_elapsed,internal_node_id,interactions,blur_events,focus_events,fullscreenenter_events,fullscreenexit_events,success,rt,stimulus,key_press,prompt,subject_id,participant_id,age,gender,button_pressed,next_reward,animation_sequence,responses,planet,curr_prac_trial,n_prac_rounds,alien,aliens,reward_received,decay_rate_actual,decay_rate_exp,time_in_block,block_num,prt,last_trial_on_planet,button_html,bonus,num_failures
pavlovia,0,10,0.0-0.0,"""event"",""trial"",""time""
""fullscreenenter"",""1"",""2152""
","
","
","""event"",""trial"",""time""
""fullscreenenter"",""1"",""2152""
","
",,,,,,,,,,,,,,,,,,,,,,,,,,,,
fullscreen,1,3140,0.0-1.0,"""event"",""trial"",""time""
""fullscreenenter"",""1"",""2152""
","
","
","""event"",""trial"",""time""
""fullscreenenter"",""1"",""2152""
","
",TRUE,,,,,,,,,,,,,,,,,,,,,,,,,,,
instruc_welcome,2,13025,0.0-2.0,"""event"",""trial"",""time""
""fullscreenenter"",""1"",""2152""
","
","
","""event"",""trial"",""time""
""fullscreenenter"",""1"",""2152""
","
",,null,run_exp/static/audio/clip_1_welcome.m4a,null,"<p>Howdy! In this experiment, you’ll be an explorer traveling through space to collect space treasure.</p><p>Your mission is to collect as much treasure as possible.</p><br><br><p><img src='run_exp/static/images/task_images/opening_img-01.jpg' height='300' width='auto'></p>",10870,5119,17.25,Female,,,,,,,,,,,,,,,,,,,
audio-keyboard-response,3,30048,0.0-3.0,"""event"",""trial"",""time""
""fullscreenenter"",""1"",""2152""
","
","
","""event"",""trial"",""time""
""fullscreenenter"",""1"",""2152""
","
",,null,run_exp/static/audio/clip_2_move.m4a,null,,,,,,,,,,,,,,,,,,,,,,,,
welcome_dec,4,32478,0.0-4.0,"""event"",""trial"",""time""
""fullscreenenter"",""1"",""2152""
","
","
","""event"",""trial"",""time""
""fullscreenenter"",""1"",""2152""
","
",,2425.8,"<p>Howdy! In this experiment, you’ll be an explorer traveling through space to collect space treasure.</p><p>Your mission is to collect as much treasure as possible.</p><br><br><p><img src='run_exp/static/images/task_images/opening_img-01.jpg' height='300' width='auto'></p>",,,,,,,1,,,,,,,,,,,,,,,,,,
html-keyboard-response,5,33707,0.0-5.0,"""event"",""trial"",""time""
""fullscreenenter"",""1"",""2152""
","
","
","""event"",""trial"",""time""
""fullscreenenter"",""1"",""2152""
","
",,1223.6,"<p>Howdy! In this experiment, you’ll be an explorer traveling through space to collect space treasure.</p><p>Your mission is to collect as much treasure as possible.</p><br><br><p><img src='run_exp/static/images/task_images/opening_img-01.jpg' height='300' width='auto'></p><button class=""jspsych-html-btn-unchosen""><img src=""run_exp/static/images/task_images/planet-01.jpg"" height=""50""></button><button class=""jspsych-html-btn-chosen""><img src=""run_exp/static/images/task_images/planet-02.jpg"" height=""50""></button><p><b>[press the space bar to lock in your answer]<b><br></p>",32,,,,,,,,,,,,,,,,,,,,,,,,
instruc_goal,6,44128,0.0-6.0-0.0,"""event"",""trial"",""time""
""fullscreenenter"",""1"",""2152""
","
","
","""event"",""trial"",""time""
""fullscreenenter"",""1"",""2152""
","
",,null,run_exp/static/audio/clip_3_goal.m4a,null,"<p> As a space explorer, you’ll visit different planets to dig for space treasure, these pink gems.</p> <p> The more treasure you dig up, the more bonus money you’ll win! </p><br><br><p><img src='run_exp/static/images/task_images/pink_gem.jpg' height='300' width='auto'></p>",,,,,,,,,,,,,,,,,,,,,,,
instruc_goal,7,46740,0.0-6.0-1.0,"""event"",""trial"",""time""
""fullscreenenter"",""1"",""2152""
","
","
","""event"",""trial"",""time""
""fullscreenenter"",""1"",""2152""
","
",,2609.6,"<p> As a space explorer, you’ll visit different planets to dig for space treasure, these pink gems.</p> <p> The more treasure you dig up, the more bonus money you’ll win! </p><br><br><p><img src='run_exp/static/images/task_images/pink_gem.jpg' height='300' width='auto'></p>",,,,,,,1,,,,,,,,,,,,,,,,,,
html-keyboard-response,8,64167,0.0-6.0-2.0,"""event"",""trial"",""time""
""fullscreenenter"",""1"",""2152""
","
","
","""event"",""trial"",""time""
""fullscreenenter"",""1"",""2152""
","
",,17424.6,"<p> As a space explorer, you’ll visit different planets to dig for space treasure, these pink gems.</p> <p> The more treasure you dig up, the more bonus money you’ll win! </p><br><br><p><img src='run_exp/static/images/task_images/pink_gem.jpg' height='300' width='auto'></p><button class=""jspsych-html-btn-unchosen""><img src=""run_exp/static/images/task_images/planet-01.jpg"" height=""50""></button><button class=""jspsych-html-btn-chosen""><img src=""run_exp/static/images/task_images/planet-02.jpg"" height=""50""></button><p><b>[press the space bar to lock in your answer]<b><br></p>",32,,,,,,,,,,,,,,,,,,,,,,,,
instruc_dig,9,80322,0.0-7.0-0.0,"""event"",""trial"",""time""
""fullscreenenter"",""1"",""2152""
","
","
","""event"",""trial"",""time""
""fullscreenenter"",""1"",""2152""
","
",,null,run_exp/static/audio/clip_4_dig.m4a,null,,,,,,,100,,,,,,,,,,,,,,,,,
instruc_dig_try,10,80886,0.0-7.0-1.0,"""event"",""trial"",""time""
""fullscreenenter"",""1"",""2152""
","
","
","""event"",""trial"",""time""
""fullscreenenter"",""1"",""2152""
","
",,562.1,"<p> When you’ve arrived at a new planet, you will dig once. </p> <p>Then, you get to decide if you want to stay on the planet and dig again or travel to a new planet and dig there.</p> <p> To stay and dig, press the letter <strong>‘A’</strong> on your keyboard. Try pressing it now! </p><p><img src='run_exp/static/images/task_images/land.jpg'  height='700' width='auto'></p>",65,"<p> When you’ve arrived at a new planet, you will dig once. </p> <p>Then, you get to decide if you want to stay on the planet and dig again or travel to a new planet and dig there.</p> <p> To stay and dig, press the letter <strong>‘A’</strong> on your keyboard. Try pressing it now! </p><p><img src='run_exp/static/images/task_images/land.jpg'  height='700' width='auto'></p>",,,,,,100,,,,,,,,,,,,,,,,,
dig_prac,11,82911,0.0-7.0-2.0,"""event"",""trial"",""time""
""fullscreenenter"",""1"",""2152""
","
","
","""event"",""trial"",""time""
""fullscreenenter"",""1"",""2152""
","
",,,,,,,,,,,,"[{""stimulus"":""run_exp/static/images/task_images/dig.jpg"",""time"":0.5},{""stimulus"":""run_exp/static/images/task_images/land.jpg"",""time"":669.1999999955297},{""stimulus"":""run_exp/static/images/task_images/dig.jpg"",""time"":1335.5999999940395}]",[],,,,,,,,,,,,,,,
instruc_travel,12,119489,0.0-7.0-3.0,"""event"",""trial"",""time""
""fullscreenenter"",""1"",""2152""
","
","
","""event"",""trial"",""time""
""fullscreenenter"",""1"",""2152""
","
",,null,run_exp/static/audio/clip_5_travel.m4a,null,"<p>Every time you dig up gems, there are less gems on the planet, so the more you dig on a planet the fewer gems you’ll get with each dig.</p><p>When gems are running low, you may want to travel to a new planet. </p> <p>  Planets are very far apart in this galaxy, so it will take some time to travel between them. </p> <br><p>There are lots and lots of planets for you to visit, so you won’t be able to return to any planets you’ve seen before. </p><br><p>To leave this planet and travel to a new one, press the letter <strong>‘L’</strong> on your keyboard. Try pressing it now! </p><p><img src='run_exp/static/images/task_images/rocket-01.jpg'  height='600' width='auto'></p>",,,,,,,,,,,,,,,,,,,,,,,
instruc_travel_try,13,124372,0.0-7.0-4.0,"""event"",""trial"",""time""
""fullscreenenter"",""1"",""2152""
","
","
","""event"",""trial"",""time""
""fullscreenenter"",""1"",""2152""
","
",,4880.8,"<p>Every time you dig up gems, there are less gems on the planet, so the more you dig on a planet the fewer gems you’ll get with each dig.</p><p>When gems are running low, you may want to travel to a new planet. </p> <p>  Planets are very far apart in this galaxy, so it will take some time to travel between them. </p> <br><p>There are lots and lots of planets for you to visit, so you won’t be able to return to any planets you’ve seen before. </p><br><p>To leave this planet and travel to a new one, press the letter <strong>‘L’</strong> on your keyboard. Try pressing it now! </p><p><img src='run_exp/static/images/task_images/rocket-01.jpg'  height='600' width='auto'></p>",76,"<p>Every time you dig up gems, there are less gems on the planet, so the more you dig on a planet the fewer gems you’ll get with each dig.</p><p>When gems are running low, you may want to travel to a new planet. </p> <p>  Planets are very far apart in this galaxy, so it will take some time to travel between them. </p> <br><p>There are lots and lots of planets for you to visit, so you won’t be able to return to any planets you’ve seen before. </p><br><p>To leave this planet and travel to a new one, press the letter <strong>‘L’</strong> on your keyboard. Try pressing it now! </p><p><img src='run_exp/static/images/task_images/rocket-01.jpg'  height='600' width='auto'></p>",,,,,,,,,,,,,,,,,,,,,,,
travel_prac,14,134375,0.0-7.0-5.0,"""event"",""trial"",""time""
""fullscreenenter"",""1"",""2152""
","
","
","""event"",""trial"",""time""
""fullscreenenter"",""1"",""2152""
","
",,,,,,,,,,,,"[{""stimulus"":""run_exp/static/images/task_images/rocket-01.jpg"",""time"":0.4000000059604645},{""stimulus"":""run_exp/static/images/task_images/rocket-02.jpg"",""time"":1112.8000000044703},{""stimulus"":""run_exp/static/images/task_images/rocket-03.jpg"",""time"":2223.8000000044703},{""stimulus"":""run_exp/static/images/task_images/rocket-04.jpg"",""time"":3334.7000000029802},{""stimulus"":""run_exp/static/images/task_images/rocket-05.jpg"",""time"":4445.80000000447},{""stimulus"":""run_exp/static/images/task_images/rocket-06.jpg"",""time"":5557.20000000298},{""stimulus"":""run_exp/static/images/task_images/rocket-07.jpg"",""time"":6668.10000000149},{""stimulus"":""run_exp/static/images/task_images/rocket-08.jpg"",""time"":7778.9000000059605},{""stimulus"":""run_exp/static/images/task_images/rocket-09.jpg"",""time"":8889.80000000447}]",[],0,,,,,,,,,,,,,,
instruc_alien_greet,15,161812,0.0-7.0-6.0,"""event"",""trial"",""time""
""fullscreenenter"",""1"",""2152""
","
","
","""event"",""trial"",""time""
""fullscreenenter"",""1"",""2152""
","
",,null,run_exp/static/audio/clip_6_alien.m4a,null,"<p>When you arrive at a new planet, the alien who owns the treasure mine on that planet will greet you!</p><p>The better an alien takes care of their mine the easier it is to dig for gems. Some aliens take better care of their mine than others. So, you won’t get exactly the same amount of gems on each planet.</p><p>What the alien looks like does not tell you anything about how many gems there are on the planet.</p><br><p><img src=""run_exp/static/images/task_images/aliens/instructions_aliens/planet/alien_planet-1.jpg""  height=""600"" width=""auto""></p>",,,,,,,,,,,,,,,,,,,,,,,
instruc_alien_greet,16,167509,0.0-7.0-7.0,"""event"",""trial"",""time""
""fullscreenenter"",""1"",""2152""
","
","
","""event"",""trial"",""time""
""fullscreenenter"",""1"",""2152""
","
",,5692,"<p>When you arrive at a new planet, the alien who owns the treasure mine on that planet will greet you!</p><p>The better an alien takes care of their mine the easier it is to dig for gems. Some aliens take better care of their mine than others. So, you won’t get exactly the same amount of gems on each planet.</p><p>What the alien looks like does not tell you anything about how many gems there are on the planet.</p><br><p><img src=""run_exp/static/images/task_images/aliens/instructions_aliens/planet/alien_planet-1.jpg""  height=""600"" width=""auto""></p>",,,,,,,1,,,,,,,,,,,,,,,,,,
html-keyboard-response,17,167841,0.0-7.0-8.0,"""event"",""trial"",""time""
""fullscreenenter"",""1"",""2152""
","
","
","""event"",""trial"",""time""
""fullscreenenter"",""1"",""2152""
","
",,329,"<p>When you arrive at a new planet, the alien who owns the treasure mine on that planet will greet you!</p><p>The better an alien takes care of their mine the easier it is to dig for gems. Some aliens take better care of their mine than others. So, you won’t get exactly the same amount of gems on each planet.</p><p>What the alien looks like does not tell you anything about how many gems there are on the planet.</p><br><p><img src=""run_exp/static/images/task_images/aliens/instructions_aliens/planet/alien_planet-1.jpg""  height=""600"" width=""auto""></p><button class=""jspsych-html-btn-unchosen""><img src=""run_exp/static/images/task_images/planet-01.jpg"" height=""50""></button><button class=""jspsych-html-btn-chosen""><img src=""run_exp/static/images/task_images/planet-02.jpg"" height=""50""></button><p><b>[press the space bar to lock in your answer]<b><br></p>",32,,,,,,,,,,,,,,,,,,,,,,,,
time_out,18,179348,0.0-8.0-0.0,"""event"",""trial"",""time""
""fullscreenenter"",""1"",""2152""
","
","
","""event"",""trial"",""time""
""fullscreenenter"",""1"",""2152""
","
",,null,run_exp/static/audio/clip_7_timeout.m4a,null,"<p>If you don't make your choice fast enough, you’ll have to wait a few seconds before you can make another one.</p><p>You can’t dig for more gems or travel to new planets. You just have to sit and wait.</p><br><p><img src='run_exp/static/images/task_images/time_out.jpg'  height='600' width='auto'></p>",,,,,,,,,,,,,,,,,,,,,,,
time_out,19,182465,0.0-8.0-1.0,"""event"",""trial"",""time""
""fullscreenenter"",""1"",""2152""
","
","
","""event"",""trial"",""time""
""fullscreenenter"",""1"",""2152""
","
",,3115.2,"<p>If you don't make your choice fast enough, you’ll have to wait a few seconds before you can make another one.</p><p>You can’t dig for more gems or travel to new planets. You just have to sit and wait.</p><br><p><img src='run_exp/static/images/task_images/time_out.jpg'  height='600' width='auto'></p>",,,,,,,1,,,,,,,,,,,,,,,,,,
html-keyboard-response,20,182805,0.0-8.0-2.0,"""event"",""trial"",""time""
""fullscreenenter"",""1"",""2152""
","
","
","""event"",""trial"",""time""
""fullscreenenter"",""1"",""2152""
","
",,338.2,"<p>If you don't make your choice fast enough, you’ll have to wait a few seconds before you can make another one.</p><p>You can’t dig for more gems or travel to new planets. You just have to sit and wait.</p><br><p><img src='run_exp/static/images/task_images/time_out.jpg'  height='600' width='auto'></p><button class=""jspsych-html-btn-unchosen""><img src=""run_exp/static/images/task_images/planet-01.jpg"" height=""50""></button><button class=""jspsych-html-btn-chosen""><img src=""run_exp/static/images/task_images/planet-02.jpg"" height=""50""></button><p><b>[press the space bar to lock in your answer]<b><br></p>",32,,,,,,,,,,,,,,,,,,,,,,,,
instruc_break,21,198804,0.0-9.0-0.0,"""event"",""trial"",""time""
""fullscreenenter"",""1"",""2152""
","
","
","""event"",""trial"",""time""
""fullscreenenter"",""1"",""2152""
","
",,null,run_exp/static/audio/clip_8_break.m4a,null,"<p> After digging and traveling for a while, you’ll be able to take a break at home base. </p><p>The game will last 20 minutes no matter what.</p><p>You will visit home base every 5 minutes, so, you will visit home base three times during the game.</p><br><p><img src='run_exp/static/images/task_images/home_base.jpg' height='600' width='auto'></p>",,,,,,,,,,,,,,,,,,,,,,,
instruc_break,22,202583,0.0-9.0-1.0,"""event"",""trial"",""time""
""fullscreenenter"",""1"",""2152""
","
","
","""event"",""trial"",""time""
""fullscreenenter"",""1"",""2152""
","
",,3775.8,"<p> After digging and traveling for a while, you’ll be able to take a break at home base. </p><p>The game will last 20 minutes no matter what.</p><p>You will visit home base every 5 minutes, so, you will visit home base three times during the game.</p><br><p><img src='run_exp/static/images/task_images/home_base.jpg' height='600' width='auto'></p>",,,,,,,1,,,,,,,,,,,,,,,,,,
html-keyboard-response,23,203268,0.0-9.0-2.0,"""event"",""trial"",""time""
""fullscreenenter"",""1"",""2152""
","
","
","""event"",""trial"",""time""
""fullscreenenter"",""1"",""2152""
","
",,681.5,"<p> After digging and traveling for a while, you’ll be able to take a break at home base. </p><p>The game will last 20 minutes no matter what.</p><p>You will visit home base every 5 minutes, so, you will visit home base three times during the game.</p><br><p><img src='run_exp/static/images/task_images/home_base.jpg' height='600' width='auto'></p><button class=""jspsych-html-btn-unchosen""><img src=""run_exp/static/images/task_images/planet-01.jpg"" height=""50""></button><button class=""jspsych-html-btn-chosen""><img src=""run_exp/static/images/task_images/planet-02.jpg"" height=""50""></button><p><b>[press the space bar to lock in your answer]<b><br></p>",32,,,,,,,,,,,,,,,,,,,,,,,,
instruc_prac_game,24,213652,0.0-10.0-0.0,"""event"",""trial"",""time""
""fullscreenenter"",""1"",""2152""
","
","
","""event"",""trial"",""time""
""fullscreenenter"",""1"",""2152""
","
",,null,run_exp/static/audio/clip_9_practice.m4a,null,"<p> Are you ready to play a practice game? </p> <p>In this practice game, you'll be digging up barrels of gems. But, in the real game, you'll be digging up the gems themselves. </p>",,,,,,,,,,,,,,,,,,,,,,,
html-button-response,25,216433,0.0-10.0-1.0,"""event"",""trial"",""time""
""fullscreenenter"",""1"",""2152""
","
","
","""event"",""trial"",""time""
""fullscreenenter"",""1"",""2152""
","
",,2779.5,"<p> Are you ready to play a practice game? </p> <p>In this practice game, you'll be digging up barrels of gems. But, in the real game, you'll be digging up the gems themselves. </p>",,,,,,,0,,,,,,,,,,,,,,,,,,
alien_welcome_prac,26,221438,0.0-11.0-0.0,"""event"",""trial"",""time""
""fullscreenenter"",""1"",""2152""
","
","
","""event"",""trial"",""time""
""fullscreenenter"",""1"",""2152""
","
",,null,run_exp/static/images/task_images/aliens/practice_aliens/planet/alien_planet-5.jpg,null,,,,,,,,,,,,,,,,,,,,,,,,
land_prac,27,221940,0.0-11.0-1.0,"""event"",""trial"",""time""
""fullscreenenter"",""1"",""2152""
","
","
","""event"",""trial"",""time""
""fullscreenenter"",""1"",""2152""
","
",,null,run_exp/static/images/task_images/land.jpg,null,,,,,,,92,,,0,,,,,,,,,,,,,,
dig_prac,28,223944,0.0-11.0-2.0,"""event"",""trial"",""time""
""fullscreenenter"",""1"",""2152""
","
","
","""event"",""trial"",""time""
""fullscreenenter"",""1"",""2152""
","
",,,,,,,,,,,,"[{""stimulus"":""run_exp/static/images/task_images/dig.jpg"",""time"":0.5},{""stimulus"":""run_exp/static/images/task_images/land.jpg"",""time"":668.7999999970198},{""stimulus"":""run_exp/static/images/task_images/dig.jpg"",""time"":1335.6000000014901}]",[],,,,,,,,,,,,,,,
harvest_prac,29,224947,0.0-11.0-3.0,"""event"",""trial"",""time""
""fullscreenenter"",""1"",""2152""
","
","
","""event"",""trial"",""time""
""fullscreenenter"",""1"",""2152""
","
",,null,run_exp/static/images/task_images/barrel_text.jpg,null,,,,,,,,,,,,,,,,,,,,,,,,
decision_prac,30,225250,0.0-11.0-4.0,"""event"",""trial"",""time""
""fullscreenenter"",""1"",""2152""
","
","
","""event"",""trial"",""time""
""fullscreenenter"",""1"",""2152""
","
",,301.9,run_exp/static/images/task_images/land.jpg,65,,,,,,,,,,,1,,,,,,,,,,,,,
dig_prac,31,227258,0.0-12.0-0.0,"""event"",""trial"",""time""
""fullscreenenter"",""1"",""2152""
","
","
","""event"",""trial"",""time""
""fullscreenenter"",""1"",""2152""
","
",,,,,,,,,,,,"[{""stimulus"":""run_exp/static/images/task_images/dig.jpg"",""time"":0.29999999701976776},{""stimulus"":""run_exp/static/images/task_images/land.jpg"",""time"":668.5},{""stimulus"":""run_exp/static/images/task_images/dig.jpg"",""time"":1336}]",[],,,,,,,,,,,,,,,
harvest_prac,32,228259,0.0-12.0-1.0,"""event"",""trial"",""time""
""fullscreenenter"",""1"",""2152""
","
","
","""event"",""trial"",""time""
""fullscreenenter"",""1"",""2152""
","
",,null,run_exp/static/images/task_images/barrel_text.jpg,null,,,,,,,,,,,,,,,,,,,,,,,,
decision_prac,33,228723,0.0-12.0-2.0,"""event"",""trial"",""time""
""fullscreenenter"",""1"",""2152""
","
","
","""event"",""trial"",""time""
""fullscreenenter"",""1"",""2152""
","
",,462.7,run_exp/static/images/task_images/land.jpg,65,,,,,,,,,,,2,,,,,,,,,,,,,
dig_prac,34,230730,0.0-13.0-0.0,"""event"",""trial"",""time""
""fullscreenenter"",""1"",""2152""
","
","
","""event"",""trial"",""time""
""fullscreenenter"",""1"",""2152""
","
",,,,,,,,,,,,"[{""stimulus"":""run_exp/static/images/task_images/dig.jpg"",""time"":0.4000000059604645},{""stimulus"":""run_exp/static/images/task_images/land.jpg"",""time"":668.9000000059605},{""stimulus"":""run_exp/static/images/task_images/dig.jpg"",""time"":1335.8000000044703}]",[],,,,,,,,,,,,,,,
harvest_prac,35,231732,0.0-13.0-1.0,"""event"",""trial"",""time""
""fullscreenenter"",""1"",""2152""
","
","
","""event"",""trial"",""time""
""fullscreenenter"",""1"",""2152""
","
",,null,run_exp/static/images/task_images/barrel_text.jpg,null,,,,,,,,,,,,,,,,,,,,,,,,
decision_prac,36,231943,0.0-13.0-2.0,"""event"",""trial"",""time""
""fullscreenenter"",""1"",""2152""
","
","
","""event"",""trial"",""time""
""fullscreenenter"",""1"",""2152""
","
",,209.1,run_exp/static/images/task_images/land.jpg,65,,,,,,,,,,,3,,,,,,,,,,,,,
dig_prac,37,233949,0.0-14.0-0.0,"""event"",""trial"",""time""
""fullscreenenter"",""1"",""2152""
","
","
","""event"",""trial"",""time""
""fullscreenenter"",""1"",""2152""
","
",,,,,,,,,,,,"[{""stimulus"":""run_exp/static/images/task_images/dig.jpg"",""time"":0.30000000447034836},{""stimulus"":""run_exp/static/images/task_images/land.jpg"",""time"":668.8000000044703},{""stimulus"":""run_exp/static/images/task_images/dig.jpg"",""time"":1335.7000000029802}]",[],,,,,,,,,,,,,,,
harvest_prac,38,234951,0.0-14.0-1.0,"""event"",""trial"",""time""
""fullscreenenter"",""1"",""2152""
","
","
","""event"",""trial"",""time""
""fullscreenenter"",""1"",""2152""
","
",,null,run_exp/static/images/task_images/barrel_text.jpg,null,,,,,,,,,,,,,,,,,,,,,,,,
decision_prac,39,236516,0.0-14.0-2.0,"""event"",""trial"",""time""
""fullscreenenter"",""1"",""2152""
","
","
","""event"",""trial"",""time""
""fullscreenenter"",""1"",""2152""
","
",,1562.8,run_exp/static/images/task_images/land.jpg,65,,,,,,,,,,,4,,,,,,,,,,,,,
dig_prac,40,238522,0.0-15.0-0.0,"""event"",""trial"",""time""
""fullscreenenter"",""1"",""2152""
","
","
","""event"",""trial"",""time""
""fullscreenenter"",""1"",""2152""
","
",,,,,,,,,,,,"[{""stimulus"":""run_exp/static/images/task_images/dig.jpg"",""time"":0.3999999985098839},{""stimulus"":""run_exp/static/images/task_images/land.jpg"",""time"":668.5},{""stimulus"":""run_exp/static/images/task_images/dig.jpg"",""time"":1335.2999999970198}]",[],,,,,,,,,,,,,,,
harvest_prac,41,239524,0.0-15.0-1.0,"""event"",""trial"",""time""
""fullscreenenter"",""1"",""2152""
","
","
","""event"",""trial"",""time""
""fullscreenenter"",""1"",""2152""
","
",,null,run_exp/static/images/task_images/barrel_text.jpg,null,,,,,,,,,,,,,,,,,,,,,,,,
decision_prac,42,239992,0.0-15.0-2.0,"""event"",""trial"",""time""
""fullscreenenter"",""1"",""2152""
","
","
","""event"",""trial"",""time""
""fullscreenenter"",""1"",""2152""
","
",,466,run_exp/static/images/task_images/land.jpg,65,,,,,,,,,,,,1,,,,,,,,,,,,
quiz_instruc,43,241454,0.0-16.0-0.0,"""event"",""trial"",""time""
""fullscreenenter"",""1"",""2152""
","
","
","""event"",""trial"",""time""
""fullscreenenter"",""1"",""2152""
","
",,1457.9,run_exp/static/audio/clip_10_quiz.m4a,,,,,,,0,,,,,,,,,,,,,,,,,,
instruc_repeat,44,284499,0.0-16.0-1.0,"""event"",""trial"",""time""
""fullscreenenter"",""1"",""2152""
","
","
","""event"",""trial"",""time""
""fullscreenenter"",""1"",""2152""
","
",,null,"<p> Are you ready to play a practice game? </p> <p>In this practice game, you'll be digging up barrels of gems. But, in the real game, you'll be digging up the gems themselves. </p>",null,"<p>In this game, your goal is to collect as many gems as you can. That’s how you will win bonus money. </p> <p>The entire game will last 20 minutes no matter how many gems you collect or how many planets you visit. </p><p>To stay on a planet and dig again, press the letter A on your keyboard. To leave for a new planet, press the letter L.</p><p>The more you dig on a planet, the fewer gems you’ll get with each dig which is why you might consider leaving for a new planet. </p><p>When you arrive at a new planet, you’ll be greeted by an alien. What the alien looks like does not tell you anything about how much treasure is on the planet. </p>",,,,,,,,,,,,,,,,,,,,,,,
instruc_repeat_continue,45,286332,0.0-16.0-2.0,"""event"",""trial"",""time""
""fullscreenenter"",""1"",""2152""
","
","
","""event"",""trial"",""time""
""fullscreenenter"",""1"",""2152""
","
",,1831.9,"<p> Are you ready to play a practice game? </p> <p>In this practice game, you'll be digging up barrels of gems. But, in the real game, you'll be digging up the gems themselves. </p>",,,,,,,0,,,,,,,,,,,,,,,,,,
quiz_q_1_ask,46,296391,0.0-16.0-3.0,"""event"",""trial"",""time""
""fullscreenenter"",""1"",""2152""
","
","
","""event"",""trial"",""time""
""fullscreenenter"",""1"",""2152""
","
",,10056.2,run_exp/static/audio/clip_11_q1_ask.m4a,,,,,,,2,,,,,,,,,,,,,,,,,,
quiz_q_1_fb_correct,47,300627,0.0-17.0-0.0,"""event"",""trial"",""time""
""fullscreenenter"",""1"",""2152""
","
","
","""event"",""trial"",""time""
""fullscreenenter"",""1"",""2152""
","
",,null,run_exp/static/audio/clip_12_q1_correct.m4a,null,<p>That’s correct. You win extra money by collecting more gems.</p>,,,,,,,,,,,,,,,,,,,,,,,
quiz_q_2_ask,48,313447,0.0-17.0-1.0,"""event"",""trial"",""time""
""fullscreenenter"",""1"",""2152""
","
","
","""event"",""trial"",""time""
""fullscreenenter"",""1"",""2152""
","
",,12815.4,run_exp/static/audio/clip_14_q2_ask.m4a,,,,,,,1,,,,,,,,,,,,,,,,,,
quiz_q_2_fb_correct,49,317652,0.0-18.0-0.0,"""event"",""trial"",""time""
""fullscreenenter"",""1"",""2152""
","
","
","""event"",""trial"",""time""
""fullscreenenter"",""1"",""2152""
","
",,null,run_exp/static/audio/clip_15_q2_correct.m4a,null,<p>That’s correct. The experiment is 20 minutes no matter what.</p>,,,,,,,,,,,,,,,,,,,,,,,
quiz_q_3_ask,50,322401,0.0-18.0-1.0,"""event"",""trial"",""time""
""fullscreenenter"",""1"",""2152""
","
","
","""event"",""trial"",""time""
""fullscreenenter"",""1"",""2152""
","
",,4746,run_exp/static/audio/clip_17_q3_ask.m4a,,,,,,,1,,,,,,,,,,,,,,,,,,
quiz_q_3_fb_correct,51,326740,0.0-19.0-0.0,"""event"",""trial"",""time""
""fullscreenenter"",""1"",""2152""
","
","
","""event"",""trial"",""time""
""fullscreenenter"",""1"",""2152""
","
",,null,run_exp/static/audio/clip_18_q3_correct.m4a,null,<p> That’s correct. You press the letter L to travel to a new planet.</p>,,,,,,,,,,,,,,,,,,,,,,,
quiz_q_4_ask,52,329563,0.0-19.0-1.0,"""event"",""trial"",""time""
""fullscreenenter"",""1"",""2152""
","
","
","""event"",""trial"",""time""
""fullscreenenter"",""1"",""2152""
","
",,2820.8,run_exp/static/audio/clip_20_q4_ask.m4a,,,,,,,0,,,,,,,,,,,,,,,,,,
quiz_q_4_fb_correct,53,335187,0.0-20.0-0.0,"""event"",""trial"",""time""
""fullscreenenter"",""1"",""2152""
","
","
","""event"",""trial"",""time""
""fullscreenenter"",""1"",""2152""
","
",,null,run_exp/static/audio/clip_21_q4_correct.m4a,null,<p> That’s correct. The more you dig on a planet the fewer gems you’ll get with each dig. </p>,,,,,,,,,,,,,,,,,,,,,,,
quiz_q_5_ask,54,337879,0.0-20.0-1.0,"""event"",""trial"",""time""
""fullscreenenter"",""1"",""2152""
","
","
","""event"",""trial"",""time""
""fullscreenenter"",""1"",""2152""
","
",,2688.9,run_exp/static/audio/clip_23_q5_ask.m4a,,,,,,,1,,,,,,,,,,,,,,,,,,
quiz_q_5_fb_correct,55,343251,0.0-21.0-0.0,"""event"",""trial"",""time""
""fullscreenenter"",""1"",""2152""
","
","
","""event"",""trial"",""time""
""fullscreenenter"",""1"",""2152""
","
",,null,run_exp/static/audio/clip_24_q5_correct.m4a,null,<p> That’s correct. The alien tells you nothing about how much treasure is on the planet.</p>,,,,,,,,,,,,,,,,,,,,,,,
quiz_correct,56,347091,0.0-22.0-0.0,"""event"",""trial"",""time""
""fullscreenenter"",""1"",""2152""
","
","
","""event"",""trial"",""time""
""fullscreenenter"",""1"",""2152""
","
",,null,run_exp/static/audio/clip_26_correct_quiz.m4a,null,,,,,,,,,,,,,,,,,,,,,,,,
quiz_correct_continue,57,349141,0.0-22.0-1.0,"""event"",""trial"",""time""
""fullscreenenter"",""1"",""2152""
","
","
","""event"",""trial"",""time""
""fullscreenenter"",""1"",""2152""
","
",,2048.2,<p>Good job! You're now ready to move on to the real game!</p>,,,,,,,0,,,,,,,,,,,,,,,,,,
audio-keyboard-response,58,359635,0.0-22.0-2.0,"""event"",""trial"",""time""
""fullscreenenter"",""1"",""2152""
","
","
","""event"",""trial"",""time""
""fullscreenenter"",""1"",""2152""
","
",,null,run_exp/static/audio/clip_28_real_game.m4a,null,,,,,,,,,,,,,,,,,,,,,,,,
instruc_begin_exp_contine,59,360785,0.0-22.0-3.0,"""event"",""trial"",""time""
""fullscreenenter"",""1"",""2152""
","
","
","""event"",""trial"",""time""
""fullscreenenter"",""1"",""2152""
","
",,1148.4,"<p>Now that you know how  to dig for space treasure and travel to new planets,you can start exploring! </p><p>Do you want to go over the instructions again or get started with the real game?</p>",,,,,,,1,,,,,,1,,,,,,,,,,,,
alien_welcome,60,365790,0.0-23.0-0.0,"""event"",""trial"",""time""
""fullscreenenter"",""1"",""2152""
","
","
","""event"",""trial"",""time""
""fullscreenenter"",""1"",""2152""
","
",,null,run_exp/static/images/task_images/aliens/old_aliens/planet/alien_planet-8.jpg,null,,,,,,,,,,,,,8,"8,33,34,16,42,78,23,35,66,60,47,79,24,80,39,32,70,69,55,73,72,25,54,21,12,3",,,,,,,,,,
land,61,366294,0.0-23.0-1.0,"""event"",""trial"",""time""
""fullscreenenter"",""1"",""2152""
","
","
","""event"",""trial"",""time""
""fullscreenenter"",""1"",""2152""
","
",,null,run_exp/static/images/task_images/land.jpg,null,,,,,,,101,,,1,,,,,,,,,,,,,,
dig,62,368298,0.0-23.0-2.0,"""event"",""trial"",""time""
""fullscreenenter"",""1"",""2152""
","
","
","""event"",""trial"",""time""
""fullscreenenter"",""1"",""2152""
","
",,,,,,,,,,,,"[{""stimulus"":""run_exp/static/images/task_images/dig.jpg"",""time"":0.3999999985098839},{""stimulus"":""run_exp/static/images/task_images/land.jpg"",""time"":668.6000000014901},{""stimulus"":""run_exp/static/images/task_images/dig.jpg"",""time"":1335.8999999985099}]",[],1,,,,,,,,,,,,,,
harvest,63,369301,0.0-23.0-3.0,"""event"",""trial"",""time""
""fullscreenenter"",""1"",""2152""
","
","
","""event"",""trial"",""time""
""fullscreenenter"",""1"",""2152""
","
",,null,run_exp/static/images/task_images/gems/101.jpg,null,,,,,,,23,,,1,,,,,101,0.228149974,0.227722772,,,,,,,
decision,64,370176,0.0-23.0-4.0,"""event"",""trial"",""time""
""fullscreenenter"",""1"",""2152""
","
","
","""event"",""trial"",""time""
""fullscreenenter"",""1"",""2152""
","
",,872.7,run_exp/static/images/task_images/land.jpg,65,,,,,,,23,,,1,,,,,,,,9389,1,0,FALSE,,,
dig,65,372308,0.0-24.0-0.0,"""event"",""trial"",""time""
""fullscreenenter"",""1"",""2152""
","
","
","""event"",""trial"",""time""
""fullscreenenter"",""1"",""2152""
","
",,,,,,,,,,,,"[{""stimulus"":""run_exp/static/images/task_images/dig.jpg"",""time"":0.20000000298023224},{""stimulus"":""run_exp/static/images/task_images/land.jpg"",""time"":710.7999999970198},{""stimulus"":""run_exp/static/images/task_images/dig.jpg"",""time"":1419.2999999970198}]",[],1,,,,,,,,,,,,,,
harvest,66,373310,0.0-24.0-1.0,"""event"",""trial"",""time""
""fullscreenenter"",""1"",""2152""
","
","
","""event"",""trial"",""time""
""fullscreenenter"",""1"",""2152""
","
",,null,run_exp/static/images/task_images/gems/23.jpg,null,,,,,,,5,,,1,,,,,23,0.23461086,0.217391304,,,,,,,
decision,67,373330,0.0-24.0-2.0,"""event"",""trial"",""time""
""fullscreenenter"",""1"",""2152""
","
","
","""event"",""trial"",""time""
""fullscreenenter"",""1"",""2152""
","
",,18.2,run_exp/static/images/task_images/land.jpg,65,,,,,,,5,,,1,,,,,,,,12543,1,1,FALSE,,,
dig,68,376314,0.0-25.0-0.0,"""event"",""trial"",""time""
""fullscreenenter"",""1"",""2152""
","
","
","""event"",""trial"",""time""
""fullscreenenter"",""1"",""2152""
","
",,,,,,,,,,,,"[{""stimulus"":""run_exp/static/images/task_images/dig.jpg"",""time"":0.20000000298023224},{""stimulus"":""run_exp/static/images/task_images/land.jpg"",""time"":994.3000000044703},{""stimulus"":""run_exp/static/images/task_images/dig.jpg"",""time"":1987.5}]",[],1,,,,,,,,,,,,,,
harvest,69,377316,0.0-25.0-1.0,"""event"",""trial"",""time""
""fullscreenenter"",""1"",""2152""
","
","
","""event"",""trial"",""time""
""fullscreenenter"",""1"",""2152""
","
",,null,run_exp/static/images/task_images/gems/5.jpg,null,,,,,,,1,,,1,,,,,5,0.195255227,0.2,,,,,,,
decision,70,377371,0.0-25.0-2.0,"""event"",""trial"",""time""
""fullscreenenter"",""1"",""2152""
","
","
","""event"",""trial"",""time""
""fullscreenenter"",""1"",""2152""
","
",,52.6,run_exp/static/images/task_images/land.jpg,65,,,,,,,1,,,1,,,,,,,,16584,1,2,FALSE,,,
dig,71,380322,0.0-26.0-0.0,"""event"",""trial"",""time""
""fullscreenenter"",""1"",""2152""
","
","
","""event"",""trial"",""time""
""fullscreenenter"",""1"",""2152""
","
",,,,,,,,,,,,"[{""stimulus"":""run_exp/static/images/task_images/dig.jpg"",""time"":0.29999999701976776},{""stimulus"":""run_exp/static/images/task_images/land.jpg"",""time"":983.6999999955297},{""stimulus"":""run_exp/static/images/task_images/dig.jpg"",""time"":1965.5999999940395}]",[],1,,,,,,,,,,,,,,
harvest,72,381324,0.0-26.0-1.0,"""event"",""trial"",""time""
""fullscreenenter"",""1"",""2152""
","
","
","""event"",""trial"",""time""
""fullscreenenter"",""1"",""2152""
","
",,null,run_exp/static/images/task_images/gems/1.jpg,null,,,,,,,0,,,1,,,,,1,0.145166338,0,,,,,,,
decision,73,382156,0.0-26.0-2.0,"""event"",""trial"",""time""
""fullscreenenter"",""1"",""2152""
","
","
","""event"",""trial"",""time""
""fullscreenenter"",""1"",""2152""
","
",,829.8,run_exp/static/images/task_images/land.jpg,65,,,,,,,0,,,1,,,,,,,,21369,1,3,FALSE,,,
dig,74,384330,0.0-27.0-0.0,"""event"",""trial"",""time""
""fullscreenenter"",""1"",""2152""
","
","
","""event"",""trial"",""time""
""fullscreenenter"",""1"",""2152""
","
",,,,,,,,,,,,"[{""stimulus"":""run_exp/static/images/task_images/dig.jpg"",""time"":0.30000000447034836},{""stimulus"":""run_exp/static/images/task_images/land.jpg"",""time"":724.7000000029802},{""stimulus"":""run_exp/static/images/task_images/dig.jpg"",""time"":1447.6000000014901}]",[],1,,,,,,,,,,,,,,
harvest,75,385332,0.0-27.0-1.0,"""event"",""trial"",""time""
""fullscreenenter"",""1"",""2152""
","
","
","""event"",""trial"",""time""
""fullscreenenter"",""1"",""2152""
","
",,null,run_exp/static/images/task_images/gems/0.jpg,null,,,,,,,0,,,1,,,,,0,0.249576211,NaN,,,,,,,
decision,76,386232,0.0-27.0-2.0,"""event"",""trial"",""time""
""fullscreenenter"",""1"",""2152""
","
","
","""event"",""trial"",""time""
""fullscreenenter"",""1"",""2152""
","
",,898.4,run_exp/static/images/task_images/land.jpg,76,,,,,,,0,,,1,,,,,,,,25445,1,4,TRUE,,,
travel,77,395336,0.0-28.0-0.0,"""event"",""trial"",""time""
""fullscreenenter"",""1"",""2152""
","
","
","""event"",""trial"",""time""
""fullscreenenter"",""1"",""2152""
","
",,,,,,,,,,,,"[{""stimulus"":""run_exp/static/images/task_images/rocket-01.jpg"",""time"":0.20000000298023224},{""stimulus"":""run_exp/static/images/task_images/rocket-02.jpg"",""time"":1013.1000000014901},{""stimulus"":""run_exp/static/images/task_images/rocket-03.jpg"",""time"":2023.5},{""stimulus"":""run_exp/static/images/task_images/rocket-04.jpg"",""time"":3034.5},{""stimulus"":""run_exp/static/images/task_images/rocket-05.jpg"",""time"":4045.39999999851},{""stimulus"":""run_exp/static/images/task_images/rocket-06.jpg"",""time"":5056.5},{""stimulus"":""run_exp/static/images/task_images/rocket-07.jpg"",""time"":6067.39999999851},{""stimulus"":""run_exp/static/images/task_images/rocket-08.jpg"",""time"":7078.70000000298},{""stimulus"":""run_exp/static/images/task_images/rocket-09.jpg"",""time"":8089.5}]",[],1,,,,,,,,,,,,,,
alien_welcome,78,400339,0.0-28.0-1.0,"""event"",""trial"",""time""
""fullscreenenter"",""1"",""2152""
","
","
","""event"",""trial"",""time""
""fullscreenenter"",""1"",""2152""
","
",,null,run_exp/static/images/task_images/aliens/old_aliens/planet/alien_planet-33.jpg,null,,,,,,,,,,,,,33,"8,33,34,16,42,78,23,35,66,60,47,79,24,80,39,32,70,69,55,73,72,25,54,21,12,3",,,,,,,,,,
land,79,400841,0.0-28.0-2.0,"""event"",""trial"",""time""
""fullscreenenter"",""1"",""2152""
","
","
","""event"",""trial"",""time""
""fullscreenenter"",""1"",""2152""
","
",,null,run_exp/static/images/task_images/land.jpg,null,,,,,,,104,,,2,,,,,,,,,,,,,,
dig,80,402845,0.0-28.0-3.0,"""event"",""trial"",""time""
""fullscreenenter"",""1"",""2152""
","
","
","""event"",""trial"",""time""
""fullscreenenter"",""1"",""2152""
","
",,,,,,,,,,,,"[{""stimulus"":""run_exp/static/images/task_images/dig.jpg"",""time"":0.29999999701976776},{""stimulus"":""run_exp/static/images/task_images/land.jpg"",""time"":668.3999999985099},{""stimulus"":""run_exp/static/images/task_images/dig.jpg"",""time"":1335.2999999970198}]",[],2,,,,,,,,,,,,,,
harvest,81,403847,0.0-28.0-4.0,"""event"",""trial"",""time""
""fullscreenenter"",""1"",""2152""
","
","
","""event"",""trial"",""time""
""fullscreenenter"",""1"",""2152""
","
",,null,run_exp/static/images/task_images/gems/104.jpg,null,,,,,,,22,,,2,,,,,104,0.216336633,0.211538462,,,,,,,
decision,82,405444,0.0-28.0-5.0,"""event"",""trial"",""time""
""fullscreenenter"",""1"",""2152""
","
","
","""event"",""trial"",""time""
""fullscreenenter"",""1"",""2152""
","
",,1594.4,run_exp/static/images/task_images/land.jpg,65,,,,,,,22,,,2,,,,,,,,44657,1,0,FALSE,,,
dig,83,406853,0.0-29.0-0.0,"""event"",""trial"",""time""
""fullscreenenter"",""1"",""2152""
","
","
","""event"",""trial"",""time""
""fullscreenenter"",""1"",""2152""
","
",,,,,,,,,,,,"[{""stimulus"":""run_exp/static/images/task_images/dig.jpg"",""time"":0.20000000298023224},{""stimulus"":""run_exp/static/images/task_images/land.jpg"",""time"":470.20000000298023},{""stimulus"":""run_exp/static/images/task_images/dig.jpg"",""time"":937.6000000014901}]",[],2,,,,,,,,,,,,,,
harvest,84,407855,0.0-29.0-1.0,"""event"",""trial"",""time""
""fullscreenenter"",""1"",""2152""
","
","
","""event"",""trial"",""time""
""fullscreenenter"",""1"",""2152""
","
",,null,run_exp/static/images/task_images/gems/22.jpg,null,,,,,,,6,,,2,,,,,22,0.253603302,0.272727273,,,,,,,
decision,85,408401,0.0-29.0-2.0,"""event"",""trial"",""time""
""fullscreenenter"",""1"",""2152""
","
","
","""event"",""trial"",""time""
""fullscreenenter"",""1"",""2152""
","
",,543.4,run_exp/static/images/task_images/land.jpg,65,,,,,,,6,,,2,,,,,,,,47614,1,1,FALSE,,,
dig,86,410860,0.0-30.0-0.0,"""event"",""trial"",""time""
""fullscreenenter"",""1"",""2152""
","
","
","""event"",""trial"",""time""
""fullscreenenter"",""1"",""2152""
","
",,,,,,,,,,,,"[{""stimulus"":""run_exp/static/images/task_images/dig.jpg"",""time"":0.20000000298023224},{""stimulus"":""run_exp/static/images/task_images/land.jpg"",""time"":819.9000000059605},{""stimulus"":""run_exp/static/images/task_images/dig.jpg"",""time"":1637.9000000059605}]",[],2,,,,,,,,,,,,,,
harvest,87,411862,0.0-30.0-1.0,"""event"",""trial"",""time""
""fullscreenenter"",""1"",""2152""
","
","
","""event"",""trial"",""time""
""fullscreenenter"",""1"",""2152""
","
",,null,run_exp/static/images/task_images/gems/6.jpg,null,,,,,,,1,,,2,,,,,6,0.161363657,0.166666667,,,,,,,
decision,88,413039,0.0-30.0-2.0,"""event"",""trial"",""time""
""fullscreenenter"",""1"",""2152""
","
","
","""event"",""trial"",""time""
""fullscreenenter"",""1"",""2152""
","
",,1176,run_exp/static/images/task_images/land.jpg,76,,,,,,,1,,,2,,,,,,,,52253,1,2,TRUE,,,
travel,89,421865,0.0-31.0-0.0,"""event"",""trial"",""time""
""fullscreenenter"",""1"",""2152""
","
","
","""event"",""trial"",""time""
""fullscreenenter"",""1"",""2152""
","
",,,,,,,,,,,,"[{""stimulus"":""run_exp/static/images/task_images/rocket-01.jpg"",""time"":0.30000000447034836},{""stimulus"":""run_exp/static/images/task_images/rocket-02.jpg"",""time"":982.2000000029802},{""stimulus"":""run_exp/static/images/task_images/rocket-03.jpg"",""time"":1962.7000000029802},{""stimulus"":""run_exp/static/images/task_images/rocket-04.jpg"",""time"":2941.9000000059605},{""stimulus"":""run_exp/static/images/task_images/rocket-05.jpg"",""time"":3921.9000000059605},{""stimulus"":""run_exp/static/images/task_images/rocket-06.jpg"",""time"":4902.20000000298},{""stimulus"":""run_exp/static/images/task_images/rocket-07.jpg"",""time"":5882.30000000447},{""stimulus"":""run_exp/static/images/task_images/rocket-08.jpg"",""time"":6861.80000000447},{""stimulus"":""run_exp/static/images/task_images/rocket-09.jpg"",""time"":7842.10000000149}]",[],2,,,,,,,,,,,,,,
alien_welcome,90,426868,0.0-31.0-1.0,"""event"",""trial"",""time""
""fullscreenenter"",""1"",""2152""
","
","
","""event"",""trial"",""time""
""fullscreenenter"",""1"",""2152""
","
",,null,run_exp/static/images/task_images/aliens/old_aliens/planet/alien_planet-34.jpg,null,,,,,,,,,,,,,34,"8,33,34,16,42,78,23,35,66,60,47,79,24,80,39,32,70,69,55,73,72,25,54,21,12,3",,,,,,,,,,
land,91,427370,0.0-31.0-2.0,"""event"",""trial"",""time""
""fullscreenenter"",""1"",""2152""
","
","
","""event"",""trial"",""time""
""fullscreenenter"",""1"",""2152""
","
",,null,run_exp/static/images/task_images/land.jpg,null,,,,,,,99,,,3,,,,,,,,,,,,,,
dig,92,429374,0.0-31.0-3.0,"""event"",""trial"",""time""
""fullscreenenter"",""1"",""2152""
","
","
","""event"",""trial"",""time""
""fullscreenenter"",""1"",""2152""
","
",,,,,,,,,,,,"[{""stimulus"":""run_exp/static/images/task_images/dig.jpg"",""time"":0.3999999985098839},{""stimulus"":""run_exp/static/images/task_images/land.jpg"",""time"":668.8000000044703},{""stimulus"":""run_exp/static/images/task_images/dig.jpg"",""time"":1335.7000000029802}]",[],3,,,,,,,,,,,,,,
harvest,93,430376,0.0-31.0-4.0,"""event"",""trial"",""time""
""fullscreenenter"",""1"",""2152""
","
","
","""event"",""trial"",""time""
""fullscreenenter"",""1"",""2152""
","
",,null,run_exp/static/images/task_images/gems/99.jpg,null,,,,,,,41,,,3,,,,,99,0.409722358,0.414141414,,,,,,,
decision,94,431163,0.0-31.0-5.0,"""event"",""trial"",""time""
""fullscreenenter"",""1"",""2152""
","
","
","""event"",""trial"",""time""
""fullscreenenter"",""1"",""2152""
","
",,785.5,run_exp/static/images/task_images/land.jpg,65,,,,,,,41,,,3,,,,,,,,70376,1,0,FALSE,,,
dig,95,433383,0.0-32.0-0.0,"""event"",""trial"",""time""
""fullscreenenter"",""1"",""2152""
","
","
","""event"",""trial"",""time""
""fullscreenenter"",""1"",""2152""
","
",,,,,,,,,,,,"[{""stimulus"":""run_exp/static/images/task_images/dig.jpg"",""time"":0.29999999701976776},{""stimulus"":""run_exp/static/images/task_images/land.jpg"",""time"":739.6000000014901},{""stimulus"":""run_exp/static/images/task_images/dig.jpg"",""time"":1477.7000000029802}]",[],3,,,,,,,,,,,,,,
harvest,96,434386,0.0-32.0-1.0,"""event"",""trial"",""time""
""fullscreenenter"",""1"",""2152""
","
","
","""event"",""trial"",""time""
""fullscreenenter"",""1"",""2152""
","
",,null,run_exp/static/images/task_images/gems/41.jpg,null,,,,,,,22,,,3,,,,,41,0.535063812,0.536585366,,,,,,,
decision,97,434681,0.0-32.0-2.0,"""event"",""trial"",""time""
""fullscreenenter"",""1"",""2152""
","
","
","""event"",""trial"",""time""
""fullscreenenter"",""1"",""2152""
","
",,293.3,run_exp/static/images/task_images/land.jpg,65,,,,,,,22,,,3,,,,,,,,73894,1,1,FALSE,,,
dig,98,437392,0.0-33.0-0.0,"""event"",""trial"",""time""
""fullscreenenter"",""1"",""2152""
","
","
","""event"",""trial"",""time""
""fullscreenenter"",""1"",""2152""
","
",,,,,,,,,,,,"[{""stimulus"":""run_exp/static/images/task_images/dig.jpg"",""time"":0.20000000298023224},{""stimulus"":""run_exp/static/images/task_images/land.jpg"",""time"":903.7000000029802},{""stimulus"":""run_exp/static/images/task_images/dig.jpg"",""time"":1805.5}]",[],3,,,,,,,,,,,,,,
harvest,99,438394,0.0-33.0-1.0,"""event"",""trial"",""time""
""fullscreenenter"",""1"",""2152""
","
","
","""event"",""trial"",""time""
""fullscreenenter"",""1"",""2152""
","
",,null,run_exp/static/images/task_images/gems/22.jpg,null,,,,,,,12,,,3,,,,,22,0.536885287,0.545454545,,,,,,,
decision,100,438416,0.0-33.0-2.0,"""event"",""trial"",""time""
""fullscreenenter"",""1"",""2152""
","
","
","""event"",""trial"",""time""
""fullscreenenter"",""1"",""2152""
","
",,21.6,run_exp/static/images/task_images/land.jpg,65,,,,,,,12,,,3,,,,,,,,77630,1,2,FALSE,,,
dig,101,441398,0.0-34.0-0.0,"""event"",""trial"",""time""
""fullscreenenter"",""1"",""2152""
","
","
","""event"",""trial"",""time""
""fullscreenenter"",""1"",""2152""
","
",,,,,,,,,,,,"[{""stimulus"":""run_exp/static/images/task_images/dig.jpg"",""time"":0.19999999552965164},{""stimulus"":""run_exp/static/images/task_images/land.jpg"",""time"":993.5999999940395},{""stimulus"":""run_exp/static/images/task_images/dig.jpg"",""time"":1985.5}]",[],3,,,,,,,,,,,,,,
harvest,102,442400,0.0-34.0-1.0,"""event"",""trial"",""time""
""fullscreenenter"",""1"",""2152""
","
","
","""event"",""trial"",""time""
""fullscreenenter"",""1"",""2152""
","
",,null,run_exp/static/images/task_images/gems/12.jpg,null,,,,,,,6,,,3,,,,,12,0.479809321,0.5,,,,,,,
decision,103,444806,0.0-34.0-2.0,"""event"",""trial"",""time""
""fullscreenenter"",""1"",""2152""
","
","
","""event"",""trial"",""time""
""fullscreenenter"",""1"",""2152""
","
",,2405.3,run_exp/static/images/task_images/land.jpg,65,,,,,,,6,,,3,,,,,,,,84020,1,3,FALSE,,,
dig,104,445408,0.0-35.0-0.0,"""event"",""trial"",""time""
""fullscreenenter"",""1"",""2152""
","
","
","""event"",""trial"",""time""
""fullscreenenter"",""1"",""2152""
","
",,,,,,,,,,,,"[{""stimulus"":""run_exp/static/images/task_images/dig.jpg"",""time"":0.7000000029802322},{""stimulus"":""run_exp/static/images/task_images/land.jpg"",""time"":199.89999999850988},{""stimulus"":""run_exp/static/images/task_images/dig.jpg"",""time"":398.1000000014901}]",[],3,,,,,,,,,,,,,,
harvest,105,446410,0.0-35.0-1.0,"""event"",""trial"",""time""
""fullscreenenter"",""1"",""2152""
","
","
","""event"",""trial"",""time""
""fullscreenenter"",""1"",""2152""
","
",,null,run_exp/static/images/task_images/gems/6.jpg,null,,,,,,,4,,,3,,,,,6,0.63884701,0.666666667,,,,,,,
decision,106,448065,0.0-35.0-2.0,"""event"",""trial"",""time""
""fullscreenenter"",""1"",""2152""
","
","
","""event"",""trial"",""time""
""fullscreenenter"",""1"",""2152""
","
",,1653.5,run_exp/static/images/task_images/land.jpg,65,,,,,,,4,,,3,,,,,,,,87279,1,4,FALSE,,,
dig,107,449417,0.0-36.0-0.0,"""event"",""trial"",""time""
""fullscreenenter"",""1"",""2152""
","
","
","""event"",""trial"",""time""
""fullscreenenter"",""1"",""2152""
","
",,,,,,,,,,,,"[{""stimulus"":""run_exp/static/images/task_images/dig.jpg"",""time"":0.20000000298023224},{""stimulus"":""run_exp/static/images/task_images/land.jpg"",""time"":449.79999999701977},{""stimulus"":""run_exp/static/images/task_images/dig.jpg"",""time"":897.6000000014901}]",[],3,,,,,,,,,,,,,,
harvest,108,450419,0.0-36.0-1.0,"""event"",""trial"",""time""
""fullscreenenter"",""1"",""2152""
","
","
","""event"",""trial"",""time""
""fullscreenenter"",""1"",""2152""
","
",,null,run_exp/static/images/task_images/gems/4.jpg,null,,,,,,,2,,,3,,,,,4,0.536173721,0.5,,,,,,,
decision,109,451313,0.0-36.0-2.0,"""event"",""trial"",""time""
""fullscreenenter"",""1"",""2152""
","
","
","""event"",""trial"",""time""
""fullscreenenter"",""1"",""2152""
","
",,893.3,run_exp/static/images/task_images/land.jpg,76,,,,,,,2,,,3,,,,,,,,90527,1,5,TRUE,,,
travel,110,460418,0.0-37.0-0.0,"""event"",""trial"",""time""
""fullscreenenter"",""1"",""2152""
","
","
","""event"",""trial"",""time""
""fullscreenenter"",""1"",""2152""
","
",,,,,,,,,,,,"[{""stimulus"":""run_exp/static/images/task_images/rocket-01.jpg"",""time"":0.30000000447034836},{""stimulus"":""run_exp/static/images/task_images/rocket-02.jpg"",""time"":1012.9000000059605},{""stimulus"":""run_exp/static/images/task_images/rocket-03.jpg"",""time"":2023.5},{""stimulus"":""run_exp/static/images/task_images/rocket-04.jpg"",""time"":3034.3000000044703},{""stimulus"":""run_exp/static/images/task_images/rocket-05.jpg"",""time"":4045.60000000149},{""stimulus"":""run_exp/static/images/task_images/rocket-06.jpg"",""time"":5056.70000000298},{""stimulus"":""run_exp/static/images/task_images/rocket-07.jpg"",""time"":6067.5},{""stimulus"":""run_exp/static/images/task_images/rocket-08.jpg"",""time"":7078.4000000059605},{""stimulus"":""run_exp/static/images/task_images/rocket-09.jpg"",""time"":8089.5}]",[],3,,,,,,,,,,,,,,
alien_welcome,111,465421,0.0-37.0-1.0,"""event"",""trial"",""time""
""fullscreenenter"",""1"",""2152""
","
","
","""event"",""trial"",""time""
""fullscreenenter"",""1"",""2152""
","
",,null,run_exp/static/images/task_images/aliens/old_aliens/planet/alien_planet-16.jpg,null,,,,,,,,,,,,,16,"8,33,34,16,42,78,23,35,66,60,47,79,24,80,39,32,70,69,55,73,72,25,54,21,12,3",,,,,,,,,,
land,112,465923,0.0-37.0-2.0,"""event"",""trial"",""time""
""fullscreenenter"",""1"",""2152""
","
","
","""event"",""trial"",""time""
""fullscreenenter"",""1"",""2152""
","
",,null,run_exp/static/images/task_images/land.jpg,null,,,,,,,101,,,4,,,,,,,,,,,,,,
dig,113,467927,0.0-37.0-3.0,"""event"",""trial"",""time""
""fullscreenenter"",""1"",""2152""
","
","
","""event"",""trial"",""time""
""fullscreenenter"",""1"",""2152""
","
",,,,,,,,,,,,"[{""stimulus"":""run_exp/static/images/task_images/dig.jpg"",""time"":0.29999999701976776},{""stimulus"":""run_exp/static/images/task_images/land.jpg"",""time"":668.6999999955297},{""stimulus"":""run_exp/static/images/task_images/dig.jpg"",""time"":1335.5}]",[],4,,,,,,,,,,,,,,
harvest,114,468929,0.0-37.0-4.0,"""event"",""trial"",""time""
""fullscreenenter"",""1"",""2152""
","
","
","""event"",""trial"",""time""
""fullscreenenter"",""1"",""2152""
","
",,null,run_exp/static/images/task_images/gems/101.jpg,null,,,,,,,51,,,4,,,,,101,0.50128622,0.504950495,,,,,,,
decision,115,469048,0.0-37.0-5.0,"""event"",""trial"",""time""
""fullscreenenter"",""1"",""2152""
","
","
","""event"",""trial"",""time""
""fullscreenenter"",""1"",""2152""
","
",,117.9,run_exp/static/images/task_images/land.jpg,65,,,,,,,51,,,4,,,,,,,,108262,1,0,FALSE,,,
dig,116,471935,0.0-38.0-0.0,"""event"",""trial"",""time""
""fullscreenenter"",""1"",""2152""
","
","
","""event"",""trial"",""time""
""fullscreenenter"",""1"",""2152""
","
",,,,,,,,,,,,"[{""stimulus"":""run_exp/static/images/task_images/dig.jpg"",""time"":0.19999999552965164},{""stimulus"":""run_exp/static/images/task_images/land.jpg"",""time"":961.5},{""stimulus"":""run_exp/static/images/task_images/dig.jpg"",""time"":1921.6000000014901}]",[],4,,,,,,,,,,,,,,
harvest,117,472936,0.0-38.0-1.0,"""event"",""trial"",""time""
""fullscreenenter"",""1"",""2152""
","
","
","""event"",""trial"",""time""
""fullscreenenter"",""1"",""2152""
","
",,null,run_exp/static/images/task_images/gems/51.jpg,null,,,,,,,22,,,4,,,,,51,0.438864198,0.431372549,,,,,,,
decision,118,474887,0.0-38.0-2.0,"""event"",""trial"",""time""
""fullscreenenter"",""1"",""2152""
","
","
","""event"",""trial"",""time""
""fullscreenenter"",""1"",""2152""
","
",,1949,run_exp/static/images/task_images/land.jpg,65,,,,,,,22,,,4,,,,,,,,114100,1,1,FALSE,,,
dig,119,475942,0.0-39.0-0.0,"""event"",""trial"",""time""
""fullscreenenter"",""1"",""2152""
","
","
","""event"",""trial"",""time""
""fullscreenenter"",""1"",""2152""
","
",,,,,,,,,,,,"[{""stimulus"":""run_exp/static/images/task_images/dig.jpg"",""time"":0.20000000298023224},{""stimulus"":""run_exp/static/images/task_images/land.jpg"",""time"":351.90000000596046},{""stimulus"":""run_exp/static/images/task_images/dig.jpg"",""time"":701.5}]",[],4,,,,,,,,,,,,,,
harvest,120,476944,0.0-39.0-1.0,"""event"",""trial"",""time""
""fullscreenenter"",""1"",""2152""
","
","
","""event"",""trial"",""time""
""fullscreenenter"",""1"",""2152""
","
",,null,run_exp/static/images/task_images/gems/22.jpg,null,,,,,,,9,,,4,,,,,22,0.405844574,0.409090909,,,,,,,
decision,121,478875,0.0-39.0-2.0,"""event"",""trial"",""time""
""fullscreenenter"",""1"",""2152""
","
","
","""event"",""trial"",""time""
""fullscreenenter"",""1"",""2152""
","
",,1928.7,run_exp/static/images/task_images/land.jpg,65,,,,,,,9,,,4,,,,,,,,118088,1,2,FALSE,,,
dig,122,479951,0.0-40.0-0.0,"""event"",""trial"",""time""
""fullscreenenter"",""1"",""2152""
","
","
","""event"",""trial"",""time""
""fullscreenenter"",""1"",""2152""
","
",,,,,,,,,,,,"[{""stimulus"":""run_exp/static/images/task_images/dig.jpg"",""time"":0.10000000149011612},{""stimulus"":""run_exp/static/images/task_images/land.jpg"",""time"":358.5},{""stimulus"":""run_exp/static/images/task_images/dig.jpg"",""time"":715.3999999985099}]",[],4,,,,,,,,,,,,,,
harvest,123,480953,0.0-40.0-1.0,"""event"",""trial"",""time""
""fullscreenenter"",""1"",""2152""
","
","
","""event"",""trial"",""time""
""fullscreenenter"",""1"",""2152""
","
",,null,run_exp/static/images/task_images/gems/9.jpg,null,,,,,,,5,,,4,,,,,9,0.50283024,0.555555556,,,,,,,
decision,124,481615,0.0-40.0-2.0,"""event"",""trial"",""time""
""fullscreenenter"",""1"",""2152""
","
","
","""event"",""trial"",""time""
""fullscreenenter"",""1"",""2152""
","
",,660.4,run_exp/static/images/task_images/land.jpg,65,,,,,,,5,,,4,,,,,,,,120828,1,3,FALSE,,,
dig,125,483957,0.0-41.0-0.0,"""event"",""trial"",""time""
""fullscreenenter"",""1"",""2152""
","
","
","""event"",""trial"",""time""
""fullscreenenter"",""1"",""2152""
","
",,,,,,,,,,,,"[{""stimulus"":""run_exp/static/images/task_images/dig.jpg"",""time"":0.30000000447034836},{""stimulus"":""run_exp/static/images/task_images/land.jpg"",""time"":780.4000000059605},{""stimulus"":""run_exp/static/images/task_images/dig.jpg"",""time"":1559.5}]",[],4,,,,,,,,,,,,,,
harvest,126,484959,0.0-41.0-1.0,"""event"",""trial"",""time""
""fullscreenenter"",""1"",""2152""
","
","
","""event"",""trial"",""time""
""fullscreenenter"",""1"",""2152""
","
",,null,run_exp/static/images/task_images/gems/5.jpg,null,,,,,,,2,,,4,,,,,5,0.471395102,0.4,,,,,,,
decision,127,485944,0.0-41.0-2.0,"""event"",""trial"",""time""
""fullscreenenter"",""1"",""2152""
","
","
","""event"",""trial"",""time""
""fullscreenenter"",""1"",""2152""
","
",,984,run_exp/static/images/task_images/land.jpg,76,,,,,,,2,,,4,,,,,,,,125157,1,4,TRUE,,,
travel,128,494959,0.0-42.0-0.0,"""event"",""trial"",""time""
""fullscreenenter"",""1"",""2152""
","
","
","""event"",""trial"",""time""
""fullscreenenter"",""1"",""2152""
","
",,,,,,,,,,,,"[{""stimulus"":""run_exp/static/images/task_images/rocket-01.jpg"",""time"":0.29999999701976776},{""stimulus"":""run_exp/static/images/task_images/rocket-02.jpg"",""time"":1002.3999999985099},{""stimulus"":""run_exp/static/images/task_images/rocket-03.jpg"",""time"":2003.6000000014901},{""stimulus"":""run_exp/static/images/task_images/rocket-04.jpg"",""time"":3004.5},{""stimulus"":""run_exp/static/images/task_images/rocket-05.jpg"",""time"":4005.60000000149},{""stimulus"":""run_exp/static/images/task_images/rocket-06.jpg"",""time"":5006.89999999851},{""stimulus"":""run_exp/static/images/task_images/rocket-07.jpg"",""time"":6007.5},{""stimulus"":""run_exp/static/images/task_images/rocket-08.jpg"",""time"":7008.5},{""stimulus"":""run_exp/static/images/task_images/rocket-09.jpg"",""time"":8009.5}]",[],4,,,,,,,,,,,,,,
alien_welcome,129,499962,0.0-42.0-1.0,"""event"",""trial"",""time""
""fullscreenenter"",""1"",""2152""
","
","
","""event"",""trial"",""time""
""fullscreenenter"",""1"",""2152""
","
",,null,run_exp/static/images/task_images/aliens/old_aliens/planet/alien_planet-42.jpg,null,,,,,,,,,,,,,42,"8,33,34,16,42,78,23,35,66,60,47,79,24,80,39,32,70,69,55,73,72,25,54,21,12,3",,,,,,,,,,
land,130,500464,0.0-42.0-2.0,"""event"",""trial"",""time""
""fullscreenenter"",""1"",""2152""
","
","
","""event"",""trial"",""time""
""fullscreenenter"",""1"",""2152""
","
",,null,run_exp/static/images/task_images/land.jpg,null,,,,,,,100,,,5,,,,,,,,,,,,,,
dig,131,502468,0.0-42.0-3.0,"""event"",""trial"",""time""
""fullscreenenter"",""1"",""2152""
","
","
","""event"",""trial"",""time""
""fullscreenenter"",""1"",""2152""
","
",,,,,,,,,,,,"[{""stimulus"":""run_exp/static/images/task_images/dig.jpg"",""time"":0.4000000059604645},{""stimulus"":""run_exp/static/images/task_images/land.jpg"",""time"":668.5},{""stimulus"":""run_exp/static/images/task_images/dig.jpg"",""time"":1335.8000000044703}]",[],5,,,,,,,,,,,,,,
harvest,132,503470,0.0-42.0-4.0,"""event"",""trial"",""time""
""fullscreenenter"",""1"",""2152""
","
","
","""event"",""trial"",""time""
""fullscreenenter"",""1"",""2152""
","
",,null,run_exp/static/images/task_images/gems/100.jpg,null,,,,,,,46,,,5,,,,,100,0.458818977,0.46,,,,,,,
decision,133,503476,0.0-42.0-5.0,"""event"",""trial"",""time""
""fullscreenenter"",""1"",""2152""
","
","
","""event"",""trial"",""time""
""fullscreenenter"",""1"",""2152""
","
",,4.200000003,run_exp/static/images/task_images/land.jpg,65,,,,,,,46,,,5,,,,,,,,142689,1,0,FALSE,,,
dig,134,506476,0.0-43.0-0.0,"""event"",""trial"",""time""
""fullscreenenter"",""1"",""2152""
","
","
","""event"",""trial"",""time""
""fullscreenenter"",""1"",""2152""
","
",,,,,,,,,,,,"[{""stimulus"":""run_exp/static/images/task_images/dig.jpg"",""time"":0.3999999985098839},{""stimulus"":""run_exp/static/images/task_images/land.jpg"",""time"":999.7999999970198},{""stimulus"":""run_exp/static/images/task_images/dig.jpg"",""time"":1997.8999999985099}]",[],5,,,,,,,,,,,,,,
harvest,135,507477,0.0-43.0-1.0,"""event"",""trial"",""time""
""fullscreenenter"",""1"",""2152""
","
","
","""event"",""trial"",""time""
""fullscreenenter"",""1"",""2152""
","
",,null,run_exp/static/images/task_images/gems/46.jpg,null,,,,,,,25,,,5,,,,,46,0.551008075,0.543478261,,,,,,,
decision,136,509464,0.0-43.0-2.0,"""event"",""trial"",""time""
""fullscreenenter"",""1"",""2152""
","
","
","""event"",""trial"",""time""
""fullscreenenter"",""1"",""2152""
","
",,1985.5,run_exp/static/images/task_images/land.jpg,65,,,,,,,25,,,5,,,,,,,,148677,1,1,FALSE,,,
dig,137,510484,0.0-44.0-0.0,"""event"",""trial"",""time""
""fullscreenenter"",""1"",""2152""
","
","
","""event"",""trial"",""time""
""fullscreenenter"",""1"",""2152""
","
",,,,,,,,,,,,"[{""stimulus"":""run_exp/static/images/task_images/dig.jpg"",""time"":0.19999999552965164},{""stimulus"":""run_exp/static/images/task_images/land.jpg"",""time"":339.69999999552965},{""stimulus"":""run_exp/static/images/task_images/dig.jpg"",""time"":677.5}]",[],5,,,,,,,,,,,,,,
harvest,138,511486,0.0-44.0-1.0,"""event"",""trial"",""time""
""fullscreenenter"",""1"",""2152""
","
","
","""event"",""trial"",""time""
""fullscreenenter"",""1"",""2152""
","
",,null,run_exp/static/images/task_images/gems/25.jpg,null,,,,,,,12,,,5,,,,,25,0.485135438,0.48,,,,,,,
decision,139,512761,0.0-44.0-2.0,"""event"",""trial"",""time""
""fullscreenenter"",""1"",""2152""
","
","
","""event"",""trial"",""time""
""fullscreenenter"",""1"",""2152""
","
",,1273.7,run_exp/static/images/task_images/land.jpg,65,,,,,,,12,,,5,,,,,,,,151974,1,2,FALSE,,,
dig,140,514492,0.0-45.0-0.0,"""event"",""trial"",""time""
""fullscreenenter"",""1"",""2152""
","
","
","""event"",""trial"",""time""
""fullscreenenter"",""1"",""2152""
","
",,,,,,,,,,,,"[{""stimulus"":""run_exp/static/images/task_images/dig.jpg"",""time"":0.29999999701976776},{""stimulus"":""run_exp/static/images/task_images/land.jpg"",""time"":576.3999999985099},{""stimulus"":""run_exp/static/images/task_images/dig.jpg"",""time"":1151.3999999985099}]",[],5,,,,,,,,,,,,,,
harvest,141,515494,0.0-45.0-1.0,"""event"",""trial"",""time""
""fullscreenenter"",""1"",""2152""
","
","
","""event"",""trial"",""time""
""fullscreenenter"",""1"",""2152""
","
",,null,run_exp/static/images/task_images/gems/12.jpg,null,,,,,,,5,,,5,,,,,12,0.437194613,0.416666667,,,,,,,
decision,142,515502,0.0-45.0-2.0,"""event"",""trial"",""time""
""fullscreenenter"",""1"",""2152""
","
","
","""event"",""trial"",""time""
""fullscreenenter"",""1"",""2152""
","
",,6.5,run_exp/static/images/task_images/land.jpg,65,,,,,,,5,,,5,,,,,,,,154715,1,3,FALSE,,,
dig,143,518499,0.0-46.0-0.0,"""event"",""trial"",""time""
""fullscreenenter"",""1"",""2152""
","
","
","""event"",""trial"",""time""
""fullscreenenter"",""1"",""2152""
","
",,,,,,,,,,,,"[{""stimulus"":""run_exp/static/images/task_images/dig.jpg"",""time"":0.3999999985098839},{""stimulus"":""run_exp/static/images/task_images/land.jpg"",""time"":999},{""stimulus"":""run_exp/static/images/task_images/dig.jpg"",""time"":1995.5999999940395}]",[],5,,,,,,,,,,,,,,
harvest,144,519502,0.0-46.0-1.0,"""event"",""trial"",""time""
""fullscreenenter"",""1"",""2152""
","
","
","""event"",""trial"",""time""
""fullscreenenter"",""1"",""2152""
","
",,null,run_exp/static/images/task_images/gems/5.jpg,null,,,,,,,2,,,5,,,,,5,0.404639329,0.4,,,,,,,
decision,145,519527,0.0-46.0-2.0,"""event"",""trial"",""time""
""fullscreenenter"",""1"",""2152""
","
","
","""event"",""trial"",""time""
""fullscreenenter"",""1"",""2152""
","
",,23.9,run_exp/static/images/task_images/land.jpg,65,,,,,,,2,,,5,,,,,,,,158740,1,4,FALSE,,,
dig,146,522509,0.0-47.0-0.0,"""event"",""trial"",""time""
""fullscreenenter"",""1"",""2152""
","
","
","""event"",""trial"",""time""
""fullscreenenter"",""1"",""2152""
","
",,,,,,,,,,,,"[{""stimulus"":""run_exp/static/images/task_images/dig.jpg"",""time"":0.19999999552965164},{""stimulus"":""run_exp/static/images/task_images/land.jpg"",""time"":993.8999999985099},{""stimulus"":""run_exp/static/images/task_images/dig.jpg"",""time"":1986.2999999970198}]",[],5,,,,,,,,,,,,,,
harvest,147,523511,0.0-47.0-1.0,"""event"",""trial"",""time""
""fullscreenenter"",""1"",""2152""
","
","
","""event"",""trial"",""time""
""fullscreenenter"",""1"",""2152""
","
",,null,run_exp/static/images/task_images/gems/2.jpg,null,,,,,,,1,,,5,,,,,2,0.512665045,0.5,,,,,,,
decision,148,524122,0.0-47.0-2.0,"""event"",""trial"",""time""
""fullscreenenter"",""1"",""2152""
","
","
","""event"",""trial"",""time""
""fullscreenenter"",""1"",""2152""
","
",,609.4,run_exp/static/images/task_images/land.jpg,76,,,,,,,1,,,5,,,,,,,,163335,1,5,TRUE,,,
travel,149,533514,0.0-48.0-0.0,"""event"",""trial"",""time""
""fullscreenenter"",""1"",""2152""
","
","
","""event"",""trial"",""time""
""fullscreenenter"",""1"",""2152""
","
",,,,,,,,,,,,"[{""stimulus"":""run_exp/static/images/task_images/rocket-01.jpg"",""time"":0.20000000298023224},{""stimulus"":""run_exp/static/images/task_images/rocket-02.jpg"",""time"":1044.7000000029802},{""stimulus"":""run_exp/static/images/task_images/rocket-03.jpg"",""time"":2088},{""stimulus"":""run_exp/static/images/task_images/rocket-04.jpg"",""time"":3130.5},{""stimulus"":""run_exp/static/images/task_images/rocket-05.jpg"",""time"":4173.5},{""stimulus"":""run_exp/static/images/task_images/rocket-06.jpg"",""time"":5216.4000000059605},{""stimulus"":""run_exp/static/images/task_images/rocket-07.jpg"",""time"":6259.60000000149},{""stimulus"":""run_exp/static/images/task_images/rocket-08.jpg"",""time"":7302.5},{""stimulus"":""run_exp/static/images/task_images/rocket-09.jpg"",""time"":8345.60000000149}]",[],5,,,,,,,,,,,,,,
alien_welcome,150,538517,0.0-48.0-1.0,"""event"",""trial"",""time""
""fullscreenenter"",""1"",""2152""
","
","
","""event"",""trial"",""time""
""fullscreenenter"",""1"",""2152""
","
",,null,run_exp/static/images/task_images/aliens/old_aliens/planet/alien_planet-78.jpg,null,,,,,,,,,,,,,78,"8,33,34,16,42,78,23,35,66,60,47,79,24,80,39,32,70,69,55,73,72,25,54,21,12,3",,,,,,,,,,
land,151,539019,0.0-48.0-2.0,"""event"",""trial"",""time""
""fullscreenenter"",""1"",""2152""
","
","
","""event"",""trial"",""time""
""fullscreenenter"",""1"",""2152""
","
",,null,run_exp/static/images/task_images/land.jpg,null,,,,,,,94,,,6,,,,,,,,,,,,,,
dig,152,541023,0.0-48.0-3.0,"""event"",""trial"",""time""
""fullscreenenter"",""1"",""2152""
","
","
","""event"",""trial"",""time""
""fullscreenenter"",""1"",""2152""
","
",,,,,,,,,,,,"[{""stimulus"":""run_exp/static/images/task_images/dig.jpg"",""time"":0.3999999985098839},{""stimulus"":""run_exp/static/images/task_images/land.jpg"",""time"":668.7999999970198},{""stimulus"":""run_exp/static/images/task_images/dig.jpg"",""time"":1335.8999999985099}]",[],6,,,,,,,,,,,,,,
harvest,153,542025,0.0-48.0-4.0,"""event"",""trial"",""time""
""fullscreenenter"",""1"",""2152""
","
","
","""event"",""trial"",""time""
""fullscreenenter"",""1"",""2152""
","
",,null,run_exp/static/images/task_images/gems/94.jpg,null,,,,,,,79,,,6,,,,,94,0.843490292,0.840425532,,,,,,,
decision,154,543387,0.0-48.0-5.0,"""event"",""trial"",""time""
""fullscreenenter"",""1"",""2152""
","
","
","""event"",""trial"",""time""
""fullscreenenter"",""1"",""2152""
","
",,1360.1,run_exp/static/images/task_images/land.jpg,65,,,,,,,79,,,6,,,,,,,,182600,1,0,FALSE,,,
dig,155,545031,0.0-49.0-0.0,"""event"",""trial"",""time""
""fullscreenenter"",""1"",""2152""
","
","
","""event"",""trial"",""time""
""fullscreenenter"",""1"",""2152""
","
",,,,,,,,,,,,"[{""stimulus"":""run_exp/static/images/task_images/dig.jpg"",""time"":0.29999999701976776},{""stimulus"":""run_exp/static/images/task_images/land.jpg"",""time"":547.5999999940395},{""stimulus"":""run_exp/static/images/task_images/dig.jpg"",""time"":1093.6999999955297}]",[],6,,,,,,,,,,,,,,
harvest,156,546033,0.0-49.0-1.0,"""event"",""trial"",""time""
""fullscreenenter"",""1"",""2152""
","
","
","""event"",""trial"",""time""
""fullscreenenter"",""1"",""2152""
","
",,null,run_exp/static/images/task_images/gems/79.jpg,null,,,,,,,62,,,6,,,,,79,0.778979375,0.784810127,,,,,,,
decision,157,549035,0.0-49.0-2.0,"""event"",""trial"",""time""
""fullscreenenter"",""1"",""2152""
","
","
","""event"",""trial"",""time""
""fullscreenenter"",""1"",""2152""
","
",,null,run_exp/static/images/task_images/land.jpg,null,,,,,,,62,,,6,,,,,,,,188248,1,1,FALSE,,,
time_out,158,551039,0.0-50.0-0.0,"""event"",""trial"",""time""
""fullscreenenter"",""1"",""2152""
","
","
","""event"",""trial"",""time""
""fullscreenenter"",""1"",""2152""
","
",,null,run_exp/static/images/task_images/time_out.jpg,null,,,,,,,62,,,,,,,,,,,,,,,,,
decision,159,551753,0.0-50.0-1.0,"""event"",""trial"",""time""
""fullscreenenter"",""1"",""2152""
","
","
","""event"",""trial"",""time""
""fullscreenenter"",""1"",""2152""
","
",,712.5,run_exp/static/images/task_images/land.jpg,65,,,,,,,62,,,6,,,,,,,,190966,1,1,FALSE,,,
dig,160,554045,0.0-51.0-0.0,"""event"",""trial"",""time""
""fullscreenenter"",""1"",""2152""
","
","
","""event"",""trial"",""time""
""fullscreenenter"",""1"",""2152""
","
",,,,,,,,,,,,"[{""stimulus"":""run_exp/static/images/task_images/dig.jpg"",""time"":0.20000000298023224},{""stimulus"":""run_exp/static/images/task_images/land.jpg"",""time"":763.6000000014901},{""stimulus"":""run_exp/static/images/task_images/dig.jpg"",""time"":1525.7000000029802}]",[],6,,,,,,,,,,,,,,
harvest,161,555047,0.0-51.0-1.0,"""event"",""trial"",""time""
""fullscreenenter"",""1"",""2152""
","
","
","""event"",""trial"",""time""
""fullscreenenter"",""1"",""2152""
","
",,null,run_exp/static/images/task_images/gems/62.jpg,null,,,,,,,51,,,6,,,,,62,0.825507172,0.822580645,,,,,,,
decision,162,555519,0.0-51.0-2.0,"""event"",""trial"",""time""
""fullscreenenter"",""1"",""2152""
","
","
","""event"",""trial"",""time""
""fullscreenenter"",""1"",""2152""
","
",,471.1,run_exp/static/images/task_images/land.jpg,65,,,,,,,51,,,6,,,,,,,,194732,1,2,FALSE,,,
dig,163,558052,0.0-52.0-0.0,"""event"",""trial"",""time""
""fullscreenenter"",""1"",""2152""
","
","
","""event"",""trial"",""time""
""fullscreenenter"",""1"",""2152""
","
",,,,,,,,,,,,"[{""stimulus"":""run_exp/static/images/task_images/dig.jpg"",""time"":0.30000000447034836},{""stimulus"":""run_exp/static/images/task_images/land.jpg"",""time"":843.6000000014901},{""stimulus"":""run_exp/static/images/task_images/dig.jpg"",""time"":1685.6000000014901}]",[],6,,,,,,,,,,,,,,
harvest,164,559054,0.0-52.0-1.0,"""event"",""trial"",""time""
""fullscreenenter"",""1"",""2152""
","
","
","""event"",""trial"",""time""
""fullscreenenter"",""1"",""2152""
","
",,null,run_exp/static/images/task_images/gems/51.jpg,null,,,,,,,36,,,6,,,,,51,0.712960465,0.705882353,,,,,,,
decision,165,559874,0.0-52.0-2.0,"""event"",""trial"",""time""
""fullscreenenter"",""1"",""2152""
","
","
","""event"",""trial"",""time""
""fullscreenenter"",""1"",""2152""
","
",,818.9,run_exp/static/images/task_images/land.jpg,65,,,,,,,36,,,6,,,,,,,,199088,1,3,FALSE,,,
dig,166,562061,0.0-53.0-0.0,"""event"",""trial"",""time""
""fullscreenenter"",""1"",""2152""
","
","
","""event"",""trial"",""time""
""fullscreenenter"",""1"",""2152""
","
",,,,,,,,,,,,"[{""stimulus"":""run_exp/static/images/task_images/dig.jpg"",""time"":0.19999999552965164},{""stimulus"":""run_exp/static/images/task_images/land.jpg"",""time"":728.5},{""stimulus"":""run_exp/static/images/task_images/dig.jpg"",""time"":1455.3999999985099}]",[],6,,,,,,,,,,,,,,
harvest,167,563063,0.0-53.0-1.0,"""event"",""trial"",""time""
""fullscreenenter"",""1"",""2152""
","
","
","""event"",""trial"",""time""
""fullscreenenter"",""1"",""2152""
","
",,null,run_exp/static/images/task_images/gems/36.jpg,null,,,,,,,28,,,6,,,,,36,0.777158747,0.777777778,,,,,,,
decision,168,563771,0.0-53.0-2.0,"""event"",""trial"",""time""
""fullscreenenter"",""1"",""2152""
","
","
","""event"",""trial"",""time""
""fullscreenenter"",""1"",""2152""
","
",,706.8,run_exp/static/images/task_images/land.jpg,65,,,,,,,28,,,6,,,,,,,,202985,1,4,FALSE,,,
dig,169,566070,0.0-54.0-0.0,"""event"",""trial"",""time""
""fullscreenenter"",""1"",""2152""
","
","
","""event"",""trial"",""time""
""fullscreenenter"",""1"",""2152""
","
",,,,,,,,,,,,"[{""stimulus"":""run_exp/static/images/task_images/dig.jpg"",""time"":0.19999999552965164},{""stimulus"":""run_exp/static/images/task_images/land.jpg"",""time"":765.6999999955297},{""stimulus"":""run_exp/static/images/task_images/dig.jpg"",""time"":1529.6999999955297}]",[],6,,,,,,,,,,,,,,
harvest,170,567072,0.0-54.0-1.0,"""event"",""trial"",""time""
""fullscreenenter"",""1"",""2152""
","
","
","""event"",""trial"",""time""
""fullscreenenter"",""1"",""2152""
","
",,null,run_exp/static/images/task_images/gems/28.jpg,null,,,,,,,23,,,6,,,,,28,0.807062267,0.821428571,,,,,,,
decision,171,567140,0.0-54.0-2.0,"""event"",""trial"",""time""
""fullscreenenter"",""1"",""2152""
","
","
","""event"",""trial"",""time""
""fullscreenenter"",""1"",""2152""
","
",,66,run_exp/static/images/task_images/land.jpg,65,,,,,,,23,,,6,,,,,,,,206353,1,5,FALSE,,,
dig,172,570080,0.0-55.0-0.0,"""event"",""trial"",""time""
""fullscreenenter"",""1"",""2152""
","
","
","""event"",""trial"",""time""
""fullscreenenter"",""1"",""2152""
","
",,,,,,,,,,,,"[{""stimulus"":""run_exp/static/images/task_images/dig.jpg"",""time"":0.20000000298023224},{""stimulus"":""run_exp/static/images/task_images/land.jpg"",""time"":979.6000000014901},{""stimulus"":""run_exp/static/images/task_images/dig.jpg"",""time"":1957.9000000059605}]",[],6,,,,,,,,,,,,,,
harvest,173,571082,0.0-55.0-1.0,"""event"",""trial"",""time""
""fullscreenenter"",""1"",""2152""
","
","
","""event"",""trial"",""time""
""fullscreenenter"",""1"",""2152""
","
",,null,run_exp/static/images/task_images/gems/23.jpg,null,,,,,,,20,,,6,,,,,23,0.8492742,0.869565217,,,,,,,
decision,174,572507,0.0-55.0-2.0,"""event"",""trial"",""time""
""fullscreenenter"",""1"",""2152""
","
","
","""event"",""trial"",""time""
""fullscreenenter"",""1"",""2152""
","
",,1422.2,run_exp/static/images/task_images/land.jpg,65,,,,,,,20,,,6,,,,,,,,211720,1,6,FALSE,,,
dig,175,574088,0.0-56.0-0.0,"""event"",""trial"",""time""
""fullscreenenter"",""1"",""2152""
","
","
","""event"",""trial"",""time""
""fullscreenenter"",""1"",""2152""
","
",,,,,,,,,,,,"[{""stimulus"":""run_exp/static/images/task_images/dig.jpg"",""time"":0.29999999701976776},{""stimulus"":""run_exp/static/images/task_images/land.jpg"",""time"":527.1000000014901},{""stimulus"":""run_exp/static/images/task_images/dig.jpg"",""time"":1051.5}]",[],6,,,,,,,,,,,,,,
harvest,176,575090,0.0-56.0-1.0,"""event"",""trial"",""time""
""fullscreenenter"",""1"",""2152""
","
","
","""event"",""trial"",""time""
""fullscreenenter"",""1"",""2152""
","
",,null,run_exp/static/images/task_images/gems/20.jpg,null,,,,,,,15,,,6,,,,,20,0.744972703,0.75,,,,,,,
decision,177,575190,0.0-56.0-2.0,"""event"",""trial"",""time""
""fullscreenenter"",""1"",""2152""
","
","
","""event"",""trial"",""time""
""fullscreenenter"",""1"",""2152""
","
",,98.2,run_exp/static/images/task_images/land.jpg,65,,,,,,,15,,,6,,,,,,,,214403,1,7,FALSE,,,
dig,178,578096,0.0-57.0-0.0,"""event"",""trial"",""time""
""fullscreenenter"",""1"",""2152""
","
","
","""event"",""trial"",""time""
""fullscreenenter"",""1"",""2152""
","
",,,,,,,,,,,,"[{""stimulus"":""run_exp/static/images/task_images/dig.jpg"",""time"":0.10000000149011612},{""stimulus"":""run_exp/static/images/task_images/land.jpg"",""time"":968.5},{""stimulus"":""run_exp/static/images/task_images/dig.jpg"",""time"":1935.6000000014901}]",[],6,,,,,,,,,,,,,,
harvest,179,579098,0.0-57.0-1.0,"""event"",""trial"",""time""
""fullscreenenter"",""1"",""2152""
","
","
","""event"",""trial"",""time""
""fullscreenenter"",""1"",""2152""
","
",,null,run_exp/static/images/task_images/gems/15.jpg,null,,,,,,,10,,,6,,,,,15,0.697921379,0.666666667,,,,,,,
decision,180,579413,0.0-57.0-2.0,"""event"",""trial"",""time""
""fullscreenenter"",""1"",""2152""
","
","
","""event"",""trial"",""time""
""fullscreenenter"",""1"",""2152""
","
",,313.3,run_exp/static/images/task_images/land.jpg,65,,,,,,,10,,,6,,,,,,,,218627,1,8,FALSE,,,
dig,181,582105,0.0-58.0-0.0,"""event"",""trial"",""time""
""fullscreenenter"",""1"",""2152""
","
","
","""event"",""trial"",""time""
""fullscreenenter"",""1"",""2152""
","
",,,,,,,,,,,,"[{""stimulus"":""run_exp/static/images/task_images/dig.jpg"",""time"":0.20000000298023224},{""stimulus"":""run_exp/static/images/task_images/land.jpg"",""time"":897},{""stimulus"":""run_exp/static/images/task_images/dig.jpg"",""time"":1791.8999999985099}]",[],6,,,,,,,,,,,,,,
harvest,182,583107,0.0-58.0-1.0,"""event"",""trial"",""time""
""fullscreenenter"",""1"",""2152""
","
","
","""event"",""trial"",""time""
""fullscreenenter"",""1"",""2152""
","
",,null,run_exp/static/images/task_images/gems/10.jpg,null,,,,,,,9,,,6,,,,,10,0.864336236,0.9,,,,,,,
decision,183,583325,0.0-58.0-2.0,"""event"",""trial"",""time""
""fullscreenenter"",""1"",""2152""
","
","
","""event"",""trial"",""time""
""fullscreenenter"",""1"",""2152""
","
",,216.4,run_exp/static/images/task_images/land.jpg,65,,,,,,,9,,,6,,,,,,,,222538,1,9,FALSE,,,
dig,184,586112,0.0-59.0-0.0,"""event"",""trial"",""time""
""fullscreenenter"",""1"",""2152""
","
","
","""event"",""trial"",""time""
""fullscreenenter"",""1"",""2152""
","
",,,,,,,,,,,,"[{""stimulus"":""run_exp/static/images/task_images/dig.jpg"",""time"":0.20000000298023224},{""stimulus"":""run_exp/static/images/task_images/land.jpg"",""time"":928.5},{""stimulus"":""run_exp/static/images/task_images/dig.jpg"",""time"":1855.9000000059605}]",[],6,,,,,,,,,,,,,,
harvest,185,587114,0.0-59.0-1.0,"""event"",""trial"",""time""
""fullscreenenter"",""1"",""2152""
","
","
","""event"",""trial"",""time""
""fullscreenenter"",""1"",""2152""
","
",,null,run_exp/static/images/task_images/gems/9.jpg,null,,,,,,,7,,,6,,,,,9,0.820453971,0.777777778,,,,,,,
decision,186,587771,0.0-59.0-2.0,"""event"",""trial"",""time""
""fullscreenenter"",""1"",""2152""
","
","
","""event"",""trial"",""time""
""fullscreenenter"",""1"",""2152""
","
",,654.4,run_exp/static/images/task_images/land.jpg,65,,,,,,,7,,,6,,,,,,,,226984,1,10,FALSE,,,
dig,187,590119,0.0-60.0-0.0,"""event"",""trial"",""time""
""fullscreenenter"",""1"",""2152""
","
","
","""event"",""trial"",""time""
""fullscreenenter"",""1"",""2152""
","
",,,,,,,,,,,,"[{""stimulus"":""run_exp/static/images/task_images/dig.jpg"",""time"":0.29999999701976776},{""stimulus"":""run_exp/static/images/task_images/land.jpg"",""time"":782.5999999940395},{""stimulus"":""run_exp/static/images/task_images/dig.jpg"",""time"":1563.5}]",[],6,,,,,,,,,,,,,,
harvest,188,591121,0.0-60.0-1.0,"""event"",""trial"",""time""
""fullscreenenter"",""1"",""2152""
","
","
","""event"",""trial"",""time""
""fullscreenenter"",""1"",""2152""
","
",,null,run_exp/static/images/task_images/gems/7.jpg,null,,,,,,,5,,,6,,,,,7,0.773026293,0.714285714,,,,,,,
decision,189,591917,0.0-60.0-2.0,"""event"",""trial"",""time""
""fullscreenenter"",""1"",""2152""
","
","
","""event"",""trial"",""time""
""fullscreenenter"",""1"",""2152""
","
",,794.1,run_exp/static/images/task_images/land.jpg,65,,,,,,,5,,,6,,,,,,,,231130,1,11,FALSE,,,
dig,190,594128,0.0-61.0-0.0,"""event"",""trial"",""time""
""fullscreenenter"",""1"",""2152""
","
","
","""event"",""trial"",""time""
""fullscreenenter"",""1"",""2152""
","
",,,,,,,,,,,,"[{""stimulus"":""run_exp/static/images/task_images/dig.jpg"",""time"":0.09999999403953552},{""stimulus"":""run_exp/static/images/task_images/land.jpg"",""time"":736.5},{""stimulus"":""run_exp/static/images/task_images/dig.jpg"",""time"":1471.5}]",[],6,,,,,,,,,,,,,,
harvest,191,595130,0.0-61.0-1.0,"""event"",""trial"",""time""
""fullscreenenter"",""1"",""2152""
","
","
","""event"",""trial"",""time""
""fullscreenenter"",""1"",""2152""
","
",,null,run_exp/static/images/task_images/gems/5.jpg,null,,,,,,,4,,,6,,,,,5,0.850163256,0.8,,,,,,,
decision,192,596093,0.0-61.0-2.0,"""event"",""trial"",""time""
""fullscreenenter"",""1"",""2152""
","
","
","""event"",""trial"",""time""
""fullscreenenter"",""1"",""2152""
","
",,961.4,run_exp/static/images/task_images/land.jpg,65,,,,,,,4,,,6,,,,,,,,235306,1,12,FALSE,,,
dig,193,598136,0.0-62.0-0.0,"""event"",""trial"",""time""
""fullscreenenter"",""1"",""2152""
","
","
","""event"",""trial"",""time""
""fullscreenenter"",""1"",""2152""
","
",,,,,,,,,,,,"[{""stimulus"":""run_exp/static/images/task_images/dig.jpg"",""time"":0.5},{""stimulus"":""run_exp/static/images/task_images/land.jpg"",""time"":680.9000000059605},{""stimulus"":""run_exp/static/images/task_images/dig.jpg"",""time"":1359.6000000014901}]",[],6,,,,,,,,,,,,,,
harvest,194,599137,0.0-62.0-1.0,"""event"",""trial"",""time""
""fullscreenenter"",""1"",""2152""
","
","
","""event"",""trial"",""time""
""fullscreenenter"",""1"",""2152""
","
",,null,run_exp/static/images/task_images/gems/4.jpg,null,,,,,,,3,,,6,,,,,4,0.813827392,0.75,,,,,,,
decision,195,599586,0.0-62.0-2.0,"""event"",""trial"",""time""
""fullscreenenter"",""1"",""2152""
","
","
","""event"",""trial"",""time""
""fullscreenenter"",""1"",""2152""
","
",,447.4,run_exp/static/images/task_images/land.jpg,76,,,,,,,3,,,6,,,,,,,,238799,1,13,TRUE,,,
travel,196,609141,0.0-63.0-0.0,"""event"",""trial"",""time""
""fullscreenenter"",""1"",""2152""
","
","
","""event"",""trial"",""time""
""fullscreenenter"",""1"",""2152""
","
",,,,,,,,,,,,"[{""stimulus"":""run_exp/static/images/task_images/rocket-01.jpg"",""time"":0.10000000149011612},{""stimulus"":""run_exp/static/images/task_images/rocket-02.jpg"",""time"":1062.8000000044703},{""stimulus"":""run_exp/static/images/task_images/rocket-03.jpg"",""time"":2123.3000000044703},{""stimulus"":""run_exp/static/images/task_images/rocket-04.jpg"",""time"":3184.2000000029802},{""stimulus"":""run_exp/static/images/task_images/rocket-05.jpg"",""time"":4245.5},{""stimulus"":""run_exp/static/images/task_images/rocket-06.jpg"",""time"":5306.4000000059605},{""stimulus"":""run_exp/static/images/task_images/rocket-07.jpg"",""time"":6367.20000000298},{""stimulus"":""run_exp/static/images/task_images/rocket-08.jpg"",""time"":7428.5},{""stimulus"":""run_exp/static/images/task_images/rocket-09.jpg"",""time"":8489.5}]",[],6,,,,,,,,,,,,,,
alien_welcome,197,614144,0.0-63.0-1.0,"""event"",""trial"",""time""
""fullscreenenter"",""1"",""2152""
","
","
","""event"",""trial"",""time""
""fullscreenenter"",""1"",""2152""
","
",,null,run_exp/static/images/task_images/aliens/old_aliens/planet/alien_planet-23.jpg,null,,,,,,,,,,,,,23,"8,33,34,16,42,78,23,35,66,60,47,79,24,80,39,32,70,69,55,73,72,25,54,21,12,3",,,,,,,,,,
land,198,614646,0.0-63.0-2.0,"""event"",""trial"",""time""
""fullscreenenter"",""1"",""2152""
","
","
","""event"",""trial"",""time""
""fullscreenenter"",""1"",""2152""
","
",,null,run_exp/static/images/task_images/land.jpg,null,,,,,,,101,,,7,,,,,,,,,,,,,,
dig,199,616650,0.0-63.0-3.0,"""event"",""trial"",""time""
""fullscreenenter"",""1"",""2152""
","
","
","""event"",""trial"",""time""
""fullscreenenter"",""1"",""2152""
","
",,,,,,,,,,,,"[{""stimulus"":""run_exp/static/images/task_images/dig.jpg"",""time"":0.3999999985098839},{""stimulus"":""run_exp/static/images/task_images/land.jpg"",""time"":668.7000000029802},{""stimulus"":""run_exp/static/images/task_images/dig.jpg"",""time"":1335.5}]",[],7,,,,,,,,,,,,,,
harvest,200,617652,0.0-63.0-4.0,"""event"",""trial"",""time""
""fullscreenenter"",""1"",""2152""
","
","
","""event"",""trial"",""time""
""fullscreenenter"",""1"",""2152""
","
",,null,run_exp/static/images/task_images/gems/101.jpg,null,,,,,,,78,,,7,,,,,101,0.773361783,0.772277228,,,,,,,
decision,201,620644,0.0-63.0-5.0,"""event"",""trial"",""time""
""fullscreenenter"",""1"",""2152""
","
","
","""event"",""trial"",""time""
""fullscreenenter"",""1"",""2152""
","
",,2990.3,run_exp/static/images/task_images/land.jpg,65,,,,,,,78,,,7,,,,,,,,259857,1,0,FALSE,,,
dig,202,620667,0.0-64.0-0.0,"""event"",""trial"",""time""
""fullscreenenter"",""1"",""2152""
","
","
","""event"",""trial"",""time""
""fullscreenenter"",""1"",""2152""
","
",,,,,,,,,,,,"[{""stimulus"":""run_exp/static/images/task_images/dig.jpg"",""time"":0.29999999701976776},{""stimulus"":""run_exp/static/images/task_images/land.jpg"",""time"":8},{""stimulus"":""run_exp/static/images/task_images/dig.jpg"",""time"":12}]",[],7,,,,,,,,,,,,,,
harvest,203,621670,0.0-64.0-1.0,"""event"",""trial"",""time""
""fullscreenenter"",""1"",""2152""
","
","
","""event"",""trial"",""time""
""fullscreenenter"",""1"",""2152""
","
",,null,run_exp/static/images/task_images/gems/78.jpg,null,,,,,,,53,,,7,,,,,78,0.68393102,0.679487179,,,,,,,
decision,204,624673,0.0-64.0-2.0,"""event"",""trial"",""time""
""fullscreenenter"",""1"",""2152""
","
","
","""event"",""trial"",""time""
""fullscreenenter"",""1"",""2152""
","
",,null,run_exp/static/images/task_images/land.jpg,null,,,,,,,53,,,7,,,,,,,,263886,1,1,FALSE,,,
time_out,205,626677,0.0-65.0-0.0,"""event"",""trial"",""time""
""fullscreenenter"",""1"",""2152""
","
","
","""event"",""trial"",""time""
""fullscreenenter"",""1"",""2152""
","
",,null,run_exp/static/images/task_images/time_out.jpg,null,,,,,,,53,,,,,,,,,,,,,,,,,
decision,206,627234,0.0-65.0-1.0,"""event"",""trial"",""time""
""fullscreenenter"",""1"",""2152""
","
","
","""event"",""trial"",""time""
""fullscreenenter"",""1"",""2152""
","
",,554.1,run_exp/static/images/task_images/land.jpg,65,,,,,,,53,,,7,,,,,,,,266447,1,1,FALSE,,,
dig,207,629685,0.0-66.0-0.0,"""event"",""trial"",""time""
""fullscreenenter"",""1"",""2152""
","
","
","""event"",""trial"",""time""
""fullscreenenter"",""1"",""2152""
","
",,,,,,,,,,,,"[{""stimulus"":""run_exp/static/images/task_images/dig.jpg"",""time"":0.3999999985098839},{""stimulus"":""run_exp/static/images/task_images/land.jpg"",""time"":816.5},{""stimulus"":""run_exp/static/images/task_images/dig.jpg"",""time"":1631.8999999985099}]",[],7,,,,,,,,,,,,,,
harvest,208,630687,0.0-66.0-1.0,"""event"",""trial"",""time""
""fullscreenenter"",""1"",""2152""
","
","
","""event"",""trial"",""time""
""fullscreenenter"",""1"",""2152""
","
",,null,run_exp/static/images/task_images/gems/53.jpg,null,,,,,,,47,,,7,,,,,53,0.893785664,0.886792453,,,,,,,
decision,209,631003,0.0-66.0-2.0,"""event"",""trial"",""time""
""fullscreenenter"",""1"",""2152""
","
","
","""event"",""trial"",""time""
""fullscreenenter"",""1"",""2152""
","
",,314.4,run_exp/static/images/task_images/land.jpg,65,,,,,,,47,,,7,,,,,,,,270216,1,2,FALSE,,,
dig,210,633693,0.0-67.0-0.0,"""event"",""trial"",""time""
""fullscreenenter"",""1"",""2152""
","
","
","""event"",""trial"",""time""
""fullscreenenter"",""1"",""2152""
","
",,,,,,,,,,,,"[{""stimulus"":""run_exp/static/images/task_images/dig.jpg"",""time"":0.19999999552965164},{""stimulus"":""run_exp/static/images/task_images/land.jpg"",""time"":896.1999999955297},{""stimulus"":""run_exp/static/images/task_images/dig.jpg"",""time"":1792}]",[],7,,,,,,,,,,,,,,
harvest,211,634695,0.0-67.0-1.0,"""event"",""trial"",""time""
""fullscreenenter"",""1"",""2152""
","
","
","""event"",""trial"",""time""
""fullscreenenter"",""1"",""2152""
","
",,null,run_exp/static/images/task_images/gems/47.jpg,null,,,,,,,36,,,7,,,,,47,0.772031014,0.765957447,,,,,,,
decision,212,636557,0.0-67.0-2.0,"""event"",""trial"",""time""
""fullscreenenter"",""1"",""2152""
","
","
","""event"",""trial"",""time""
""fullscreenenter"",""1"",""2152""
","
",,1859.8,run_exp/static/images/task_images/land.jpg,65,,,,,,,36,,,7,,,,,,,,275770,1,3,FALSE,,,
dig,213,637703,0.0-68.0-0.0,"""event"",""trial"",""time""
""fullscreenenter"",""1"",""2152""
","
","
","""event"",""trial"",""time""
""fullscreenenter"",""1"",""2152""
","
",,,,,,,,,,,,"[{""stimulus"":""run_exp/static/images/task_images/dig.jpg"",""time"":0.20000000298023224},{""stimulus"":""run_exp/static/images/task_images/land.jpg"",""time"":381.70000000298023},{""stimulus"":""run_exp/static/images/task_images/dig.jpg"",""time"":761.5}]",[],7,,,,,,,,,,,,,,
harvest,214,638705,0.0-68.0-1.0,"""event"",""trial"",""time""
""fullscreenenter"",""1"",""2152""
","
","
","""event"",""trial"",""time""
""fullscreenenter"",""1"",""2152""
","
",,null,run_exp/static/images/task_images/gems/36.jpg,null,,,,,,,31,,,7,,,,,36,0.873308556,0.861111111,,,,,,,
decision,215,638714,0.0-68.0-2.0,"""event"",""trial"",""time""
""fullscreenenter"",""1"",""2152""
","
","
","""event"",""trial"",""time""
""fullscreenenter"",""1"",""2152""
","
",,7.399999999,run_exp/static/images/task_images/land.jpg,65,,,,,,,31,,,7,,,,,,,,277928,1,4,FALSE,,,
dig,216,641712,0.0-69.0-0.0,"""event"",""trial"",""time""
""fullscreenenter"",""1"",""2152""
","
","
","""event"",""trial"",""time""
""fullscreenenter"",""1"",""2152""
","
",,,,,,,,,,,,"[{""stimulus"":""run_exp/static/images/task_images/dig.jpg"",""time"":0.5},{""stimulus"":""run_exp/static/images/task_images/land.jpg"",""time"":999.1000000014901},{""stimulus"":""run_exp/static/images/task_images/dig.jpg"",""time"":1996.1000000014901}]",[],7,,,,,,,,,,,,,,
harvest,217,642714,0.0-69.0-1.0,"""event"",""trial"",""time""
""fullscreenenter"",""1"",""2152""
","
","
","""event"",""trial"",""time""
""fullscreenenter"",""1"",""2152""
","
",,null,run_exp/static/images/task_images/gems/31.jpg,null,,,,,,,27,,,7,,,,,31,0.861115594,0.870967742,,,,,,,
decision,218,645716,0.0-69.0-2.0,"""event"",""trial"",""time""
""fullscreenenter"",""1"",""2152""
""blur"",""219"",""646225""
","""event"",""trial"",""time""
""blur"",""219"",""646225""
","
","""event"",""trial"",""time""
""fullscreenenter"",""1"",""2152""
","
",,null,run_exp/static/images/task_images/land.jpg,null,,,,,,,27,,,7,,,,,,,,284929,1,5,FALSE,,,
time_out,219,647721,0.0-70.0-0.0,"""event"",""trial"",""time""
""fullscreenenter"",""1"",""2152""
""blur"",""219"",""646225""
""focus"",""220"",""648903""
","""event"",""trial"",""time""
""blur"",""219"",""646225""
","""event"",""trial"",""time""
""focus"",""220"",""648903""
","""event"",""trial"",""time""
""fullscreenenter"",""1"",""2152""
","
",,null,run_exp/static/images/task_images/time_out.jpg,null,,,,,,,27,,,,,,,,,,,,,,,,,
decision,220,650723,0.0-70.0-1.0,"""event"",""trial"",""time""
""fullscreenenter"",""1"",""2152""
""blur"",""219"",""646225""
""focus"",""220"",""648903""
","""event"",""trial"",""time""
""blur"",""219"",""646225""
","""event"",""trial"",""time""
""focus"",""220"",""648903""
","""event"",""trial"",""time""
""fullscreenenter"",""1"",""2152""
","
",,null,run_exp/static/images/task_images/land.jpg,null,,,,,,,27,,,7,,,,,,,,289936,1,5,FALSE,,,
time_out,221,652728,0.0-71.0-0.0,"""event"",""trial"",""time""
""fullscreenenter"",""1"",""2152""
""blur"",""219"",""646225""
""focus"",""220"",""648903""
","""event"",""trial"",""time""
""blur"",""219"",""646225""
","""event"",""trial"",""time""
""focus"",""220"",""648903""
","""event"",""trial"",""time""
""fullscreenenter"",""1"",""2152""
","
",,null,run_exp/static/images/task_images/time_out.jpg,null,,,,,,,27,,,,,,,,,,,,,,,,,
decision,222,653384,0.0-71.0-1.0,"""event"",""trial"",""time""
""fullscreenenter"",""1"",""2152""
""blur"",""219"",""646225""
""focus"",""220"",""648903""
","""event"",""trial"",""time""
""blur"",""219"",""646225""
","""event"",""trial"",""time""
""focus"",""220"",""648903""
","""event"",""trial"",""time""
""fullscreenenter"",""1"",""2152""
","
",,654.4,run_exp/static/images/task_images/land.jpg,65,,,,,,,27,,,7,,,,,,,,292597,1,5,FALSE,,,
dig,223,655734,0.0-72.0-0.0,"""event"",""trial"",""time""
""fullscreenenter"",""1"",""2152""
""blur"",""219"",""646225""
""focus"",""220"",""648903""
","""event"",""trial"",""time""
""blur"",""219"",""646225""
","""event"",""trial"",""time""
""focus"",""220"",""648903""
","""event"",""trial"",""time""
""fullscreenenter"",""1"",""2152""
","
",,,,,,,,,,,,"[{""stimulus"":""run_exp/static/images/task_images/dig.jpg"",""time"":0.20000000298023224},{""stimulus"":""run_exp/static/images/task_images/land.jpg"",""time"":782.5},{""stimulus"":""run_exp/static/images/task_images/dig.jpg"",""time"":1563.3999999985099}]",[],7,,,,,,,,,,,,,,
harvest,224,656736,0.0-72.0-1.0,"""event"",""trial"",""time""
""fullscreenenter"",""1"",""2152""
""blur"",""219"",""646225""
""focus"",""220"",""648903""
","""event"",""trial"",""time""
""blur"",""219"",""646225""
","""event"",""trial"",""time""
""focus"",""220"",""648903""
","""event"",""trial"",""time""
""fullscreenenter"",""1"",""2152""
","
",,null,run_exp/static/images/task_images/gems/27.jpg,null,,,,,,,22,,,7,,,,,27,0.830470831,0.814814815,,,,,,,
decision,225,659205,0.0-72.0-2.0,"""event"",""trial"",""time""
""fullscreenenter"",""1"",""2152""
""blur"",""219"",""646225""
""focus"",""220"",""648903""
","""event"",""trial"",""time""
""blur"",""219"",""646225""
","""event"",""trial"",""time""
""focus"",""220"",""648903""
","""event"",""trial"",""time""
""fullscreenenter"",""1"",""2152""
","
",,2467.5,run_exp/static/images/task_images/land.jpg,65,,,,,,,22,,,7,,,,,,,,298418,1,6,FALSE,,,
dig,226,659742,0.0-73.0-0.0,"""event"",""trial"",""time""
""fullscreenenter"",""1"",""2152""
""blur"",""219"",""646225""
""focus"",""220"",""648903""
","""event"",""trial"",""time""
""blur"",""219"",""646225""
","""event"",""trial"",""time""
""focus"",""220"",""648903""
","""event"",""trial"",""time""
""fullscreenenter"",""1"",""2152""
","
",,,,,,,,,,,,"[{""stimulus"":""run_exp/static/images/task_images/dig.jpg"",""time"":0.10000000149011612},{""stimulus"":""run_exp/static/images/task_images/land.jpg"",""time"":178.80000000447035},{""stimulus"":""run_exp/static/images/task_images/dig.jpg"",""time"":356}]",[],7,,,,,,,,,,,,,,
harvest,227,660744,0.0-73.0-1.0,"""event"",""trial"",""time""
""fullscreenenter"",""1"",""2152""
""blur"",""219"",""646225""
""focus"",""220"",""648903""
","""event"",""trial"",""time""
""blur"",""219"",""646225""
","""event"",""trial"",""time""
""focus"",""220"",""648903""
","""event"",""trial"",""time""
""fullscreenenter"",""1"",""2152""
","
",,null,run_exp/static/images/task_images/gems/22.jpg,null,,,,,,,17,,,7,,,,,22,0.772773096,0.772727273,,,,,,,
decision,228,661693,0.0-73.0-2.0,"""event"",""trial"",""time""
""fullscreenenter"",""1"",""2152""
""blur"",""219"",""646225""
""focus"",""220"",""648903""
","""event"",""trial"",""time""
""blur"",""219"",""646225""
","""event"",""trial"",""time""
""focus"",""220"",""648903""
","""event"",""trial"",""time""
""fullscreenenter"",""1"",""2152""
","
",,947.5,run_exp/static/images/task_images/land.jpg,65,,,,,,,17,,,7,,,,,,,,300906,1,7,TRUE,,,
end_of_block_continue,229,669303,0.0-74.0-0.0,"""event"",""trial"",""time""
""fullscreenenter"",""1"",""2152""
""blur"",""219"",""646225""
""focus"",""220"",""648903""
","""event"",""trial"",""time""
""blur"",""219"",""646225""
","""event"",""trial"",""time""
""focus"",""220"",""648903""
","""event"",""trial"",""time""
""fullscreenenter"",""1"",""2152""
","
",,7591.9,run_exp/static/audio/clip_32_block_end.m4a,,,,,,,0,,,,,,,,,,,,,,,,,,
alien_welcome,230,674311,0.0-75.0-0.0,"""event"",""trial"",""time""
""fullscreenenter"",""1"",""2152""
""blur"",""219"",""646225""
""focus"",""220"",""648903""
","""event"",""trial"",""time""
""blur"",""219"",""646225""
","""event"",""trial"",""time""
""focus"",""220"",""648903""
","""event"",""trial"",""time""
""fullscreenenter"",""1"",""2152""
","
",,null,run_exp/static/images/task_images/aliens/old_aliens/planet/alien_planet-35.jpg,null,,,,,,,,,,,,,35,"8,33,34,16,42,78,23,35,66,60,47,79,24,80,39,32,70,69,55,73,72,25,54,21,12,3",,,,,,,,,,
land,231,674813,0.0-75.0-1.0,"""event"",""trial"",""time""
""fullscreenenter"",""1"",""2152""
""blur"",""219"",""646225""
""focus"",""220"",""648903""
","""event"",""trial"",""time""
""blur"",""219"",""646225""
","""event"",""trial"",""time""
""focus"",""220"",""648903""
","""event"",""trial"",""time""
""fullscreenenter"",""1"",""2152""
","
",,null,run_exp/static/images/task_images/land.jpg,null,,,,,,,97,,,8,,,,,,,,,,,,,,
dig,232,676818,0.0-75.0-2.0,"""event"",""trial"",""time""
""fullscreenenter"",""1"",""2152""
""blur"",""219"",""646225""
""focus"",""220"",""648903""
","""event"",""trial"",""time""
""blur"",""219"",""646225""
","""event"",""trial"",""time""
""focus"",""220"",""648903""
","""event"",""trial"",""time""
""fullscreenenter"",""1"",""2152""
","
",,,,,,,,,,,,"[{""stimulus"":""run_exp/static/images/task_images/dig.jpg"",""time"":0.5},{""stimulus"":""run_exp/static/images/task_images/land.jpg"",""time"":668.8999999985099},{""stimulus"":""run_exp/static/images/task_images/dig.jpg"",""time"":1335.8000000044703}]",[],8,,,,,,,,,,,,,,
harvest,233,677820,0.0-75.0-3.0,"""event"",""trial"",""time""
""fullscreenenter"",""1"",""2152""
""blur"",""219"",""646225""
""focus"",""220"",""648903""
","""event"",""trial"",""time""
""blur"",""219"",""646225""
","""event"",""trial"",""time""
""focus"",""220"",""648903""
","""event"",""trial"",""time""
""fullscreenenter"",""1"",""2152""
","
",,null,run_exp/static/images/task_images/gems/97.jpg,null,,,,,,,21,,,8,,,,,97,0.211488365,0.216494845,,,,,,,
decision,234,678789,0.0-75.0-4.0,"""event"",""trial"",""time""
""fullscreenenter"",""1"",""2152""
""blur"",""219"",""646225""
""focus"",""220"",""648903""
","""event"",""trial"",""time""
""blur"",""219"",""646225""
","""event"",""trial"",""time""
""focus"",""220"",""648903""
","""event"",""trial"",""time""
""fullscreenenter"",""1"",""2152""
","
",,966.8,run_exp/static/images/task_images/land.jpg,65,,,,,,,21,,,8,,,,,,,,9483,2,0,FALSE,,,
dig,235,680827,0.0-76.0-0.0,"""event"",""trial"",""time""
""fullscreenenter"",""1"",""2152""
""blur"",""219"",""646225""
""focus"",""220"",""648903""
","""event"",""trial"",""time""
""blur"",""219"",""646225""
","""event"",""trial"",""time""
""focus"",""220"",""648903""
","""event"",""trial"",""time""
""fullscreenenter"",""1"",""2152""
","
",,,,,,,,,,,,"[{""stimulus"":""run_exp/static/images/task_images/dig.jpg"",""time"":0.20000000298023224},{""stimulus"":""run_exp/static/images/task_images/land.jpg"",""time"":679},{""stimulus"":""run_exp/static/images/task_images/dig.jpg"",""time"":1355.5}]",[],8,,,,,,,,,,,,,,
harvest,236,681829,0.0-76.0-1.0,"""event"",""trial"",""time""
""fullscreenenter"",""1"",""2152""
""blur"",""219"",""646225""
""focus"",""220"",""648903""
","""event"",""trial"",""time""
""blur"",""219"",""646225""
","""event"",""trial"",""time""
""focus"",""220"",""648903""
","""event"",""trial"",""time""
""fullscreenenter"",""1"",""2152""
","
",,null,run_exp/static/images/task_images/gems/21.jpg,null,,,,,,,4,,,8,,,,,21,0.183457453,0.19047619,,,,,,,
decision,237,684510,0.0-76.0-2.0,"""event"",""trial"",""time""
""fullscreenenter"",""1"",""2152""
""blur"",""219"",""646225""
""focus"",""220"",""648903""
","""event"",""trial"",""time""
""blur"",""219"",""646225""
","""event"",""trial"",""time""
""focus"",""220"",""648903""
","""event"",""trial"",""time""
""fullscreenenter"",""1"",""2152""
","
",,2679.8,run_exp/static/images/task_images/land.jpg,65,,,,,,,4,,,8,,,,,,,,15205,2,1,FALSE,,,
dig,238,684835,0.0-77.0-0.0,"""event"",""trial"",""time""
""fullscreenenter"",""1"",""2152""
""blur"",""219"",""646225""
""focus"",""220"",""648903""
","""event"",""trial"",""time""
""blur"",""219"",""646225""
","""event"",""trial"",""time""
""focus"",""220"",""648903""
","""event"",""trial"",""time""
""fullscreenenter"",""1"",""2152""
","
",,,,,,,,,,,,"[{""stimulus"":""run_exp/static/images/task_images/dig.jpg"",""time"":0.20000000298023224},{""stimulus"":""run_exp/static/images/task_images/land.jpg"",""time"":107.80000000447035},{""stimulus"":""run_exp/static/images/task_images/dig.jpg"",""time"":213.70000000298023}]",[],8,,,,,,,,,,,,,,
harvest,239,685837,0.0-77.0-1.0,"""event"",""trial"",""time""
""fullscreenenter"",""1"",""2152""
""blur"",""219"",""646225""
""focus"",""220"",""648903""
","""event"",""trial"",""time""
""blur"",""219"",""646225""
","""event"",""trial"",""time""
""focus"",""220"",""648903""
","""event"",""trial"",""time""
""fullscreenenter"",""1"",""2152""
","
",,null,run_exp/static/images/task_images/gems/4.jpg,null,,,,,,,1,,,8,,,,,4,0.244253452,0.25,,,,,,,
decision,240,687136,0.0-77.0-2.0,"""event"",""trial"",""time""
""fullscreenenter"",""1"",""2152""
""blur"",""219"",""646225""
""focus"",""220"",""648903""
","""event"",""trial"",""time""
""blur"",""219"",""646225""
","""event"",""trial"",""time""
""focus"",""220"",""648903""
","""event"",""trial"",""time""
""fullscreenenter"",""1"",""2152""
","
",,1297.8,run_exp/static/images/task_images/land.jpg,65,,,,,,,1,,,8,,,,,,,,17831,2,2,FALSE,,,
dig,241,688844,0.0-78.0-0.0,"""event"",""trial"",""time""
""fullscreenenter"",""1"",""2152""
""blur"",""219"",""646225""
""focus"",""220"",""648903""
","""event"",""trial"",""time""
""blur"",""219"",""646225""
","""event"",""trial"",""time""
""focus"",""220"",""648903""
","""event"",""trial"",""time""
""fullscreenenter"",""1"",""2152""
","
",,,,,,,,,,,,"[{""stimulus"":""run_exp/static/images/task_images/dig.jpg"",""time"":0.5},{""stimulus"":""run_exp/static/images/task_images/land.jpg"",""time"":568.8999999985099},{""stimulus"":""run_exp/static/images/task_images/dig.jpg"",""time"":1137.1999999955297}]",[],8,,,,,,,,,,,,,,
harvest,242,689846,0.0-78.0-1.0,"""event"",""trial"",""time""
""fullscreenenter"",""1"",""2152""
""blur"",""219"",""646225""
""focus"",""220"",""648903""
","""event"",""trial"",""time""
""blur"",""219"",""646225""
","""event"",""trial"",""time""
""focus"",""220"",""648903""
","""event"",""trial"",""time""
""fullscreenenter"",""1"",""2152""
","
",,null,run_exp/static/images/task_images/gems/1.jpg,null,,,,,,,0,,,8,,,,,1,0.184943367,0,,,,,,,
decision,243,692081,0.0-78.0-2.0,"""event"",""trial"",""time""
""fullscreenenter"",""1"",""2152""
""blur"",""219"",""646225""
""focus"",""220"",""648903""
","""event"",""trial"",""time""
""blur"",""219"",""646225""
","""event"",""trial"",""time""
""focus"",""220"",""648903""
","""event"",""trial"",""time""
""fullscreenenter"",""1"",""2152""
","
",,2232.4,run_exp/static/images/task_images/land.jpg,65,,,,,,,0,,,8,,,,,,,,22775,2,3,FALSE,,,
dig,244,692852,0.0-79.0-0.0,"""event"",""trial"",""time""
""fullscreenenter"",""1"",""2152""
""blur"",""219"",""646225""
""focus"",""220"",""648903""
","""event"",""trial"",""time""
""blur"",""219"",""646225""
","""event"",""trial"",""time""
""focus"",""220"",""648903""
","""event"",""trial"",""time""
""fullscreenenter"",""1"",""2152""
","
",,,,,,,,,,,,"[{""stimulus"":""run_exp/static/images/task_images/dig.jpg"",""time"":0.4000000059604645},{""stimulus"":""run_exp/static/images/task_images/land.jpg"",""time"":256.6000000014901},{""stimulus"":""run_exp/static/images/task_images/dig.jpg"",""time"":512.1000000014901}]",[],8,,,,,,,,,,,,,,
harvest,245,693854,0.0-79.0-1.0,"""event"",""trial"",""time""
""fullscreenenter"",""1"",""2152""
""blur"",""219"",""646225""
""focus"",""220"",""648903""
","""event"",""trial"",""time""
""blur"",""219"",""646225""
