trial_type,trial_index,time_elapsed,internal_node_id,interactions,blur_events,focus_events,fullscreenenter_events,fullscreenexit_events,success,rt,stimulus,key_press,prompt,subject_id,participant_id,age,gender,button_pressed,next_reward,animation_sequence,responses,planet,curr_prac_trial,n_prac_rounds,alien,aliens,reward_received,decay_rate_actual,decay_rate_exp,time_in_block,block_num,prt,last_trial_on_planet,button_html,bonus,num_failures
pavlovia,0,3,0.0-0.0,"""event"",""trial"",""time""
""fullscreenenter"",""1"",""5172""
","
","
","""event"",""trial"",""time""
""fullscreenenter"",""1"",""5172""
","
",,,,,,,,,,,,,,,,,,,,,,,,,,,,
fullscreen,1,6118,0.0-1.0,"""event"",""trial"",""time""
""fullscreenenter"",""1"",""5172""
","
","
","""event"",""trial"",""time""
""fullscreenenter"",""1"",""5172""
","
",TRUE,,,,,,,,,,,,,,,,,,,,,,,,,,,
instruc_welcome,2,16151,0.0-2.0,"""event"",""trial"",""time""
""fullscreenenter"",""1"",""5172""
","
","
","""event"",""trial"",""time""
""fullscreenenter"",""1"",""5172""
","
",,null,run_exp/static/audio/clip_1_welcome.m4a,null,"<p>Howdy! In this experiment, you’ll be an explorer traveling through space to collect space treasure.</p><p>Your mission is to collect as much treasure as possible.</p><br><br><p><img src='run_exp/static/images/task_images/opening_img-01.jpg' height='300' width='auto'></p>",12536,5009,22.58,Male,,,,,,,,,,,,,,,,,,,
audio-keyboard-response,3,32751,0.0-3.0,"""event"",""trial"",""time""
""fullscreenenter"",""1"",""5172""
","
","
","""event"",""trial"",""time""
""fullscreenenter"",""1"",""5172""
","
",,null,run_exp/static/audio/clip_2_move.m4a,null,,,,,,,,,,,,,,,,,,,,,,,,
welcome_dec,4,35037,0.0-4.0,"""event"",""trial"",""time""
""fullscreenenter"",""1"",""5172""
","
","
","""event"",""trial"",""time""
""fullscreenenter"",""1"",""5172""
","
",,2283.9,"<p>Howdy! In this experiment, you’ll be an explorer traveling through space to collect space treasure.</p><p>Your mission is to collect as much treasure as possible.</p><br><br><p><img src='run_exp/static/images/task_images/opening_img-01.jpg' height='300' width='auto'></p>",,,,,,,1,,,,,,,,,,,,,,,,,,
html-keyboard-response,5,35193,0.0-5.0,"""event"",""trial"",""time""
""fullscreenenter"",""1"",""5172""
","
","
","""event"",""trial"",""time""
""fullscreenenter"",""1"",""5172""
","
",,155,"<p>Howdy! In this experiment, you’ll be an explorer traveling through space to collect space treasure.</p><p>Your mission is to collect as much treasure as possible.</p><br><br><p><img src='run_exp/static/images/task_images/opening_img-01.jpg' height='300' width='auto'></p><button class=""jspsych-html-btn-unchosen""><img src=""run_exp/static/images/task_images/planet-01.jpg"" height=""50""></button><button class=""jspsych-html-btn-chosen""><img src=""run_exp/static/images/task_images/planet-02.jpg"" height=""50""></button><p><b>[press the space bar to lock in your answer]<b><br></p>",32,,,,,,,,,,,,,,,,,,,,,,,,
instruc_goal,6,45251,0.0-6.0-0.0,"""event"",""trial"",""time""
""fullscreenenter"",""1"",""5172""
","
","
","""event"",""trial"",""time""
""fullscreenenter"",""1"",""5172""
","
",,null,run_exp/static/audio/clip_3_goal.m4a,null,"<p> As a space explorer, you’ll visit different planets to dig for space treasure, these pink gems.</p> <p> The more treasure you dig up, the more bonus money you’ll win! </p><br><br><p><img src='run_exp/static/images/task_images/pink_gem.jpg' height='300' width='auto'></p>",,,,,,,,,,,,,,,,,,,,,,,
instruc_goal,7,47950,0.0-6.0-1.0,"""event"",""trial"",""time""
""fullscreenenter"",""1"",""5172""
","
","
","""event"",""trial"",""time""
""fullscreenenter"",""1"",""5172""
","
",,2697.5,"<p> As a space explorer, you’ll visit different planets to dig for space treasure, these pink gems.</p> <p> The more treasure you dig up, the more bonus money you’ll win! </p><br><br><p><img src='run_exp/static/images/task_images/pink_gem.jpg' height='300' width='auto'></p>",,,,,,,1,,,,,,,,,,,,,,,,,,
html-keyboard-response,8,48099,0.0-6.0-2.0,"""event"",""trial"",""time""
""fullscreenenter"",""1"",""5172""
","
","
","""event"",""trial"",""time""
""fullscreenenter"",""1"",""5172""
","
",,147.8,"<p> As a space explorer, you’ll visit different planets to dig for space treasure, these pink gems.</p> <p> The more treasure you dig up, the more bonus money you’ll win! </p><br><br><p><img src='run_exp/static/images/task_images/pink_gem.jpg' height='300' width='auto'></p><button class=""jspsych-html-btn-unchosen""><img src=""run_exp/static/images/task_images/planet-01.jpg"" height=""50""></button><button class=""jspsych-html-btn-chosen""><img src=""run_exp/static/images/task_images/planet-02.jpg"" height=""50""></button><p><b>[press the space bar to lock in your answer]<b><br></p>",32,,,,,,,,,,,,,,,,,,,,,,,,
instruc_dig,9,64132,0.0-7.0-0.0,"""event"",""trial"",""time""
""fullscreenenter"",""1"",""5172""
","
","
","""event"",""trial"",""time""
""fullscreenenter"",""1"",""5172""
","
",,null,run_exp/static/audio/clip_4_dig.m4a,null,,,,,,,100,,,,,,,,,,,,,,,,,
instruc_dig_try,10,64982,0.0-7.0-1.0,"""event"",""trial"",""time""
""fullscreenenter"",""1"",""5172""
","
","
","""event"",""trial"",""time""
""fullscreenenter"",""1"",""5172""
","
",,847.7,"<p> When you’ve arrived at a new planet, you will dig once. </p> <p>Then, you get to decide if you want to stay on the planet and dig again or travel to a new planet and dig there.</p> <p> To stay and dig, press the letter <strong>‘A’</strong> on your keyboard. Try pressing it now! </p><p><img src='run_exp/static/images/task_images/land.jpg'  height='700' width='auto'></p>",65,"<p> When you’ve arrived at a new planet, you will dig once. </p> <p>Then, you get to decide if you want to stay on the planet and dig again or travel to a new planet and dig there.</p> <p> To stay and dig, press the letter <strong>‘A’</strong> on your keyboard. Try pressing it now! </p><p><img src='run_exp/static/images/task_images/land.jpg'  height='700' width='auto'></p>",,,,,,100,,,,,,,,,,,,,,,,,
dig_prac,11,66991,0.0-7.0-2.0,"""event"",""trial"",""time""
""fullscreenenter"",""1"",""5172""
","
","
","""event"",""trial"",""time""
""fullscreenenter"",""1"",""5172""
","
",,,,,,,,,,,,"[{""stimulus"":""run_exp/static/images/task_images/dig.jpg"",""time"":0.09999999403953552},{""stimulus"":""run_exp/static/images/task_images/land.jpg"",""time"":668.5},{""stimulus"":""run_exp/static/images/task_images/dig.jpg"",""time"":1336.5999999940395}]",[],,,,,,,,,,,,,,,
instruc_travel,12,103233,0.0-7.0-3.0,"""event"",""trial"",""time""
""fullscreenenter"",""1"",""5172""
","
","
","""event"",""trial"",""time""
""fullscreenenter"",""1"",""5172""
","
",,null,run_exp/static/audio/clip_5_travel.m4a,null,"<p>Every time you dig up gems, there are less gems on the planet, so the more you dig on a planet the fewer gems you’ll get with each dig.</p><p>When gems are running low, you may want to travel to a new planet. </p> <p>  Planets are very far apart in this galaxy, so it will take some time to travel between them. </p> <br><p>There are lots and lots of planets for you to visit, so you won’t be able to return to any planets you’ve seen before. </p><br><p>To leave this planet and travel to a new one, press the letter <strong>‘L’</strong> on your keyboard. Try pressing it now! </p><p><img src='run_exp/static/images/task_images/rocket-01.jpg'  height='600' width='auto'></p>",,,,,,,,,,,,,,,,,,,,,,,
instruc_travel_try,13,106055,0.0-7.0-4.0,"""event"",""trial"",""time""
""fullscreenenter"",""1"",""5172""
","
","
","""event"",""trial"",""time""
""fullscreenenter"",""1"",""5172""
","
",,2820.9,"<p>Every time you dig up gems, there are less gems on the planet, so the more you dig on a planet the fewer gems you’ll get with each dig.</p><p>When gems are running low, you may want to travel to a new planet. </p> <p>  Planets are very far apart in this galaxy, so it will take some time to travel between them. </p> <br><p>There are lots and lots of planets for you to visit, so you won’t be able to return to any planets you’ve seen before. </p><br><p>To leave this planet and travel to a new one, press the letter <strong>‘L’</strong> on your keyboard. Try pressing it now! </p><p><img src='run_exp/static/images/task_images/rocket-01.jpg'  height='600' width='auto'></p>",76,"<p>Every time you dig up gems, there are less gems on the planet, so the more you dig on a planet the fewer gems you’ll get with each dig.</p><p>When gems are running low, you may want to travel to a new planet. </p> <p>  Planets are very far apart in this galaxy, so it will take some time to travel between them. </p> <br><p>There are lots and lots of planets for you to visit, so you won’t be able to return to any planets you’ve seen before. </p><br><p>To leave this planet and travel to a new one, press the letter <strong>‘L’</strong> on your keyboard. Try pressing it now! </p><p><img src='run_exp/static/images/task_images/rocket-01.jpg'  height='600' width='auto'></p>",,,,,,,,,,,,,,,,,,,,,,,
travel_prac,14,116057,0.0-7.0-5.0,"""event"",""trial"",""time""
""fullscreenenter"",""1"",""5172""
","
","
","""event"",""trial"",""time""
""fullscreenenter"",""1"",""5172""
","
",,,,,,,,,,,,"[{""stimulus"":""run_exp/static/images/task_images/rocket-01.jpg"",""time"":0.19999998807907104},{""stimulus"":""run_exp/static/images/task_images/rocket-02.jpg"",""time"":1112.9000000059605},{""stimulus"":""run_exp/static/images/task_images/rocket-03.jpg"",""time"":2224.300000011921},{""stimulus"":""run_exp/static/images/task_images/rocket-04.jpg"",""time"":3335.300000011921},{""stimulus"":""run_exp/static/images/task_images/rocket-05.jpg"",""time"":4445.699999988079},{""stimulus"":""run_exp/static/images/task_images/rocket-06.jpg"",""time"":5556.199999988079},{""stimulus"":""run_exp/static/images/task_images/rocket-07.jpg"",""time"":6667.300000011921},{""stimulus"":""run_exp/static/images/task_images/rocket-08.jpg"",""time"":7781},{""stimulus"":""run_exp/static/images/task_images/rocket-09.jpg"",""time"":8890.40000000596}]",[],0,,,,,,,,,,,,,,
instruc_alien_greet,15,143244,0.0-7.0-6.0,"""event"",""trial"",""time""
""fullscreenenter"",""1"",""5172""
","
","
","""event"",""trial"",""time""
""fullscreenenter"",""1"",""5172""
","
",,null,run_exp/static/audio/clip_6_alien.m4a,null,"<p>When you arrive at a new planet, the alien who owns the treasure mine on that planet will greet you!</p><p>The better an alien takes care of their mine the easier it is to dig for gems. Some aliens take better care of their mine than others. So, you won’t get exactly the same amount of gems on each planet.</p><p>What the alien looks like does not tell you anything about how many gems there are on the planet.</p><br><p><img src=""run_exp/static/images/task_images/aliens/instructions_aliens/planet/alien_planet-1.jpg""  height=""600"" width=""auto""></p>",,,,,,,,,,,,,,,,,,,,,,,
instruc_alien_greet,16,155849,0.0-7.0-7.0,"""event"",""trial"",""time""
""fullscreenenter"",""1"",""5172""
","
","
","""event"",""trial"",""time""
""fullscreenenter"",""1"",""5172""
","
",,12603.6,"<p>When you arrive at a new planet, the alien who owns the treasure mine on that planet will greet you!</p><p>The better an alien takes care of their mine the easier it is to dig for gems. Some aliens take better care of their mine than others. So, you won’t get exactly the same amount of gems on each planet.</p><p>What the alien looks like does not tell you anything about how many gems there are on the planet.</p><br><p><img src=""run_exp/static/images/task_images/aliens/instructions_aliens/planet/alien_planet-1.jpg""  height=""600"" width=""auto""></p>",,,,,,,1,,,,,,,,,,,,,,,,,,
html-keyboard-response,17,156871,0.0-7.0-8.0,"""event"",""trial"",""time""
""fullscreenenter"",""1"",""5172""
","
","
","""event"",""trial"",""time""
""fullscreenenter"",""1"",""5172""
","
",,1020.5,"<p>When you arrive at a new planet, the alien who owns the treasure mine on that planet will greet you!</p><p>The better an alien takes care of their mine the easier it is to dig for gems. Some aliens take better care of their mine than others. So, you won’t get exactly the same amount of gems on each planet.</p><p>What the alien looks like does not tell you anything about how many gems there are on the planet.</p><br><p><img src=""run_exp/static/images/task_images/aliens/instructions_aliens/planet/alien_planet-1.jpg""  height=""600"" width=""auto""></p><button class=""jspsych-html-btn-unchosen""><img src=""run_exp/static/images/task_images/planet-01.jpg"" height=""50""></button><button class=""jspsych-html-btn-chosen""><img src=""run_exp/static/images/task_images/planet-02.jpg"" height=""50""></button><p><b>[press the space bar to lock in your answer]<b><br></p>",32,,,,,,,,,,,,,,,,,,,,,,,,
time_out,18,168186,0.0-8.0-0.0,"""event"",""trial"",""time""
""fullscreenenter"",""1"",""5172""
","
","
","""event"",""trial"",""time""
""fullscreenenter"",""1"",""5172""
","
",,null,run_exp/static/audio/clip_7_timeout.m4a,null,"<p>If you don't make your choice fast enough, you’ll have to wait a few seconds before you can make another one.</p><p>You can’t dig for more gems or travel to new planets. You just have to sit and wait.</p><br><p><img src='run_exp/static/images/task_images/time_out.jpg'  height='600' width='auto'></p>",,,,,,,,,,,,,,,,,,,,,,,
time_out,19,173715,0.0-8.0-1.0,"""event"",""trial"",""time""
""fullscreenenter"",""1"",""5172""
","
","
","""event"",""trial"",""time""
""fullscreenenter"",""1"",""5172""
","
",,5528.3,"<p>If you don't make your choice fast enough, you’ll have to wait a few seconds before you can make another one.</p><p>You can’t dig for more gems or travel to new planets. You just have to sit and wait.</p><br><p><img src='run_exp/static/images/task_images/time_out.jpg'  height='600' width='auto'></p>",,,,,,,1,,,,,,,,,,,,,,,,,,
html-keyboard-response,20,174329,0.0-8.0-2.0,"""event"",""trial"",""time""
""fullscreenenter"",""1"",""5172""
","
","
","""event"",""trial"",""time""
""fullscreenenter"",""1"",""5172""
","
",,612.5,"<p>If you don't make your choice fast enough, you’ll have to wait a few seconds before you can make another one.</p><p>You can’t dig for more gems or travel to new planets. You just have to sit and wait.</p><br><p><img src='run_exp/static/images/task_images/time_out.jpg'  height='600' width='auto'></p><button class=""jspsych-html-btn-unchosen""><img src=""run_exp/static/images/task_images/planet-01.jpg"" height=""50""></button><button class=""jspsych-html-btn-chosen""><img src=""run_exp/static/images/task_images/planet-02.jpg"" height=""50""></button><p><b>[press the space bar to lock in your answer]<b><br></p>",32,,,,,,,,,,,,,,,,,,,,,,,,
instruc_break,21,190006,0.0-9.0-0.0,"""event"",""trial"",""time""
""fullscreenenter"",""1"",""5172""
","
","
","""event"",""trial"",""time""
""fullscreenenter"",""1"",""5172""
","
",,null,run_exp/static/audio/clip_8_break.m4a,null,"<p> After digging and traveling for a while, you’ll be able to take a break at home base. </p><p>The game will last 20 minutes no matter what.</p><p>You will visit home base every 5 minutes, so, you will visit home base three times during the game.</p><br><p><img src='run_exp/static/images/task_images/home_base.jpg' height='600' width='auto'></p>",,,,,,,,,,,,,,,,,,,,,,,
instruc_break,22,192009,0.0-9.0-1.0,"""event"",""trial"",""time""
""fullscreenenter"",""1"",""5172""
","
","
","""event"",""trial"",""time""
""fullscreenenter"",""1"",""5172""
","
",,2001.3,"<p> After digging and traveling for a while, you’ll be able to take a break at home base. </p><p>The game will last 20 minutes no matter what.</p><p>You will visit home base every 5 minutes, so, you will visit home base three times during the game.</p><br><p><img src='run_exp/static/images/task_images/home_base.jpg' height='600' width='auto'></p>",,,,,,,1,,,,,,,,,,,,,,,,,,
html-keyboard-response,23,194870,0.0-9.0-2.0,"""event"",""trial"",""time""
""fullscreenenter"",""1"",""5172""
","
","
","""event"",""trial"",""time""
""fullscreenenter"",""1"",""5172""
","
",,2859.7,"<p> After digging and traveling for a while, you’ll be able to take a break at home base. </p><p>The game will last 20 minutes no matter what.</p><p>You will visit home base every 5 minutes, so, you will visit home base three times during the game.</p><br><p><img src='run_exp/static/images/task_images/home_base.jpg' height='600' width='auto'></p><button class=""jspsych-html-btn-unchosen""><img src=""run_exp/static/images/task_images/planet-01.jpg"" height=""50""></button><button class=""jspsych-html-btn-chosen""><img src=""run_exp/static/images/task_images/planet-02.jpg"" height=""50""></button><p><b>[press the space bar to lock in your answer]<b><br></p>",32,,,,,,,,,,,,,,,,,,,,,,,,
instruc_prac_game,24,205006,0.0-10.0-0.0,"""event"",""trial"",""time""
""fullscreenenter"",""1"",""5172""
","
","
","""event"",""trial"",""time""
""fullscreenenter"",""1"",""5172""
","
",,null,run_exp/static/audio/clip_9_practice.m4a,null,"<p> Are you ready to play a practice game? </p> <p>In this practice game, you'll be digging up barrels of gems. But, in the real game, you'll be digging up the gems themselves. </p>",,,,,,,,,,,,,,,,,,,,,,,
html-button-response,25,206306,0.0-10.0-1.0,"""event"",""trial"",""time""
""fullscreenenter"",""1"",""5172""
","
","
","""event"",""trial"",""time""
""fullscreenenter"",""1"",""5172""
","
",,1299.3,"<p> Are you ready to play a practice game? </p> <p>In this practice game, you'll be digging up barrels of gems. But, in the real game, you'll be digging up the gems themselves. </p>",,,,,,,0,,,,,,,,,,,,,,,,,,
alien_welcome_prac,26,211309,0.0-11.0-0.0,"""event"",""trial"",""time""
""fullscreenenter"",""1"",""5172""
","
","
","""event"",""trial"",""time""
""fullscreenenter"",""1"",""5172""
","
",,null,run_exp/static/images/task_images/aliens/practice_aliens/planet/alien_planet-5.jpg,null,,,,,,,,,,,,,,,,,,,,,,,,
land_prac,27,211812,0.0-11.0-1.0,"""event"",""trial"",""time""
""fullscreenenter"",""1"",""5172""
","
","
","""event"",""trial"",""time""
""fullscreenenter"",""1"",""5172""
","
",,null,run_exp/static/images/task_images/land.jpg,null,,,,,,,102,,,0,,,,,,,,,,,,,,
dig_prac,28,213816,0.0-11.0-2.0,"""event"",""trial"",""time""
""fullscreenenter"",""1"",""5172""
","
","
","""event"",""trial"",""time""
""fullscreenenter"",""1"",""5172""
","
",,,,,,,,,,,,"[{""stimulus"":""run_exp/static/images/task_images/dig.jpg"",""time"":0.09999999403953552},{""stimulus"":""run_exp/static/images/task_images/land.jpg"",""time"":668.8000000119209},{""stimulus"":""run_exp/static/images/task_images/dig.jpg"",""time"":1335}]",[],,,,,,,,,,,,,,,
harvest_prac,29,214817,0.0-11.0-3.0,"""event"",""trial"",""time""
""fullscreenenter"",""1"",""5172""
","
","
","""event"",""trial"",""time""
""fullscreenenter"",""1"",""5172""
","
",,null,run_exp/static/images/task_images/barrel_text.jpg,null,,,,,,,,,,,,,,,,,,,,,,,,
decision_prac,30,217819,0.0-11.0-4.0,"""event"",""trial"",""time""
""fullscreenenter"",""1"",""5172""
","
","
","""event"",""trial"",""time""
""fullscreenenter"",""1"",""5172""
","
",,null,run_exp/static/images/task_images/land.jpg,null,,,,,,,,,,,1,,,,,,,,,,,,,
time_out,31,219823,0.0-12.0-0.0,"""event"",""trial"",""time""
""fullscreenenter"",""1"",""5172""
","
","
","""event"",""trial"",""time""
""fullscreenenter"",""1"",""5172""
","
",,null,run_exp/static/images/task_images/time_out.jpg,null,,,,,,,,,,,,,,,,,,,,,,,,
decision_prac,32,220393,0.0-12.0-1.0,"""event"",""trial"",""time""
""fullscreenenter"",""1"",""5172""
","
","
","""event"",""trial"",""time""
""fullscreenenter"",""1"",""5172""
","
",,568.7,run_exp/static/images/task_images/land.jpg,65,,,,,,,,,,,2,,,,,,,,,,,,,
dig_prac,33,222397,0.0-13.0-0.0,"""event"",""trial"",""time""
""fullscreenenter"",""1"",""5172""
","
","
","""event"",""trial"",""time""
""fullscreenenter"",""1"",""5172""
","
",,,,,,,,,,,,"[{""stimulus"":""run_exp/static/images/task_images/dig.jpg"",""time"":0.09999999403953552},{""stimulus"":""run_exp/static/images/task_images/land.jpg"",""time"":668.8000000119209},{""stimulus"":""run_exp/static/images/task_images/dig.jpg"",""time"":1336}]",[],,,,,,,,,,,,,,,
harvest_prac,34,223399,0.0-13.0-1.0,"""event"",""trial"",""time""
""fullscreenenter"",""1"",""5172""
","
","
","""event"",""trial"",""time""
""fullscreenenter"",""1"",""5172""
","
",,null,run_exp/static/images/task_images/barrel_text.jpg,null,,,,,,,,,,,,,,,,,,,,,,,,
decision_prac,35,224678,0.0-13.0-2.0,"""event"",""trial"",""time""
""fullscreenenter"",""1"",""5172""
","
","
","""event"",""trial"",""time""
""fullscreenenter"",""1"",""5172""
","
",,1278,run_exp/static/images/task_images/land.jpg,65,,,,,,,,,,,3,,,,,,,,,,,,,
dig_prac,36,226681,0.0-14.0-0.0,"""event"",""trial"",""time""
""fullscreenenter"",""1"",""5172""
","
","
","""event"",""trial"",""time""
""fullscreenenter"",""1"",""5172""
","
",,,,,,,,,,,,"[{""stimulus"":""run_exp/static/images/task_images/dig.jpg"",""time"":0.09999999403953552},{""stimulus"":""run_exp/static/images/task_images/land.jpg"",""time"":667.8000000119209},{""stimulus"":""run_exp/static/images/task_images/dig.jpg"",""time"":1335}]",[],,,,,,,,,,,,,,,
harvest_prac,37,227683,0.0-14.0-1.0,"""event"",""trial"",""time""
""fullscreenenter"",""1"",""5172""
","
","
","""event"",""trial"",""time""
""fullscreenenter"",""1"",""5172""
","
",,null,run_exp/static/images/task_images/barrel_text.jpg,null,,,,,,,,,,,,,,,,,,,,,,,,
decision_prac,38,228129,0.0-14.0-2.0,"""event"",""trial"",""time""
""fullscreenenter"",""1"",""5172""
","
","
","""event"",""trial"",""time""
""fullscreenenter"",""1"",""5172""
","
",,444.7,run_exp/static/images/task_images/land.jpg,65,,,,,,,,,,,4,,,,,,,,,,,,,
dig_prac,39,230133,0.0-15.0-0.0,"""event"",""trial"",""time""
""fullscreenenter"",""1"",""5172""
","
","
","""event"",""trial"",""time""
""fullscreenenter"",""1"",""5172""
","
",,,,,,,,,,,,"[{""stimulus"":""run_exp/static/images/task_images/dig.jpg"",""time"":0.09999999403953552},{""stimulus"":""run_exp/static/images/task_images/land.jpg"",""time"":668.5},{""stimulus"":""run_exp/static/images/task_images/dig.jpg"",""time"":1335.8999999761581}]",[],,,,,,,,,,,,,,,
harvest_prac,40,231136,0.0-15.0-1.0,"""event"",""trial"",""time""
""fullscreenenter"",""1"",""5172""
","
","
","""event"",""trial"",""time""
""fullscreenenter"",""1"",""5172""
","
",,null,run_exp/static/images/task_images/barrel_text.jpg,null,,,,,,,,,,,,,,,,,,,,,,,,
decision_prac,41,231439,0.0-15.0-2.0,"""event"",""trial"",""time""
""fullscreenenter"",""1"",""5172""
","
","
","""event"",""trial"",""time""
""fullscreenenter"",""1"",""5172""
","
",,302.5,run_exp/static/images/task_images/land.jpg,65,,,,,,,,,,,,1,,,,,,,,,,,,
quiz_instruc,42,242944,0.0-16.0-0.0,"""event"",""trial"",""time""
""fullscreenenter"",""1"",""5172""
","
","
","""event"",""trial"",""time""
""fullscreenenter"",""1"",""5172""
","
",,11503.4,run_exp/static/audio/clip_10_quiz.m4a,,,,,,,0,,,,,,,,,,,,,,,,,,
instruc_repeat,43,285709,0.0-16.0-1.0,"""event"",""trial"",""time""
""fullscreenenter"",""1"",""5172""
","
","
","""event"",""trial"",""time""
""fullscreenenter"",""1"",""5172""
","
",,null,"<p> Are you ready to play a practice game? </p> <p>In this practice game, you'll be digging up barrels of gems. But, in the real game, you'll be digging up the gems themselves. </p>",null,"<p>In this game, your goal is to collect as many gems as you can. That’s how you will win bonus money. </p> <p>The entire game will last 20 minutes no matter how many gems you collect or how many planets you visit. </p><p>To stay on a planet and dig again, press the letter A on your keyboard. To leave for a new planet, press the letter L.</p><p>The more you dig on a planet, the fewer gems you’ll get with each dig which is why you might consider leaving for a new planet. </p><p>When you arrive at a new planet, you’ll be greeted by an alien. What the alien looks like does not tell you anything about how much treasure is on the planet. </p>",,,,,,,,,,,,,,,,,,,,,,,
instruc_repeat_continue,44,292469,0.0-16.0-2.0,"""event"",""trial"",""time""
""fullscreenenter"",""1"",""5172""
","
","
","""event"",""trial"",""time""
""fullscreenenter"",""1"",""5172""
","
",,6759.2,"<p> Are you ready to play a practice game? </p> <p>In this practice game, you'll be digging up barrels of gems. But, in the real game, you'll be digging up the gems themselves. </p>",,,,,,,0,,,,,,,,,,,,,,,,,,
quiz_q_1_ask,45,295080,0.0-16.0-3.0,"""event"",""trial"",""time""
""fullscreenenter"",""1"",""5172""
","
","
","""event"",""trial"",""time""
""fullscreenenter"",""1"",""5172""
","
",,2609.5,run_exp/static/audio/clip_11_q1_ask.m4a,,,,,,,2,,,,,,,,,,,,,,,,,,
quiz_q_1_fb_correct,46,298929,0.0-17.0-0.0,"""event"",""trial"",""time""
""fullscreenenter"",""1"",""5172""
","
","
","""event"",""trial"",""time""
""fullscreenenter"",""1"",""5172""
","
",,null,run_exp/static/audio/clip_12_q1_correct.m4a,null,<p>That’s correct. You win extra money by collecting more gems.</p>,,,,,,,,,,,,,,,,,,,,,,,
quiz_q_2_ask,47,301976,0.0-17.0-1.0,"""event"",""trial"",""time""
""fullscreenenter"",""1"",""5172""
","
","
","""event"",""trial"",""time""
""fullscreenenter"",""1"",""5172""
","
",,3044.8,run_exp/static/audio/clip_14_q2_ask.m4a,,,,,,,1,,,,,,,,,,,,,,,,,,
quiz_q_2_fb_correct,48,305990,0.0-18.0-0.0,"""event"",""trial"",""time""
""fullscreenenter"",""1"",""5172""
","
","
","""event"",""trial"",""time""
""fullscreenenter"",""1"",""5172""
","
",,null,run_exp/static/audio/clip_15_q2_correct.m4a,null,<p>That’s correct. The experiment is 20 minutes no matter what.</p>,,,,,,,,,,,,,,,,,,,,,,,
quiz_q_3_ask,49,311872,0.0-18.0-1.0,"""event"",""trial"",""time""
""fullscreenenter"",""1"",""5172""
","
","
","""event"",""trial"",""time""
""fullscreenenter"",""1"",""5172""
","
",,5881.4,run_exp/static/audio/clip_17_q3_ask.m4a,,,,,,,1,,,,,,,,,,,,,,,,,,
quiz_q_3_fb_correct,50,315869,0.0-19.0-0.0,"""event"",""trial"",""time""
""fullscreenenter"",""1"",""5172""
","
","
","""event"",""trial"",""time""
""fullscreenenter"",""1"",""5172""
","
",,null,run_exp/static/audio/clip_18_q3_correct.m4a,null,<p> That’s correct. You press the letter L to travel to a new planet.</p>,,,,,,,,,,,,,,,,,,,,,,,
quiz_q_4_ask,51,321885,0.0-19.0-1.0,"""event"",""trial"",""time""
""fullscreenenter"",""1"",""5172""
","
","
","""event"",""trial"",""time""
""fullscreenenter"",""1"",""5172""
","
",,6014.4,run_exp/static/audio/clip_20_q4_ask.m4a,,,,,,,1,,,,,,,,,,,,,,,,,,
quiz_q_4_fb_incorrect,52,327690,0.0-20.0-0.0,"""event"",""trial"",""time""
""fullscreenenter"",""1"",""5172""
","
","
","""event"",""trial"",""time""
""fullscreenenter"",""1"",""5172""
","
",,null,run_exp/static/audio/clip_22_q4_incorrect.m4a,null,<p>That’s incorrect.  The more you dig on a planet the fewer gems you’ll get with each dig.</p>,,,,,,,,,,,,,,,,,,,,,,,
quiz_q_5_ask,53,332312,0.0-20.0-1.0,"""event"",""trial"",""time""
""fullscreenenter"",""1"",""5172""
","
","
","""event"",""trial"",""time""
""fullscreenenter"",""1"",""5172""
","
",,4620.8,run_exp/static/audio/clip_23_q5_ask.m4a,,,,,,,1,,,,,,,,,,,,,,,,,,
quiz_q_5_fb_correct,54,337310,0.0-21.0-0.0,"""event"",""trial"",""time""
""fullscreenenter"",""1"",""5172""
","
","
","""event"",""trial"",""time""
""fullscreenenter"",""1"",""5172""
","
",,null,run_exp/static/audio/clip_24_q5_correct.m4a,null,<p> That’s correct. The alien tells you nothing about how much treasure is on the planet.</p>,,,,,,,,,,,,,,,,,,,,,,,
quiz_incorrect,55,342851,0.0-22.0-0.0,"""event"",""trial"",""time""
""fullscreenenter"",""1"",""5172""
","
","
","""event"",""trial"",""time""
""fullscreenenter"",""1"",""5172""
","
",,null,run_exp/static/audio/clip_27_incorrect_quiz.m4a,null,,,,,,,,,,,,,,,,,,,,,,,,
quiz_incorrect_continue,56,343710,0.0-22.0-1.0,"""event"",""trial"",""time""
""fullscreenenter"",""1"",""5172""
","
","
","""event"",""trial"",""time""
""fullscreenenter"",""1"",""5172""
","
",,859.1,"<p>Oops, you missed some questions.</p><p>Now that you’ve heard the correct answers. Try the quiz again!</p>",,,,,,,0,,,,,,,,,,,,,,,,,,
quiz_q_1_ask,57,345623,0.0-22.0-2.0,"""event"",""trial"",""time""
""fullscreenenter"",""1"",""5172""
","
","
","""event"",""trial"",""time""
""fullscreenenter"",""1"",""5172""
","
",,1911.6,run_exp/static/audio/clip_11_q1_ask.m4a,,,,,,,2,,,,,,,,,,,,,,,,,,
quiz_q_1_fb_correct,58,349471,0.0-23.0-0.0,"""event"",""trial"",""time""
""fullscreenenter"",""1"",""5172""
","
","
","""event"",""trial"",""time""
""fullscreenenter"",""1"",""5172""
","
",,null,run_exp/static/audio/clip_12_q1_correct.m4a,null,<p>That’s correct. You win extra money by collecting more gems.</p>,,,,,,,,,,,,,,,,,,,,,,,
quiz_q_2_ask,59,350281,0.0-23.0-1.0,"""event"",""trial"",""time""
""fullscreenenter"",""1"",""5172""
","
","
","""event"",""trial"",""time""
""fullscreenenter"",""1"",""5172""
","
",,808.2,run_exp/static/audio/clip_14_q2_ask.m4a,,,,,,,1,,,,,,,,,,,,,,,,,,
quiz_q_2_fb_correct,60,354291,0.0-24.0-0.0,"""event"",""trial"",""time""
""fullscreenenter"",""1"",""5172""
","
","
","""event"",""trial"",""time""
""fullscreenenter"",""1"",""5172""
","
",,null,run_exp/static/audio/clip_15_q2_correct.m4a,null,<p>That’s correct. The experiment is 20 minutes no matter what.</p>,,,,,,,,,,,,,,,,,,,,,,,
quiz_q_3_ask,61,358899,0.0-24.0-1.0,"""event"",""trial"",""time""
""fullscreenenter"",""1"",""5172""
","
","
","""event"",""trial"",""time""
""fullscreenenter"",""1"",""5172""
","
",,4606.4,run_exp/static/audio/clip_17_q3_ask.m4a,,,,,,,1,,,,,,,,,,,,,,,,,,
quiz_q_3_fb_correct,62,362891,0.0-25.0-0.0,"""event"",""trial"",""time""
""fullscreenenter"",""1"",""5172""
","
","
","""event"",""trial"",""time""
""fullscreenenter"",""1"",""5172""
","
",,null,run_exp/static/audio/clip_18_q3_correct.m4a,null,<p> That’s correct. You press the letter L to travel to a new planet.</p>,,,,,,,,,,,,,,,,,,,,,,,
quiz_q_4_ask,63,367584,0.0-25.0-1.0,"""event"",""trial"",""time""
""fullscreenenter"",""1"",""5172""
","
","
","""event"",""trial"",""time""
""fullscreenenter"",""1"",""5172""
","
",,4691,run_exp/static/audio/clip_20_q4_ask.m4a,,,,,,,0,,,,,,,,,,,,,,,,,,
quiz_q_4_fb_correct,64,372912,0.0-26.0-0.0,"""event"",""trial"",""time""
""fullscreenenter"",""1"",""5172""
","
","
","""event"",""trial"",""time""
""fullscreenenter"",""1"",""5172""
","
",,null,run_exp/static/audio/clip_21_q4_correct.m4a,null,<p> That’s correct. The more you dig on a planet the fewer gems you’ll get with each dig. </p>,,,,,,,,,,,,,,,,,,,,,,,
quiz_q_5_ask,65,376584,0.0-26.0-1.0,"""event"",""trial"",""time""
""fullscreenenter"",""1"",""5172""
","
","
","""event"",""trial"",""time""
""fullscreenenter"",""1"",""5172""
","
",,3670.6,run_exp/static/audio/clip_23_q5_ask.m4a,,,,,,,1,,,,,,,,,,,,,,,,,,
quiz_q_5_fb_correct,66,381592,0.0-27.0-0.0,"""event"",""trial"",""time""
""fullscreenenter"",""1"",""5172""
","
","
","""event"",""trial"",""time""
""fullscreenenter"",""1"",""5172""
","
",,null,run_exp/static/audio/clip_24_q5_correct.m4a,null,<p> That’s correct. The alien tells you nothing about how much treasure is on the planet.</p>,,,,,,,,,,,,,,,,,,,,,,,
quiz_correct,67,385073,0.0-28.0-0.0,"""event"",""trial"",""time""
""fullscreenenter"",""1"",""5172""
","
","
","""event"",""trial"",""time""
""fullscreenenter"",""1"",""5172""
","
",,null,run_exp/static/audio/clip_26_correct_quiz.m4a,null,,,,,,,,,,,,,,,,,,,,,,,,
quiz_correct_continue,68,443230,0.0-28.0-1.0,"""event"",""trial"",""time""
""fullscreenenter"",""1"",""5172""
","
","
","""event"",""trial"",""time""
""fullscreenenter"",""1"",""5172""
","
",,58156.4,<p>Good job! You're now ready to move on to the real game!</p>,,,,,,,0,,,,,,,,,,,,,,,,,,
audio-keyboard-response,69,454142,0.0-28.0-2.0,"""event"",""trial"",""time""
""fullscreenenter"",""1"",""5172""
","
","
","""event"",""trial"",""time""
""fullscreenenter"",""1"",""5172""
","
",,null,run_exp/static/audio/clip_28_real_game.m4a,null,,,,,,,,,,,,,,,,,,,,,,,,
instruc_begin_exp_contine,70,454734,0.0-28.0-3.0,"""event"",""trial"",""time""
""fullscreenenter"",""1"",""5172""
","
","
","""event"",""trial"",""time""
""fullscreenenter"",""1"",""5172""
","
",,591.4,"<p>Now that you know how  to dig for space treasure and travel to new planets,you can start exploring! </p><p>Do you want to go over the instructions again or get started with the real game?</p>",,,,,,,1,,,,,,1,,,,,,,,,,,,
alien_welcome,71,459737,0.0-29.0-0.0,"""event"",""trial"",""time""
""fullscreenenter"",""1"",""5172""
","
","
","""event"",""trial"",""time""
""fullscreenenter"",""1"",""5172""
","
",,null,run_exp/static/images/task_images/aliens/old_aliens/planet/alien_planet-13.jpg,null,,,,,,,,,,,,,13,"13,75,36,37,28,16,54,4,72,32,52,30,67,38,18,58,42,66,10,3,64,17,33,44,8,78,45,6,46,14,12,76,20,50,57,53",,,,,,,,,,
land,72,460238,0.0-29.0-1.0,"""event"",""trial"",""time""
""fullscreenenter"",""1"",""5172""
","
","
","""event"",""trial"",""time""
""fullscreenenter"",""1"",""5172""
","
",,null,run_exp/static/images/task_images/land.jpg,null,,,,,,,93,,,1,,,,,,,,,,,,,,
dig,73,462243,0.0-29.0-2.0,"""event"",""trial"",""time""
""fullscreenenter"",""1"",""5172""
","
","
","""event"",""trial"",""time""
""fullscreenenter"",""1"",""5172""
","
",,,,,,,,,,,,"[{""stimulus"":""run_exp/static/images/task_images/dig.jpg"",""time"":0.19999998807907104},{""stimulus"":""run_exp/static/images/task_images/land.jpg"",""time"":668.4000000059605},{""stimulus"":""run_exp/static/images/task_images/dig.jpg"",""time"":1336.199999988079}]",[],1,,,,,,,,,,,,,,
harvest,74,463245,0.0-29.0-3.0,"""event"",""trial"",""time""
""fullscreenenter"",""1"",""5172""
","
","
","""event"",""trial"",""time""
""fullscreenenter"",""1"",""5172""
","
",,null,run_exp/static/images/task_images/gems/93.jpg,null,,,,,,,12,,,1,,,,,93,0.127913174,0.129032258,,,,,,,
decision,75,464293,0.0-29.0-4.0,"""event"",""trial"",""time""
""fullscreenenter"",""1"",""5172""
","
","
","""event"",""trial"",""time""
""fullscreenenter"",""1"",""5172""
","
",,1047.1,run_exp/static/images/task_images/land.jpg,65,,,,,,,12,,,1,,,,,,,,9558,1,0,FALSE,,,
dig,76,466246,0.0-30.0-0.0,"""event"",""trial"",""time""
""fullscreenenter"",""1"",""5172""
","
","
","""event"",""trial"",""time""
""fullscreenenter"",""1"",""5172""
","
",,,,,,,,,,,,"[{""stimulus"":""run_exp/static/images/task_images/dig.jpg"",""time"":0},{""stimulus"":""run_exp/static/images/task_images/land.jpg"",""time"":651.7999999821186},{""stimulus"":""run_exp/static/images/task_images/dig.jpg"",""time"":1302.199999988079}]",[],1,,,,,,,,,,,,,,
harvest,77,467248,0.0-30.0-1.0,"""event"",""trial"",""time""
""fullscreenenter"",""1"",""5172""
","
","
","""event"",""trial"",""time""
""fullscreenenter"",""1"",""5172""
","
",,null,run_exp/static/images/task_images/gems/12.jpg,null,,,,,,,2,,,1,,,,,12,0.153107832,0.166666667,,,,,,,
decision,78,467411,0.0-30.0-2.0,"""event"",""trial"",""time""
""fullscreenenter"",""1"",""5172""
","
","
","""event"",""trial"",""time""
""fullscreenenter"",""1"",""5172""
","
",,162,run_exp/static/images/task_images/land.jpg,65,,,,,,,2,,,1,,,,,,,,12677,1,1,FALSE,,,
dig,79,470252,0.0-31.0-0.0,"""event"",""trial"",""time""
""fullscreenenter"",""1"",""5172""
","
","
","""event"",""trial"",""time""
""fullscreenenter"",""1"",""5172""
","
",,,,,,,,,,,,"[{""stimulus"":""run_exp/static/images/task_images/dig.jpg"",""time"":0.09999999403953552},{""stimulus"":""run_exp/static/images/task_images/land.jpg"",""time"":946.5999999940395},{""stimulus"":""run_exp/static/images/task_images/dig.jpg"",""time"":1892.9000000059605}]",[],1,,,,,,,,,,,,,,
harvest,80,471256,0.0-31.0-1.0,"""event"",""trial"",""time""
""fullscreenenter"",""1"",""5172""
","
","
","""event"",""trial"",""time""
""fullscreenenter"",""1"",""5172""
","
",,null,run_exp/static/images/task_images/gems/2.jpg,null,,,,,,,1,,,1,,,,,2,0.264174797,0.5,,,,,,,
decision,81,471920,0.0-31.0-2.0,"""event"",""trial"",""time""
""fullscreenenter"",""1"",""5172""
","
","
","""event"",""trial"",""time""
""fullscreenenter"",""1"",""5172""
","
",,662.9,run_exp/static/images/task_images/land.jpg,76,,,,,,,1,,,1,,,,,,,,17186,1,2,TRUE,,,
travel,82,481256,0.0-32.0-0.0,"""event"",""trial"",""time""
""fullscreenenter"",""1"",""5172""
","
","
","""event"",""trial"",""time""
""fullscreenenter"",""1"",""5172""
","
",,,,,,,,,,,,"[{""stimulus"":""run_exp/static/images/task_images/rocket-01.jpg"",""time"":0.09999999403953552},{""stimulus"":""run_exp/static/images/task_images/rocket-02.jpg"",""time"":1038.4000000059605},{""stimulus"":""run_exp/static/images/task_images/rocket-03.jpg"",""time"":2074.7000000178814},{""stimulus"":""run_exp/static/images/task_images/rocket-04.jpg"",""time"":3113.0999999940395},{""stimulus"":""run_exp/static/images/task_images/rocket-05.jpg"",""time"":4149.4000000059605},{""stimulus"":""run_exp/static/images/task_images/rocket-06.jpg"",""time"":5186.0999999940395},{""stimulus"":""run_exp/static/images/task_images/rocket-07.jpg"",""time"":6223.300000011921},{""stimulus"":""run_exp/static/images/task_images/rocket-08.jpg"",""time"":7260.5},{""stimulus"":""run_exp/static/images/task_images/rocket-09.jpg"",""time"":8298.200000017881}]",[],1,,,,,,,,,,,,,,
alien_welcome,83,486257,0.0-32.0-1.0,"""event"",""trial"",""time""
""fullscreenenter"",""1"",""5172""
","
","
","""event"",""trial"",""time""
""fullscreenenter"",""1"",""5172""
","
",,null,run_exp/static/images/task_images/aliens/old_aliens/planet/alien_planet-75.jpg,null,,,,,,,,,,,,,75,"13,75,36,37,28,16,54,4,72,32,52,30,67,38,18,58,42,66,10,3,64,17,33,44,8,78,45,6,46,14,12,76,20,50,57,53",,,,,,,,,,
land,84,486759,0.0-32.0-2.0,"""event"",""trial"",""time""
""fullscreenenter"",""1"",""5172""
","
","
","""event"",""trial"",""time""
""fullscreenenter"",""1"",""5172""
","
",,null,run_exp/static/images/task_images/land.jpg,null,,,,,,,103,,,2,,,,,,,,,,,,,,
dig,85,488762,0.0-32.0-3.0,"""event"",""trial"",""time""
""fullscreenenter"",""1"",""5172""
","
","
","""event"",""trial"",""time""
""fullscreenenter"",""1"",""5172""
","
",,,,,,,,,,,,"[{""stimulus"":""run_exp/static/images/task_images/dig.jpg"",""time"":0.19999998807907104},{""stimulus"":""run_exp/static/images/task_images/land.jpg"",""time"":668.2999999821186},{""stimulus"":""run_exp/static/images/task_images/dig.jpg"",""time"":1336}]",[],2,,,,,,,,,,,,,,
harvest,86,489764,0.0-32.0-4.0,"""event"",""trial"",""time""
""fullscreenenter"",""1"",""5172""
","
","
","""event"",""trial"",""time""
""fullscreenenter"",""1"",""5172""
","
",,null,run_exp/static/images/task_images/gems/103.jpg,null,,,,,,,15,,,2,,,,,103,0.144397324,0.145631068,,,,,,,
decision,87,490276,0.0-32.0-5.0,"""event"",""trial"",""time""
""fullscreenenter"",""1"",""5172""
","
","
","""event"",""trial"",""time""
""fullscreenenter"",""1"",""5172""
","
",,511.3,run_exp/static/images/task_images/land.jpg,65,,,,,,,15,,,2,,,,,,,,35541,1,0,FALSE,,,
dig,88,492766,0.0-33.0-0.0,"""event"",""trial"",""time""
""fullscreenenter"",""1"",""5172""
","
","
","""event"",""trial"",""time""
""fullscreenenter"",""1"",""5172""
","
",,,,,,,,,,,,"[{""stimulus"":""run_exp/static/images/task_images/dig.jpg"",""time"":0},{""stimulus"":""run_exp/static/images/task_images/land.jpg"",""time"":830.9000000059605},{""stimulus"":""run_exp/static/images/task_images/dig.jpg"",""time"":1659.9000000059605}]",[],2,,,,,,,,,,,,,,
harvest,89,493767,0.0-33.0-1.0,"""event"",""trial"",""time""
""fullscreenenter"",""1"",""5172""
","
","
","""event"",""trial"",""time""
""fullscreenenter"",""1"",""5172""
","
",,null,run_exp/static/images/task_images/gems/15.jpg,null,,,,,,,3,,,2,,,,,15,0.193401662,0.2,,,,,,,
decision,90,495204,0.0-33.0-2.0,"""event"",""trial"",""time""
""fullscreenenter"",""1"",""5172""
","
","
","""event"",""trial"",""time""
""fullscreenenter"",""1"",""5172""
","
",,1435.6,run_exp/static/images/task_images/land.jpg,65,,,,,,,3,,,2,,,,,,,,40469,1,1,FALSE,,,
dig,91,496770,0.0-34.0-0.0,"""event"",""trial"",""time""
""fullscreenenter"",""1"",""5172""
","
","
","""event"",""trial"",""time""
""fullscreenenter"",""1"",""5172""
","
",,,,,,,,,,,,"[{""stimulus"":""run_exp/static/images/task_images/dig.jpg"",""time"":0},{""stimulus"":""run_exp/static/images/task_images/land.jpg"",""time"":522.4000000059605},{""stimulus"":""run_exp/static/images/task_images/dig.jpg"",""time"":1044.4000000059605}]",[],2,,,,,,,,,,,,,,
harvest,92,497771,0.0-34.0-1.0,"""event"",""trial"",""time""
""fullscreenenter"",""1"",""5172""
","
","
","""event"",""trial"",""time""
""fullscreenenter"",""1"",""5172""
","
",,null,run_exp/static/images/task_images/gems/3.jpg,null,,,,,,,1,,,2,,,,,3,0.231248106,0.333333333,,,,,,,
decision,93,498130,0.0-34.0-2.0,"""event"",""trial"",""time""
""fullscreenenter"",""1"",""5172""
","
","
","""event"",""trial"",""time""
""fullscreenenter"",""1"",""5172""
","
",,357.2,run_exp/static/images/task_images/land.jpg,76,,,,,,,1,,,2,,,,,,,,43395,1,2,TRUE,,,
travel,94,507772,0.0-35.0-0.0,"""event"",""trial"",""time""
""fullscreenenter"",""1"",""5172""
","
","
","""event"",""trial"",""time""
""fullscreenenter"",""1"",""5172""
","
",,,,,,,,,,,,"[{""stimulus"":""run_exp/static/images/task_images/rocket-01.jpg"",""time"":0.19999998807907104},{""stimulus"":""run_exp/static/images/task_images/rocket-02.jpg"",""time"":1073.199999988079},{""stimulus"":""run_exp/static/images/task_images/rocket-03.jpg"",""time"":2143.699999988079},{""stimulus"":""run_exp/static/images/task_images/rocket-04.jpg"",""time"":3213.899999976158},{""stimulus"":""run_exp/static/images/task_images/rocket-05.jpg"",""time"":4285.199999988079},{""stimulus"":""run_exp/static/images/task_images/rocket-06.jpg"",""time"":5360.0999999940395},{""stimulus"":""run_exp/static/images/task_images/rocket-07.jpg"",""time"":6427.199999988079},{""stimulus"":""run_exp/static/images/task_images/rocket-08.jpg"",""time"":7499.799999982119},{""stimulus"":""run_exp/static/images/task_images/rocket-09.jpg"",""time"":8569.799999982119}]",[],2,,,,,,,,,,,,,,
alien_welcome,95,512775,0.0-35.0-1.0,"""event"",""trial"",""time""
""fullscreenenter"",""1"",""5172""
","
","
","""event"",""trial"",""time""
""fullscreenenter"",""1"",""5172""
","
",,null,run_exp/static/images/task_images/aliens/old_aliens/planet/alien_planet-36.jpg,null,,,,,,,,,,,,,36,"13,75,36,37,28,16,54,4,72,32,52,30,67,38,18,58,42,66,10,3,64,17,33,44,8,78,45,6,46,14,12,76,20,50,57,53",,,,,,,,,,
land,96,513277,0.0-35.0-2.0,"""event"",""trial"",""time""
""fullscreenenter"",""1"",""5172""
","
","
","""event"",""trial"",""time""
""fullscreenenter"",""1"",""5172""
","
",,null,run_exp/static/images/task_images/land.jpg,null,,,,,,,107,,,3,,,,,,,,,,,,,,
dig,97,515281,0.0-35.0-3.0,"""event"",""trial"",""time""
""fullscreenenter"",""1"",""5172""
","
","
","""event"",""trial"",""time""
""fullscreenenter"",""1"",""5172""
","
",,,,,,,,,,,,"[{""stimulus"":""run_exp/static/images/task_images/dig.jpg"",""time"":0.20000001788139343},{""stimulus"":""run_exp/static/images/task_images/land.jpg"",""time"":667.9000000059605},{""stimulus"":""run_exp/static/images/task_images/dig.jpg"",""time"":1335.300000011921}]",[],3,,,,,,,,,,,,,,
harvest,98,516283,0.0-35.0-4.0,"""event"",""trial"",""time""
""fullscreenenter"",""1"",""5172""
","
","
","""event"",""trial"",""time""
""fullscreenenter"",""1"",""5172""
","
",,null,run_exp/static/images/task_images/gems/107.jpg,null,,,,,,,60,,,3,,,,,107,0.562530645,0.560747664,,,,,,,
decision,99,516423,0.0-35.0-5.0,"""event"",""trial"",""time""
""fullscreenenter"",""1"",""5172""
","
","
","""event"",""trial"",""time""
""fullscreenenter"",""1"",""5172""
","
",,139.1,run_exp/static/images/task_images/land.jpg,65,,,,,,,60,,,3,,,,,,,,61688,1,0,FALSE,,,
dig,100,519284,0.0-36.0-0.0,"""event"",""trial"",""time""
""fullscreenenter"",""1"",""5172""
","
","
","""event"",""trial"",""time""
""fullscreenenter"",""1"",""5172""
","
",,,,,,,,,,,,"[{""stimulus"":""run_exp/static/images/task_images/dig.jpg"",""time"":0},{""stimulus"":""run_exp/static/images/task_images/land.jpg"",""time"":953.9000000059605},{""stimulus"":""run_exp/static/images/task_images/dig.jpg"",""time"":1907}]",[],3,,,,,,,,,,,,,,
harvest,101,520285,0.0-36.0-1.0,"""event"",""trial"",""time""
""fullscreenenter"",""1"",""5172""
","
","
","""event"",""trial"",""time""
""fullscreenenter"",""1"",""5172""
","
",,null,run_exp/static/images/task_images/gems/60.jpg,null,,,,,,,31,,,3,,,,,60,0.519529825,0.516666667,,,,,,,
decision,102,520700,0.0-36.0-2.0,"""event"",""trial"",""time""
""fullscreenenter"",""1"",""5172""
","
","
","""event"",""trial"",""time""
""fullscreenenter"",""1"",""5172""
","
",,413.5,run_exp/static/images/task_images/land.jpg,65,,,,,,,31,,,3,,,,,,,,65965,1,1,FALSE,,,
dig,103,523288,0.0-37.0-0.0,"""event"",""trial"",""time""
""fullscreenenter"",""1"",""5172""
","
","
","""event"",""trial"",""time""
""fullscreenenter"",""1"",""5172""
","
",,,,,,,,,,,,"[{""stimulus"":""run_exp/static/images/task_images/dig.jpg"",""time"":0.10000002384185791},{""stimulus"":""run_exp/static/images/task_images/land.jpg"",""time"":864.4000000059605},{""stimulus"":""run_exp/static/images/task_images/dig.jpg"",""time"":1725.4000000059605}]",[],3,,,,,,,,,,,,,,
harvest,104,524296,0.0-37.0-1.0,"""event"",""trial"",""time""
""fullscreenenter"",""1"",""5172""
","
","
","""event"",""trial"",""time""
""fullscreenenter"",""1"",""5172""
","
",,null,run_exp/static/images/task_images/gems/31.jpg,null,,,,,,,14,,,3,,,,,31,0.450003655,0.451612903,,,,,,,
decision,105,524708,0.0-37.0-2.0,"""event"",""trial"",""time""
""fullscreenenter"",""1"",""5172""
","
","
","""event"",""trial"",""time""
""fullscreenenter"",""1"",""5172""
","
",,410.2,run_exp/static/images/task_images/land.jpg,76,,,,,,,14,,,3,,,,,,,,69973,1,2,TRUE,,,
travel,106,534295,0.0-38.0-0.0,"""event"",""trial"",""time""
""fullscreenenter"",""1"",""5172""
","
","
","""event"",""trial"",""time""
""fullscreenenter"",""1"",""5172""
","
",,,,,,,,,,,,"[{""stimulus"":""run_exp/static/images/task_images/rocket-01.jpg"",""time"":0.09999999403953552},{""stimulus"":""run_exp/static/images/task_images/rocket-02.jpg"",""time"":1069.5999999940395},{""stimulus"":""run_exp/static/images/task_images/rocket-03.jpg"",""time"":2146.0999999940395},{""stimulus"":""run_exp/static/images/task_images/rocket-04.jpg"",""time"":3196.699999988079},{""stimulus"":""run_exp/static/images/task_images/rocket-05.jpg"",""time"":4261},{""stimulus"":""run_exp/static/images/task_images/rocket-06.jpg"",""time"":5325.799999982119},{""stimulus"":""run_exp/static/images/task_images/rocket-07.jpg"",""time"":6391.4000000059605},{""stimulus"":""run_exp/static/images/task_images/rocket-08.jpg"",""time"":7456.5},{""stimulus"":""run_exp/static/images/task_images/rocket-09.jpg"",""time"":8522}]",[],3,,,,,,,,,,,,,,
alien_welcome,107,539298,0.0-38.0-1.0,"""event"",""trial"",""time""
""fullscreenenter"",""1"",""5172""
","
","
","""event"",""trial"",""time""
""fullscreenenter"",""1"",""5172""
","
",,null,run_exp/static/images/task_images/aliens/old_aliens/planet/alien_planet-37.jpg,null,,,,,,,,,,,,,37,"13,75,36,37,28,16,54,4,72,32,52,30,67,38,18,58,42,66,10,3,64,17,33,44,8,78,45,6,46,14,12,76,20,50,57,53",,,,,,,,,,
land,108,539801,0.0-38.0-2.0,"""event"",""trial"",""time""
""fullscreenenter"",""1"",""5172""
","
","
","""event"",""trial"",""time""
""fullscreenenter"",""1"",""5172""
","
",,null,run_exp/static/images/task_images/land.jpg,null,,,,,,,101,,,4,,,,,,,,,,,,,,
dig,109,541805,0.0-38.0-3.0,"""event"",""trial"",""time""
""fullscreenenter"",""1"",""5172""
","
","
","""event"",""trial"",""time""
""fullscreenenter"",""1"",""5172""
","
",,,,,,,,,,,,"[{""stimulus"":""run_exp/static/images/task_images/dig.jpg"",""time"":0.20000001788139343},{""stimulus"":""run_exp/static/images/task_images/land.jpg"",""time"":668.1000000238419},{""stimulus"":""run_exp/static/images/task_images/dig.jpg"",""time"":1335.9000000059605}]",[],4,,,,,,,,,,,,,,
harvest,110,542808,0.0-38.0-4.0,"""event"",""trial"",""time""
""fullscreenenter"",""1"",""5172""
","
","
","""event"",""trial"",""time""
""fullscreenenter"",""1"",""5172""
","
",,null,run_exp/static/images/task_images/gems/101.jpg,null,,,,,,,50,,,4,,,,,101,0.497060562,0.495049505,,,,,,,
decision,111,542919,0.0-38.0-5.0,"""event"",""trial"",""time""
""fullscreenenter"",""1"",""5172""
","
","
","""event"",""trial"",""time""
""fullscreenenter"",""1"",""5172""
","
",,109.9,run_exp/static/images/task_images/land.jpg,65,,,,,,,50,,,4,,,,,,,,88184,1,0,FALSE,,,
dig,112,545810,0.0-39.0-0.0,"""event"",""trial"",""time""
""fullscreenenter"",""1"",""5172""
","
","
","""event"",""trial"",""time""
""fullscreenenter"",""1"",""5172""
","
",,,,,,,,,,,,"[{""stimulus"":""run_exp/static/images/task_images/dig.jpg"",""time"":0.09999999403953552},{""stimulus"":""run_exp/static/images/task_images/land.jpg"",""time"":964.4000000059605},{""stimulus"":""run_exp/static/images/task_images/dig.jpg"",""time"":1927.0999999940395}]",[],4,,,,,,,,,,,,,,
harvest,113,546813,0.0-39.0-1.0,"""event"",""trial"",""time""
""fullscreenenter"",""1"",""5172""
","
","
","""event"",""trial"",""time""
""fullscreenenter"",""1"",""5172""
","
",,null,run_exp/static/images/task_images/gems/50.jpg,null,,,,,,,26,,,4,,,,,50,0.51283927,0.52,,,,,,,
decision,114,546926,0.0-39.0-2.0,"""event"",""trial"",""time""
""fullscreenenter"",""1"",""5172""
","
","
","""event"",""trial"",""time""
""fullscreenenter"",""1"",""5172""
","
",,112.2,run_exp/static/images/task_images/land.jpg,65,,,,,,,26,,,4,,,,,,,,92191,1,1,FALSE,,,
dig,115,549815,0.0-40.0-0.0,"""event"",""trial"",""time""
""fullscreenenter"",""1"",""5172""
","
","
","""event"",""trial"",""time""
""fullscreenenter"",""1"",""5172""
","
",,,,,,,,,,,,"[{""stimulus"":""run_exp/static/images/task_images/dig.jpg"",""time"":0.09999999403953552},{""stimulus"":""run_exp/static/images/task_images/land.jpg"",""time"":974.6999999880791},{""stimulus"":""run_exp/static/images/task_images/dig.jpg"",""time"":1925.0999999940395}]",[],4,,,,,,,,,,,,,,
harvest,116,550817,0.0-40.0-1.0,"""event"",""trial"",""time""
""fullscreenenter"",""1"",""5172""
","
","
","""event"",""trial"",""time""
""fullscreenenter"",""1"",""5172""
","
",,null,run_exp/static/images/task_images/gems/26.jpg,null,,,,,,,15,,,4,,,,,26,0.58792182,0.576923077,,,,,,,
decision,117,551175,0.0-40.0-2.0,"""event"",""trial"",""time""
""fullscreenenter"",""1"",""5172""
","
","
","""event"",""trial"",""time""
""fullscreenenter"",""1"",""5172""
","
",,357.8,run_exp/static/images/task_images/land.jpg,76,,,,,,,15,,,4,,,,,,,,96440,1,2,TRUE,,,
travel,118,560818,0.0-41.0-0.0,"""event"",""trial"",""time""
""fullscreenenter"",""1"",""5172""
","
","
","""event"",""trial"",""time""
""fullscreenenter"",""1"",""5172""
","
",,,,,,,,,,,,"[{""stimulus"":""run_exp/static/images/task_images/rocket-01.jpg"",""time"":0},{""stimulus"":""run_exp/static/images/task_images/rocket-02.jpg"",""time"":1072.0999999940395},{""stimulus"":""run_exp/static/images/task_images/rocket-03.jpg"",""time"":2143.5999999940395},{""stimulus"":""run_exp/static/images/task_images/rocket-04.jpg"",""time"":3214},{""stimulus"":""run_exp/static/images/task_images/rocket-05.jpg"",""time"":4284.800000011921},{""stimulus"":""run_exp/static/images/task_images/rocket-06.jpg"",""time"":5356.5},{""stimulus"":""run_exp/static/images/task_images/rocket-07.jpg"",""time"":6427.5},{""stimulus"":""run_exp/static/images/task_images/rocket-08.jpg"",""time"":7498.9000000059605},{""stimulus"":""run_exp/static/images/task_images/rocket-09.jpg"",""time"":8569.300000011921}]",[],4,,,,,,,,,,,,,,
alien_welcome,119,565820,0.0-41.0-1.0,"""event"",""trial"",""time""
""fullscreenenter"",""1"",""5172""
","
","
","""event"",""trial"",""time""
""fullscreenenter"",""1"",""5172""
","
",,null,run_exp/static/images/task_images/aliens/old_aliens/planet/alien_planet-28.jpg,null,,,,,,,,,,,,,28,"13,75,36,37,28,16,54,4,72,32,52,30,67,38,18,58,42,66,10,3,64,17,33,44,8,78,45,6,46,14,12,76,20,50,57,53",,,,,,,,,,
land,120,566322,0.0-41.0-2.0,"""event"",""trial"",""time""
""fullscreenenter"",""1"",""5172""
","
","
","""event"",""trial"",""time""
""fullscreenenter"",""1"",""5172""
","
",,null,run_exp/static/images/task_images/land.jpg,null,,,,,,,103,,,5,,,,,,,,,,,,,,
dig,121,568326,0.0-41.0-3.0,"""event"",""trial"",""time""
""fullscreenenter"",""1"",""5172""
","
","
","""event"",""trial"",""time""
""fullscreenenter"",""1"",""5172""
","
",,,,,,,,,,,,"[{""stimulus"":""run_exp/static/images/task_images/dig.jpg"",""time"":0.19999998807907104},{""stimulus"":""run_exp/static/images/task_images/land.jpg"",""time"":668.2999999821186},{""stimulus"":""run_exp/static/images/task_images/dig.jpg"",""time"":1335.5999999940395}]",[],5,,,,,,,,,,,,,,
harvest,122,569328,0.0-41.0-4.0,"""event"",""trial"",""time""
""fullscreenenter"",""1"",""5172""
","
","
","""event"",""trial"",""time""
""fullscreenenter"",""1"",""5172""
","
",,null,run_exp/static/images/task_images/gems/103.jpg,null,,,,,,,52,,,5,,,,,103,0.509343548,0.504854369,,,,,,,
decision,123,569343,0.0-41.0-5.0,"""event"",""trial"",""time""
""fullscreenenter"",""1"",""5172""
","
","
","""event"",""trial"",""time""
""fullscreenenter"",""1"",""5172""
","
",,14.40000001,run_exp/static/images/task_images/land.jpg,65,,,,,,,52,,,5,,,,,,,,114608,1,0,FALSE,,,
dig,124,572331,0.0-42.0-0.0,"""event"",""trial"",""time""
""fullscreenenter"",""1"",""5172""
","
","
","""event"",""trial"",""time""
""fullscreenenter"",""1"",""5172""
","
",,,,,,,,,,,,"[{""stimulus"":""run_exp/static/images/task_images/dig.jpg"",""time"":0.09999999403953552},{""stimulus"":""run_exp/static/images/task_images/land.jpg"",""time"":996.8000000119209},{""stimulus"":""run_exp/static/images/task_images/dig.jpg"",""time"":1992.0999999940395}]",[],5,,,,,,,,,,,,,,
harvest,125,573333,0.0-42.0-1.0,"""event"",""trial"",""time""
""fullscreenenter"",""1"",""5172""
","
","
","""event"",""trial"",""time""
""fullscreenenter"",""1"",""5172""
","
",,null,run_exp/static/images/task_images/gems/52.jpg,null,,,,,,,27,,,5,,,,,52,0.525342247,0.519230769,,,,,,,
decision,126,573742,0.0-42.0-2.0,"""event"",""trial"",""time""
""fullscreenenter"",""1"",""5172""
","
","
","""event"",""trial"",""time""
""fullscreenenter"",""1"",""5172""
","
",,408,run_exp/static/images/task_images/land.jpg,65,,,,,,,27,,,5,,,,,,,,119007,1,1,FALSE,,,
dig,127,576337,0.0-43.0-0.0,"""event"",""trial"",""time""
""fullscreenenter"",""1"",""5172""
","
","
","""event"",""trial"",""time""
""fullscreenenter"",""1"",""5172""
","
",,,,,,,,,,,,"[{""stimulus"":""run_exp/static/images/task_images/dig.jpg"",""time"":0.10000002384185791},{""stimulus"":""run_exp/static/images/task_images/land.jpg"",""time"":875.3000000119209},{""stimulus"":""run_exp/static/images/task_images/dig.jpg"",""time"":1729}]",[],5,,,,,,,,,,,,,,
harvest,128,577338,0.0-43.0-1.0,"""event"",""trial"",""time""
""fullscreenenter"",""1"",""5172""
","
","
","""event"",""trial"",""time""
""fullscreenenter"",""1"",""5172""
","
",,null,run_exp/static/images/task_images/gems/27.jpg,null,,,,,,,13,,,5,,,,,27,0.467809065,0.481481481,,,,,,,
decision,129,577403,0.0-43.0-2.0,"""event"",""trial"",""time""
""fullscreenenter"",""1"",""5172""
","
","
","""event"",""trial"",""time""
""fullscreenenter"",""1"",""5172""
","
",,64.40000001,run_exp/static/images/task_images/land.jpg,76,,,,,,,13,,,5,,,,,,,,122668,1,2,TRUE,,,
travel,130,587333,0.0-44.0-0.0,"""event"",""trial"",""time""
""fullscreenenter"",""1"",""5172""
","
","
","""event"",""trial"",""time""
""fullscreenenter"",""1"",""5172""
","
",,,,,,,,,,,,"[{""stimulus"":""run_exp/static/images/task_images/rocket-01.jpg"",""time"":0},{""stimulus"":""run_exp/static/images/task_images/rocket-02.jpg"",""time"":1104.800000011921},{""stimulus"":""run_exp/static/images/task_images/rocket-03.jpg"",""time"":2207},{""stimulus"":""run_exp/static/images/task_images/rocket-04.jpg"",""time"":3309.800000011921},{""stimulus"":""run_exp/static/images/task_images/rocket-05.jpg"",""time"":4414},{""stimulus"":""run_exp/static/images/task_images/rocket-06.jpg"",""time"":5516.300000011921},{""stimulus"":""run_exp/static/images/task_images/rocket-07.jpg"",""time"":6619.4000000059605},{""stimulus"":""run_exp/static/images/task_images/rocket-08.jpg"",""time"":7722.300000011921},{""stimulus"":""run_exp/static/images/task_images/rocket-09.jpg"",""time"":8825.200000017881}]",[],5,,,,,,,,,,,,,,
alien_welcome,131,592335,0.0-44.0-1.0,"""event"",""trial"",""time""
""fullscreenenter"",""1"",""5172""
","
","
","""event"",""trial"",""time""
""fullscreenenter"",""1"",""5172""
","
",,null,run_exp/static/images/task_images/aliens/old_aliens/planet/alien_planet-16.jpg,null,,,,,,,,,,,,,16,"13,75,36,37,28,16,54,4,72,32,52,30,67,38,18,58,42,66,10,3,64,17,33,44,8,78,45,6,46,14,12,76,20,50,57,53",,,,,,,,,,
land,132,592838,0.0-44.0-2.0,"""event"",""trial"",""time""
""fullscreenenter"",""1"",""5172""
","
","
","""event"",""trial"",""time""
""fullscreenenter"",""1"",""5172""
","
",,null,run_exp/static/images/task_images/land.jpg,null,,,,,,,91,,,6,,,,,,,,,,,,,,
dig,133,594840,0.0-44.0-3.0,"""event"",""trial"",""time""
""fullscreenenter"",""1"",""5172""
","
","
","""event"",""trial"",""time""
""fullscreenenter"",""1"",""5172""
","
",,,,,,,,,,,,"[{""stimulus"":""run_exp/static/images/task_images/dig.jpg"",""time"":0.19999998807907104},{""stimulus"":""run_exp/static/images/task_images/land.jpg"",""time"":668.6999999880791},{""stimulus"":""run_exp/static/images/task_images/dig.jpg"",""time"":1335.9000000059605}]",[],6,,,,,,,,,,,,,,
harvest,134,595842,0.0-44.0-4.0,"""event"",""trial"",""time""
""fullscreenenter"",""1"",""5172""
","
","
","""event"",""trial"",""time""
""fullscreenenter"",""1"",""5172""
","
",,null,run_exp/static/images/task_images/gems/91.jpg,null,,,,,,,78,,,6,,,,,91,0.860501242,0.857142857,,,,,,,
decision,135,596374,0.0-44.0-5.0,"""event"",""trial"",""time""
""fullscreenenter"",""1"",""5172""
","
","
","""event"",""trial"",""time""
""fullscreenenter"",""1"",""5172""
","
",,530.8,run_exp/static/images/task_images/land.jpg,65,,,,,,,78,,,6,,,,,,,,141639,1,0,FALSE,,,
dig,136,598857,0.0-45.0-0.0,"""event"",""trial"",""time""
""fullscreenenter"",""1"",""5172""
","
","
","""event"",""trial"",""time""
""fullscreenenter"",""1"",""5172""
","
",,,,,,,,,,,,"[{""stimulus"":""run_exp/static/images/task_images/dig.jpg"",""time"":0.09999999403953552},{""stimulus"":""run_exp/static/images/task_images/land.jpg"",""time"":824.5},{""stimulus"":""run_exp/static/images/task_images/dig.jpg"",""time"":1646.7000000178814}]",[],6,,,,,,,,,,,,,,
harvest,137,599859,0.0-45.0-1.0,"""event"",""trial"",""time""
""fullscreenenter"",""1"",""5172""
","
","
","""event"",""trial"",""time""
""fullscreenenter"",""1"",""5172""
","
",,null,run_exp/static/images/task_images/gems/78.jpg,null,,,,,,,67,,,6,,,,,78,0.853409376,0.858974359,,,,,,,
decision,138,600005,0.0-45.0-2.0,"""event"",""trial"",""time""
""fullscreenenter"",""1"",""5172""
","
","
","""event"",""trial"",""time""
""fullscreenenter"",""1"",""5172""
","
",,144.8,run_exp/static/images/task_images/land.jpg,65,,,,,,,67,,,6,,,,,,,,145270,1,1,FALSE,,,
dig,139,602861,0.0-46.0-0.0,"""event"",""trial"",""time""
""fullscreenenter"",""1"",""5172""
","
","
","""event"",""trial"",""time""
""fullscreenenter"",""1"",""5172""
","
",,,,,,,,,,,,"[{""stimulus"":""run_exp/static/images/task_images/dig.jpg"",""time"":0.10000002384185791},{""stimulus"":""run_exp/static/images/task_images/land.jpg"",""time"":952.8000000119209},{""stimulus"":""run_exp/static/images/task_images/dig.jpg"",""time"":1904}]",[],6,,,,,,,,,,,,,,
harvest,140,603862,0.0-46.0-1.0,"""event"",""trial"",""time""
""fullscreenenter"",""1"",""5172""
","
","
","""event"",""trial"",""time""
""fullscreenenter"",""1"",""5172""
","
",,null,run_exp/static/images/task_images/gems/67.jpg,null,,,,,,,49,,,6,,,,,67,0.725800895,0.731343284,,,,,,,
decision,141,603927,0.0-46.0-2.0,"""event"",""trial"",""time""
""fullscreenenter"",""1"",""5172""
","
","
","""event"",""trial"",""time""
""fullscreenenter"",""1"",""5172""
","
",,63.5,run_exp/static/images/task_images/land.jpg,65,,,,,,,49,,,6,,,,,,,,149192,1,2,FALSE,,,
dig,142,606864,0.0-47.0-0.0,"""event"",""trial"",""time""
""fullscreenenter"",""1"",""5172""
","
","
","""event"",""trial"",""time""
""fullscreenenter"",""1"",""5172""
","
",,,,,,,,,,,,"[{""stimulus"":""run_exp/static/images/task_images/dig.jpg"",""time"":0.09999999403953552},{""stimulus"":""run_exp/static/images/task_images/land.jpg"",""time"":979.7000000178814},{""stimulus"":""run_exp/static/images/task_images/dig.jpg"",""time"":1957.7000000178814}]",[],6,,,,,,,,,,,,,,
harvest,143,607865,0.0-47.0-1.0,"""event"",""trial"",""time""
""fullscreenenter"",""1"",""5172""
","
","
","""event"",""trial"",""time""
""fullscreenenter"",""1"",""5172""
","
",,null,run_exp/static/images/task_images/gems/49.jpg,null,,,,,,,41,,,6,,,,,49,0.831104149,0.836734694,,,,,,,
decision,144,609968,0.0-47.0-2.0,"""event"",""trial"",""time""
""fullscreenenter"",""1"",""5172""
","
","
","""event"",""trial"",""time""
""fullscreenenter"",""1"",""5172""
","
",,2102.1,run_exp/static/images/task_images/land.jpg,65,,,,,,,41,,,6,,,,,,,,155233,1,3,FALSE,,,
dig,145,610868,0.0-48.0-0.0,"""event"",""trial"",""time""
""fullscreenenter"",""1"",""5172""
","
","
","""event"",""trial"",""time""
""fullscreenenter"",""1"",""5172""
","
",,,,,,,,,,,,"[{""stimulus"":""run_exp/static/images/task_images/dig.jpg"",""time"":0.10000002384185791},{""stimulus"":""run_exp/static/images/task_images/land.jpg"",""time"":301},{""stimulus"":""run_exp/static/images/task_images/dig.jpg"",""time"":600.8000000119209}]",[],6,,,,,,,,,,,,,,
harvest,146,611871,0.0-48.0-1.0,"""event"",""trial"",""time""
""fullscreenenter"",""1"",""5172""
","
","
","""event"",""trial"",""time""
""fullscreenenter"",""1"",""5172""
","
",,null,run_exp/static/images/task_images/gems/41.jpg,null,,,,,,,33,,,6,,,,,41,0.80688485,0.804878049,,,,,,,
decision,147,612321,0.0-48.0-2.0,"""event"",""trial"",""time""
""fullscreenenter"",""1"",""5172""
","
","
","""event"",""trial"",""time""
""fullscreenenter"",""1"",""5172""
","
",,449.5,run_exp/static/images/task_images/land.jpg,65,,,,,,,33,,,6,,,,,,,,157587,1,4,FALSE,,,
dig,148,614875,0.0-49.0-0.0,"""event"",""trial"",""time""
""fullscreenenter"",""1"",""5172""
","
","
","""event"",""trial"",""time""
""fullscreenenter"",""1"",""5172""
","
",,,,,,,,,,,,"[{""stimulus"":""run_exp/static/images/task_images/dig.jpg"",""time"":0.20000001788139343},{""stimulus"":""run_exp/static/images/task_images/land.jpg"",""time"":850.6000000238419},{""stimulus"":""run_exp/static/images/task_images/dig.jpg"",""time"":1701.6000000238419}]",[],6,,,,,,,,,,,,,,
harvest,149,615876,0.0-49.0-1.0,"""event"",""trial"",""time""
""fullscreenenter"",""1"",""5172""
","
","
","""event"",""trial"",""time""
""fullscreenenter"",""1"",""5172""
","
",,null,run_exp/static/images/task_images/gems/33.jpg,null,,,,,,,25,,,6,,,,,33,0.771262423,0.757575758,,,,,,,
decision,150,615911,0.0-49.0-2.0,"""event"",""trial"",""time""
""fullscreenenter"",""1"",""5172""
","
","
","""event"",""trial"",""time""
""fullscreenenter"",""1"",""5172""
","
",,33.40000001,run_exp/static/images/task_images/land.jpg,65,,,,,,,25,,,6,,,,,,,,161176,1,5,FALSE,,,
dig,151,618878,0.0-50.0-0.0,"""event"",""trial"",""time""
""fullscreenenter"",""1"",""5172""
","
","
","""event"",""trial"",""time""
""fullscreenenter"",""1"",""5172""
","
",,,,,,,,,,,,"[{""stimulus"":""run_exp/static/images/task_images/dig.jpg"",""time"":0.10000002384185791},{""stimulus"":""run_exp/static/images/task_images/land.jpg"",""time"":990.5},{""stimulus"":""run_exp/static/images/task_images/dig.jpg"",""time"":1977.800000011921}]",[],6,,,,,,,,,,,,,,
harvest,152,619880,0.0-50.0-1.0,"""event"",""trial"",""time""
""fullscreenenter"",""1"",""5172""
","
","
","""event"",""trial"",""time""
""fullscreenenter"",""1"",""5172""
","
",,null,run_exp/static/images/task_images/gems/25.jpg,null,,,,,,,19,,,6,,,,,25,0.775198924,0.76,,,,,,,
decision,153,620002,0.0-50.0-2.0,"""event"",""trial"",""time""
""fullscreenenter"",""1"",""5172""
","
","
","""event"",""trial"",""time""
""fullscreenenter"",""1"",""5172""
","
",,121.2,run_exp/static/images/task_images/land.jpg,65,,,,,,,19,,,6,,,,,,,,165267,1,6,FALSE,,,
dig,154,622883,0.0-51.0-0.0,"""event"",""trial"",""time""
""fullscreenenter"",""1"",""5172""
","
","
","""event"",""trial"",""time""
""fullscreenenter"",""1"",""5172""
","
",,,,,,,,,,,,"[{""stimulus"":""run_exp/static/images/task_images/dig.jpg"",""time"":0.10000002384185791},{""stimulus"":""run_exp/static/images/task_images/land.jpg"",""time"":961.6000000238419},{""stimulus"":""run_exp/static/images/task_images/dig.jpg"",""time"":1919.300000011921}]",[],6,,,,,,,,,,,,,,
harvest,155,623884,0.0-51.0-1.0,"""event"",""trial"",""time""
""fullscreenenter"",""1"",""5172""
","
","
","""event"",""trial"",""time""
""fullscreenenter"",""1"",""5172""
","
",,null,run_exp/static/images/task_images/gems/19.jpg,null,,,,,,,17,,,6,,,,,19,0.899977505,0.894736842,,,,,,,
decision,156,626886,0.0-51.0-2.0,"""event"",""trial"",""time""
""fullscreenenter"",""1"",""5172""
","
","
","""event"",""trial"",""time""
""fullscreenenter"",""1"",""5172""
","
",,null,run_exp/static/images/task_images/land.jpg,null,,,,,,,17,,,6,,,,,,,,172151,1,7,FALSE,,,
time_out,157,628889,0.0-52.0-0.0,"""event"",""trial"",""time""
""fullscreenenter"",""1"",""5172""
","
","
","""event"",""trial"",""time""
""fullscreenenter"",""1"",""5172""
","
",,null,run_exp/static/images/task_images/time_out.jpg,null,,,,,,,17,,,,,,,,,,,,,,,,,
decision,158,628941,0.0-52.0-1.0,"""event"",""trial"",""time""
""fullscreenenter"",""1"",""5172""
","
","
","""event"",""trial"",""time""
""fullscreenenter"",""1"",""5172""
","
",,50.59999999,run_exp/static/images/task_images/land.jpg,65,,,,,,,17,,,6,,,,,,,,174206,1,7,FALSE,,,
dig,159,631892,0.0-53.0-0.0,"""event"",""trial"",""time""
""fullscreenenter"",""1"",""5172""
","
","
","""event"",""trial"",""time""
""fullscreenenter"",""1"",""5172""
","
",,,,,,,,,,,,"[{""stimulus"":""run_exp/static/images/task_images/dig.jpg"",""time"":0.09999999403953552},{""stimulus"":""run_exp/static/images/task_images/land.jpg"",""time"":984.7999999821186},{""stimulus"":""run_exp/static/images/task_images/dig.jpg"",""time"":1967.8999999761581}]",[],6,,,,,,,,,,,,,,
harvest,160,632894,0.0-53.0-1.0,"""event"",""trial"",""time""
""fullscreenenter"",""1"",""5172""
","
","
","""event"",""trial"",""time""
""fullscreenenter"",""1"",""5172""
","
",,null,run_exp/static/images/task_images/gems/17.jpg,null,,,,,,,14,,,6,,,,,17,0.832039402,0.823529412,,,,,,,
decision,161,633423,0.0-53.0-2.0,"""event"",""trial"",""time""
""fullscreenenter"",""1"",""5172""
","
","
","""event"",""trial"",""time""
""fullscreenenter"",""1"",""5172""
","
",,527.6,run_exp/static/images/task_images/land.jpg,65,,,,,,,14,,,6,,,,,,,,178688,1,8,FALSE,,,
dig,162,635898,0.0-54.0-0.0,"""event"",""trial"",""time""
""fullscreenenter"",""1"",""5172""
","
","
","""event"",""trial"",""time""
""fullscreenenter"",""1"",""5172""
","
",,,,,,,,,,,,"[{""stimulus"":""run_exp/static/images/task_images/dig.jpg"",""time"":0.09999999403953552},{""stimulus"":""run_exp/static/images/task_images/land.jpg"",""time"":825.9000000059605},{""stimulus"":""run_exp/static/images/task_images/dig.jpg"",""time"":1648.9000000059605}]",[],6,,,,,,,,,,,,,,
harvest,163,636899,0.0-54.0-1.0,"""event"",""trial"",""time""
""fullscreenenter"",""1"",""5172""
","
","
","""event"",""trial"",""time""
""fullscreenenter"",""1"",""5172""
","
",,null,run_exp/static/images/task_images/gems/14.jpg,null,,,,,,,11,,,6,,,,,14,0.772759313,0.785714286,,,,,,,
decision,164,636908,0.0-54.0-2.0,"""event"",""trial"",""time""
""fullscreenenter"",""1"",""5172""
","
","
","""event"",""trial"",""time""
""fullscreenenter"",""1"",""5172""
","
",,8.800000012,run_exp/static/images/task_images/land.jpg,76,,,,,,,11,,,6,,,,,,,,182173,1,9,TRUE,,,
travel,165,646901,0.0-55.0-0.0,"""event"",""trial"",""time""
""fullscreenenter"",""1"",""5172""
","
","
","""event"",""trial"",""time""
""fullscreenenter"",""1"",""5172""
","
",,,,,,,,,,,,"[{""stimulus"":""run_exp/static/images/task_images/rocket-01.jpg"",""time"":0},{""stimulus"":""run_exp/static/images/task_images/rocket-02.jpg"",""time"":1111.9000000059605},{""stimulus"":""run_exp/static/images/task_images/rocket-03.jpg"",""time"":2221.300000011921},{""stimulus"":""run_exp/static/images/task_images/rocket-04.jpg"",""time"":3331.4000000059605},{""stimulus"":""run_exp/static/images/task_images/rocket-05.jpg"",""time"":4441.9000000059605},{""stimulus"":""run_exp/static/images/task_images/rocket-06.jpg"",""time"":5553.300000011921},{""stimulus"":""run_exp/static/images/task_images/rocket-07.jpg"",""time"":6661.300000011921},{""stimulus"":""run_exp/static/images/task_images/rocket-08.jpg"",""time"":7770.800000011921},{""stimulus"":""run_exp/static/images/task_images/rocket-09.jpg"",""time"":8880.59999999404}]",[],6,,,,,,,,,,,,,,
alien_welcome,166,651903,0.0-55.0-1.0,"""event"",""trial"",""time""
""fullscreenenter"",""1"",""5172""
","
","
","""event"",""trial"",""time""
""fullscreenenter"",""1"",""5172""
","
",,null,run_exp/static/images/task_images/aliens/old_aliens/planet/alien_planet-54.jpg,null,,,,,,,,,,,,,54,"13,75,36,37,28,16,54,4,72,32,52,30,67,38,18,58,42,66,10,3,64,17,33,44,8,78,45,6,46,14,12,76,20,50,57,53",,,,,,,,,,
land,167,652405,0.0-55.0-2.0,"""event"",""trial"",""time""
""fullscreenenter"",""1"",""5172""
","
","
","""event"",""trial"",""time""
""fullscreenenter"",""1"",""5172""
","
",,null,run_exp/static/images/task_images/land.jpg,null,,,,,,,103,,,7,,,,,,,,,,,,,,
dig,168,654409,0.0-55.0-3.0,"""event"",""trial"",""time""
""fullscreenenter"",""1"",""5172""
","
","
","""event"",""trial"",""time""
""fullscreenenter"",""1"",""5172""
","
",,,,,,,,,,,,"[{""stimulus"":""run_exp/static/images/task_images/dig.jpg"",""time"":0.19999998807907104},{""stimulus"":""run_exp/static/images/task_images/land.jpg"",""time"":668.0999999940395},{""stimulus"":""run_exp/static/images/task_images/dig.jpg"",""time"":1336.699999988079}]",[],7,,,,,,,,,,,,,,
harvest,169,655412,0.0-55.0-4.0,"""event"",""trial"",""time""
""fullscreenenter"",""1"",""5172""
","
","
","""event"",""trial"",""time""
""fullscreenenter"",""1"",""5172""
","
",,null,run_exp/static/images/task_images/gems/103.jpg,null,,,,,,,86,,,7,,,,,103,0.834879641,0.834951456,,,,,,,
decision,170,655781,0.0-55.0-5.0,"""event"",""trial"",""time""
""fullscreenenter"",""1"",""5172""
","
","
","""event"",""trial"",""time""
""fullscreenenter"",""1"",""5172""
","
",,368,run_exp/static/images/task_images/land.jpg,65,,,,,,,86,,,7,,,,,,,,201046,1,0,FALSE,,,
dig,171,658414,0.0-56.0-0.0,"""event"",""trial"",""time""
""fullscreenenter"",""1"",""5172""
","
","
","""event"",""trial"",""time""
""fullscreenenter"",""1"",""5172""
","
",,,,,,,,,,,,"[{""stimulus"":""run_exp/static/images/task_images/dig.jpg"",""time"":0.09999999403953552},{""stimulus"":""run_exp/static/images/task_images/land.jpg"",""time"":878.5999999940395},{""stimulus"":""run_exp/static/images/task_images/dig.jpg"",""time"":1755.300000011921}]",[],7,,,,,,,,,,,,,,
harvest,172,659415,0.0-56.0-1.0,"""event"",""trial"",""time""
""fullscreenenter"",""1"",""5172""
","
","
","""event"",""trial"",""time""
""fullscreenenter"",""1"",""5172""
","
",,null,run_exp/static/images/task_images/gems/86.jpg,null,,,,,,,66,,,7,,,,,86,0.772168755,0.76744186,,,,,,,
decision,173,659565,0.0-56.0-2.0,"""event"",""trial"",""time""
""fullscreenenter"",""1"",""5172""
","
","
","""event"",""trial"",""time""
""fullscreenenter"",""1"",""5172""
","
",,149.1,run_exp/static/images/task_images/land.jpg,65,,,,,,,66,,,7,,,,,,,,204831,1,1,FALSE,,,
dig,174,662419,0.0-57.0-0.0,"""event"",""trial"",""time""
""fullscreenenter"",""1"",""5172""
","
","
","""event"",""trial"",""time""
""fullscreenenter"",""1"",""5172""
","
",,,,,,,,,,,,"[{""stimulus"":""run_exp/static/images/task_images/dig.jpg"",""time"":0},{""stimulus"":""run_exp/static/images/task_images/land.jpg"",""time"":951.1999999880791},{""stimulus"":""run_exp/static/images/task_images/dig.jpg"",""time"":1901.199999988079}]",[],7,,,,,,,,,,,,,,
harvest,175,663421,0.0-57.0-1.0,"""event"",""trial"",""time""
""fullscreenenter"",""1"",""5172""
","
","
","""event"",""trial"",""time""
""fullscreenenter"",""1"",""5172""
","
",,null,run_exp/static/images/task_images/gems/66.jpg,null,,,,,,,48,,,7,,,,,66,0.720679191,0.727272727,,,,,,,
decision,176,663464,0.0-57.0-2.0,"""event"",""trial"",""time""
""fullscreenenter"",""1"",""5172""
","
","
","""event"",""trial"",""time""
""fullscreenenter"",""1"",""5172""
","
",,42.20000002,run_exp/static/images/task_images/land.jpg,65,,,,,,,48,,,7,,,,,,,,208729,1,2,FALSE,,,
dig,177,666423,0.0-58.0-0.0,"""event"",""trial"",""time""
""fullscreenenter"",""1"",""5172""
","
","
","""event"",""trial"",""time""
""fullscreenenter"",""1"",""5172""
","
",,,,,,,,,,,,"[{""stimulus"":""run_exp/static/images/task_images/dig.jpg"",""time"":0.19999998807907104},{""stimulus"":""run_exp/static/images/task_images/land.jpg"",""time"":985.7999999821186},{""stimulus"":""run_exp/static/images/task_images/dig.jpg"",""time"":1972.0999999940395}]",[],7,,,,,,,,,,,,,,
harvest,178,667427,0.0-58.0-1.0,"""event"",""trial"",""time""
""fullscreenenter"",""1"",""5172""
","
","
","""event"",""trial"",""time""
""fullscreenenter"",""1"",""5172""
","
",,null,run_exp/static/images/task_images/gems/48.jpg,null,,,,,,,40,,,7,,,,,48,0.835204459,0.833333333,,,,,,,
decision,179,667688,0.0-58.0-2.0,"""event"",""trial"",""time""
""fullscreenenter"",""1"",""5172""
","
","
","""event"",""trial"",""time""
""fullscreenenter"",""1"",""5172""
","
",,260.5,run_exp/static/images/task_images/land.jpg,65,,,,,,,40,,,7,,,,,,,,212953,1,3,FALSE,,,
dig,180,670431,0.0-59.0-0.0,"""event"",""trial"",""time""
""fullscreenenter"",""1"",""5172""
","
","
","""event"",""trial"",""time""
""fullscreenenter"",""1"",""5172""
","
",,,,,,,,,,,,"[{""stimulus"":""run_exp/static/images/task_images/dig.jpg"",""time"":0.09999999403953552},{""stimulus"":""run_exp/static/images/task_images/land.jpg"",""time"":914.5},{""stimulus"":""run_exp/static/images/task_images/dig.jpg"",""time"":1827.5999999940395}]",[],7,,,,,,,,,,,,,,
harvest,181,671432,0.0-59.0-1.0,"""event"",""trial"",""time""
""fullscreenenter"",""1"",""5172""
","
","
","""event"",""trial"",""time""
""fullscreenenter"",""1"",""5172""
","
",,null,run_exp/static/images/task_images/gems/40.jpg,null,,,,,,,33,,,7,,,,,40,0.825236321,0.825,,,,,,,
decision,182,673733,0.0-59.0-2.0,"""event"",""trial"",""time""
""fullscreenenter"",""1"",""5172""
","
","
","""event"",""trial"",""time""
""fullscreenenter"",""1"",""5172""
","
",,2299.6,run_exp/static/images/task_images/land.jpg,65,,,,,,,33,,,7,,,,,,,,218998,1,4,FALSE,,,
dig,183,674434,0.0-60.0-0.0,"""event"",""trial"",""time""
""fullscreenenter"",""1"",""5172""
","
","
","""event"",""trial"",""time""
""fullscreenenter"",""1"",""5172""
","
",,,,,,,,,,,,"[{""stimulus"":""run_exp/static/images/task_images/dig.jpg"",""time"":0.09999999403953552},{""stimulus"":""run_exp/static/images/task_images/land.jpg"",""time"":234.2000000178814},{""stimulus"":""run_exp/static/images/task_images/dig.jpg"",""time"":468.2000000178814}]",[],7,,,,,,,,,,,,,,
harvest,184,675437,0.0-60.0-1.0,"""event"",""trial"",""time""
""fullscreenenter"",""1"",""5172""
","
","
","""event"",""trial"",""time""
""fullscreenenter"",""1"",""5172""
","
",,null,run_exp/static/images/task_images/gems/33.jpg,null,,,,,,,27,,,7,,,,,33,0.831802642,0.818181818,,,,,,,
decision,185,675818,0.0-60.0-2.0,"""event"",""trial"",""time""
""fullscreenenter"",""1"",""5172""
","
","
","""event"",""trial"",""time""
""fullscreenenter"",""1"",""5172""
","
",,380,run_exp/static/images/task_images/land.jpg,65,,,,,,,27,,,7,,,,,,,,221083,1,5,FALSE,,,
dig,186,678440,0.0-61.0-0.0,"""event"",""trial"",""time""
""fullscreenenter"",""1"",""5172""
","
","
","""event"",""trial"",""time""
""fullscreenenter"",""1"",""5172""
","
",,,,,,,,,,,,"[{""stimulus"":""run_exp/static/images/task_images/dig.jpg"",""time"":0.20000001788139343},{""stimulus"":""run_exp/static/images/task_images/land.jpg"",""time"":875.4000000059605},{""stimulus"":""run_exp/static/images/task_images/dig.jpg"",""time"":1748}]",[],7,,,,,,,,,,,,,,
harvest,187,679443,0.0-61.0-1.0,"""event"",""trial"",""time""
""fullscreenenter"",""1"",""5172""
","
","
","""event"",""trial"",""time""
""fullscreenenter"",""1"",""5172""
","
",,null,run_exp/static/images/task_images/gems/27.jpg,null,,,,,,,21,,,7,,,,,27,0.775633085,0.777777778,,,,,,,
decision,188,679480,0.0-61.0-2.0,"""event"",""trial"",""time""
""fullscreenenter"",""1"",""5172""
","
","
","""event"",""trial"",""time""
""fullscreenenter"",""1"",""5172""
","
",,35.69999999,run_exp/static/images/task_images/land.jpg,65,,,,,,,21,,,7,,,,,,,,224745,1,6,FALSE,,,
dig,189,682447,0.0-62.0-0.0,"""event"",""trial"",""time""
""fullscreenenter"",""1"",""5172""
","
","
","""event"",""trial"",""time""
""fullscreenenter"",""1"",""5172""
","
",,,,,,,,,,,,"[{""stimulus"":""run_exp/static/images/task_images/dig.jpg"",""time"":0.09999999403953552},{""stimulus"":""run_exp/static/images/task_images/land.jpg"",""time"":989.2000000178814},{""stimulus"":""run_exp/static/images/task_images/dig.jpg"",""time"":1978}]",[],7,,,,,,,,,,,,,,
harvest,190,683449,0.0-62.0-1.0,"""event"",""trial"",""time""
""fullscreenenter"",""1"",""5172""
","
","
","""event"",""trial"",""time""
""fullscreenenter"",""1"",""5172""
","
",,null,run_exp/static/images/task_images/gems/21.jpg,null,,,,,,,15,,,7,,,,,21,0.724592582,0.714285714,,,,,,,
decision,191,683468,0.0-62.0-2.0,"""event"",""trial"",""time""
""fullscreenenter"",""1"",""5172""
","
","
","""event"",""trial"",""time""
""fullscreenenter"",""1"",""5172""
","
",,17.79999998,run_exp/static/images/task_images/land.jpg,65,,,,,,,15,,,7,,,,,,,,228733,1,7,FALSE,,,
dig,192,686453,0.0-63.0-0.0,"""event"",""trial"",""time""
""fullscreenenter"",""1"",""5172""
","
","
","""event"",""trial"",""time""
""fullscreenenter"",""1"",""5172""
","
",,,,,,,,,,,,"[{""stimulus"":""run_exp/static/images/task_images/dig.jpg"",""time"":0},{""stimulus"":""run_exp/static/images/task_images/land.jpg"",""time"":995},{""stimulus"":""run_exp/static/images/task_images/dig.jpg"",""time"":1989.699999988079}]",[],7,,,,,,,,,,,,,,
harvest,193,687455,0.0-63.0-1.0,"""event"",""trial"",""time""
""fullscreenenter"",""1"",""5172""
","
","
","""event"",""trial"",""time""
""fullscreenenter"",""1"",""5172""
","
",,null,run_exp/static/images/task_images/gems/15.jpg,null,,,,,,,13,,,7,,,,,15,0.856692951,0.866666667,,,,,,,
decision,194,687898,0.0-63.0-2.0,"""event"",""trial"",""time""
""fullscreenenter"",""1"",""5172""
","
","
","""event"",""trial"",""time""
""fullscreenenter"",""1"",""5172""
","
",,442.1,run_exp/static/images/task_images/land.jpg,76,,,,,,,13,,,7,,,,,,,,233163,1,8,TRUE,,,
travel,195,697449,0.0-64.0-0.0,"""event"",""trial"",""time""
""fullscreenenter"",""1"",""5172""
","
","
","""event"",""trial"",""time""
""fullscreenenter"",""1"",""5172""
","
",,,,,,,,,,,,"[{""stimulus"":""run_exp/static/images/task_images/rocket-01.jpg"",""time"":0.09999999403953552},{""stimulus"":""run_exp/static/images/task_images/rocket-02.jpg"",""time"":1062.9000000059605},{""stimulus"":""run_exp/static/images/task_images/rocket-03.jpg"",""time"":2123.4000000059605},{""stimulus"":""run_exp/static/images/task_images/rocket-04.jpg"",""time"":3185.199999988079},{""stimulus"":""run_exp/static/images/task_images/rocket-05.jpg"",""time"":4250.299999982119},{""stimulus"":""run_exp/static/images/task_images/rocket-06.jpg"",""time"":5305.799999982119},{""stimulus"":""run_exp/static/images/task_images/rocket-07.jpg"",""time"":6367.799999982119},{""stimulus"":""run_exp/static/images/task_images/rocket-08.jpg"",""time"":7428},{""stimulus"":""run_exp/static/images/task_images/rocket-09.jpg"",""time"":8489}]",[],7,,,,,,,,,,,,,,
alien_welcome,196,702452,0.0-64.0-1.0,"""event"",""trial"",""time""
""fullscreenenter"",""1"",""5172""
","
","
","""event"",""trial"",""time""
""fullscreenenter"",""1"",""5172""
","
",,null,run_exp/static/images/task_images/aliens/old_aliens/planet/alien_planet-4.jpg,null,,,,,,,,,,,,,4,"13,75,36,37,28,16,54,4,72,32,52,30,67,38,18,58,42,66,10,3,64,17,33,44,8,78,45,6,46,14,12,76,20,50,57,53",,,,,,,,,,
land,197,702954,0.0-64.0-2.0,"""event"",""trial"",""time""
""fullscreenenter"",""1"",""5172""
","
","
","""event"",""trial"",""time""
""fullscreenenter"",""1"",""5172""
","
",,null,run_exp/static/images/task_images/land.jpg,null,,,,,,,100,,,8,,,,,,,,,,,,,,
dig,198,704957,0.0-64.0-3.0,"""event"",""trial"",""time""
""fullscreenenter"",""1"",""5172""
","
","
","""event"",""trial"",""time""
""fullscreenenter"",""1"",""5172""
","
",,,,,,,,,,,,"[{""stimulus"":""run_exp/static/images/task_images/dig.jpg"",""time"":0.20000001788139343},{""stimulus"":""run_exp/static/images/task_images/land.jpg"",""time"":668.5},{""stimulus"":""run_exp/static/images/task_images/dig.jpg"",""time"":1335.4000000059605}]",[],8,,,,,,,,,,,,,,
harvest,199,705960,0.0-64.0-4.0,"""event"",""trial"",""time""
""fullscreenenter"",""1"",""5172""
","
","
","""event"",""trial"",""time""
""fullscreenenter"",""1"",""5172""
","
",,null,run_exp/static/images/task_images/gems/100.jpg,null,,,,,,,84,,,8,,,,,100,0.840163282,0.84,,,,,,,
decision,200,706067,0.0-64.0-5.0,"""event"",""trial"",""time""
""fullscreenenter"",""1"",""5172""
","
","
","""event"",""trial"",""time""
""fullscreenenter"",""1"",""5172""
","
",,105.4,run_exp/static/images/task_images/land.jpg,65,,,,,,,84,,,8,,,,,,,,251332,1,0,FALSE,,,
dig,201,708964,0.0-65.0-0.0,"""event"",""trial"",""time""
""fullscreenenter"",""1"",""5172""
","
","
","""event"",""trial"",""time""
""fullscreenenter"",""1"",""5172""
","
",,,,,,,,,,,,"[{""stimulus"":""run_exp/static/images/task_images/dig.jpg"",""time"":0.19999998807907104},{""stimulus"":""run_exp/static/images/task_images/land.jpg"",""time"":966.0999999940395},{""stimulus"":""run_exp/static/images/task_images/dig.jpg"",""time"":1930.5}]",[],8,,,,,,,,,,,,,,
harvest,202,709966,0.0-65.0-1.0,"""event"",""trial"",""time""
""fullscreenenter"",""1"",""5172""
","
","
","""event"",""trial"",""time""
""fullscreenenter"",""1"",""5172""
","
",,null,run_exp/static/images/task_images/gems/84.jpg,null,,,,,,,66,,,8,,,,,84,0.788177873,0.785714286,,,,,,,
decision,203,711921,0.0-65.0-2.0,"""event"",""trial"",""time""
""fullscreenenter"",""1"",""5172""
","
","
","""event"",""trial"",""time""
""fullscreenenter"",""1"",""5172""
","
",,1954.8,run_exp/static/images/task_images/land.jpg,65,,,,,,,66,,,8,,,,,,,,257187,1,1,FALSE,,,
dig,204,712970,0.0-66.0-0.0,"""event"",""trial"",""time""
""fullscreenenter"",""1"",""5172""
","
","
","""event"",""trial"",""time""
""fullscreenenter"",""1"",""5172""
","
",,,,,,,,,,,,"[{""stimulus"":""run_exp/static/images/task_images/dig.jpg"",""time"":0.09999999403953552},{""stimulus"":""run_exp/static/images/task_images/land.jpg"",""time"":350.2999999821186},{""stimulus"":""run_exp/static/images/task_images/dig.jpg"",""time"":697.3999999761581}]",[],8,,,,,,,,,,,,,,
harvest,205,713972,0.0-66.0-1.0,"""event"",""trial"",""time""
""fullscreenenter"",""1"",""5172""
","
","
","""event"",""trial"",""time""
""fullscreenenter"",""1"",""5172""
","
",,null,run_exp/static/images/task_images/gems/66.jpg,null,,,,,,,46,,,8,,,,,66,0.698718258,0.696969697,,,,,,,
decision,206,714134,0.0-66.0-2.0,"""event"",""trial"",""time""
""fullscreenenter"",""1"",""5172""
","
","
","""event"",""trial"",""time""
""fullscreenenter"",""1"",""5172""
","
",,161.2,run_exp/static/images/task_images/land.jpg,65,,,,,,,46,,,8,,,,,,,,259399,1,2,FALSE,,,
dig,207,716976,0.0-67.0-0.0,"""event"",""trial"",""time""
""fullscreenenter"",""1"",""5172""
","
","
","""event"",""trial"",""time""
""fullscreenenter"",""1"",""5172""
","
",,,,,,,,,,,,"[{""stimulus"":""run_exp/static/images/task_images/dig.jpg"",""time"":0.10000002384185791},{""stimulus"":""run_exp/static/images/task_images/land.jpg"",""time"":947.1000000238419},{""stimulus"":""run_exp/static/images/task_images/dig.jpg"",""time"":1893.6000000238419}]",[],8,,,,,,,,,,,,,,
harvest,208,717978,0.0-67.0-1.0,"""event"",""trial"",""time""
""fullscreenenter"",""1"",""5172""
","
","
","""event"",""trial"",""time""
""fullscreenenter"",""1"",""5172""
","
",,null,run_exp/static/images/task_images/gems/46.jpg,null,,,,,,,41,,,8,,,,,46,0.893832057,0.891304348,,,,,,,
decision,209,718038,0.0-67.0-2.0,"""event"",""trial"",""time""
""fullscreenenter"",""1"",""5172""
","
","
","""event"",""trial"",""time""
""fullscreenenter"",""1"",""5172""
","
",,59.80000001,run_exp/static/images/task_images/land.jpg,65,,,,,,,41,,,8,,,,,,,,263303,1,3,FALSE,,,
dig,210,720982,0.0-68.0-0.0,"""event"",""trial"",""time""
""fullscreenenter"",""1"",""5172""
","
","
","""event"",""trial"",""time""
""fullscreenenter"",""1"",""5172""
","
",,,,,,,,,,,,"[{""stimulus"":""run_exp/static/images/task_images/dig.jpg"",""time"":0.09999999403953552},{""stimulus"":""run_exp/static/images/task_images/land.jpg"",""time"":981.0999999940395},{""stimulus"":""run_exp/static/images/task_images/dig.jpg"",""time"":1961}]",[],8,,,,,,,,,,,,,,
harvest,211,721984,0.0-68.0-1.0,"""event"",""trial"",""time""
""fullscreenenter"",""1"",""5172""
","
","
","""event"",""trial"",""time""
""fullscreenenter"",""1"",""5172""
","
",,null,run_exp/static/images/task_images/gems/41.jpg,null,,,,,,,26,,,8,,,,,41,0.645042839,0.634146341,,,,,,,
decision,212,722011,0.0-68.0-2.0,"""event"",""trial"",""time""
""fullscreenenter"",""1"",""5172""
","
","
","""event"",""trial"",""time""
""fullscreenenter"",""1"",""5172""
","
",,26.59999999,run_exp/static/images/task_images/land.jpg,65,,,,,,,26,,,8,,,,,,,,267276,1,4,FALSE,,,
dig,213,724987,0.0-69.0-0.0,"""event"",""trial"",""time""
""fullscreenenter"",""1"",""5172""
","
","
","""event"",""trial"",""time""
""fullscreenenter"",""1"",""5172""
","
",,,,,,,,,,,,"[{""stimulus"":""run_exp/static/images/task_images/dig.jpg"",""time"":0.09999999403953552},{""stimulus"":""run_exp/static/images/task_images/land.jpg"",""time"":992},{""stimulus"":""run_exp/static/images/task_images/dig.jpg"",""time"":1984}]",[],8,,,,,,,,,,,,,,
harvest,214,725988,0.0-69.0-1.0,"""event"",""trial"",""time""
""fullscreenenter"",""1"",""5172""
","
","
","""event"",""trial"",""time""
""fullscreenenter"",""1"",""5172""
","
",,null,run_exp/static/images/task_images/gems/26.jpg,null,,,,,,,23,,,8,,,,,26,0.888408769,0.884615385,,,,,,,
decision,215,726070,0.0-69.0-2.0,"""event"",""trial"",""time""
""fullscreenenter"",""1"",""5172""
","
","
","""event"",""trial"",""time""
""fullscreenenter"",""1"",""5172""
","
",,81,run_exp/static/images/task_images/land.jpg,65,,,,,,,23,,,8,,,,,,,,271335,1,5,FALSE,,,
dig,216,728993,0.0-70.0-0.0,"""event"",""trial"",""time""
""fullscreenenter"",""1"",""5172""
","
","
","""event"",""trial"",""time""
""fullscreenenter"",""1"",""5172""
","
",,,,,,,,,,,,"[{""stimulus"":""run_exp/static/images/task_images/dig.jpg"",""time"":0},{""stimulus"":""run_exp/static/images/task_images/land.jpg"",""time"":975.6999999880791},{""stimulus"":""run_exp/static/images/task_images/dig.jpg"",""time"":1948.4000000059605}]",[],8,,,,,,,,,,,,,,
harvest,217,730000,0.0-70.0-1.0,"""event"",""trial"",""time""
""fullscreenenter"",""1"",""5172""
","
","
","""event"",""trial"",""time""
""fullscreenenter"",""1"",""5172""
","
",,null,run_exp/static/images/task_images/gems/23.jpg,null,,,,,,,17,,,8,,,,,23,0.739478879,0.739130435,,,,,,,
decision,218,730086,0.0-70.0-2.0,"""event"",""trial"",""time""
""fullscreenenter"",""1"",""5172""
","
","
","""event"",""trial"",""time""
""fullscreenenter"",""1"",""5172""
","
",,85.10000002,run_exp/static/images/task_images/land.jpg,65,,,,,,,17,,,8,,,,,,,,275352,1,6,FALSE,,,
dig,219,733003,0.0-71.0-0.0,"""event"",""trial"",""time""
""fullscreenenter"",""1"",""5172""
","
","
","""event"",""trial"",""time""
""fullscreenenter"",""1"",""5172""
","
",,,,,,,,,,,,"[{""stimulus"":""run_exp/static/images/task_images/dig.jpg"",""time"":0.10000002384185791},{""stimulus"":""run_exp/static/images/task_images/land.jpg"",""time"":972.5},{""stimulus"":""run_exp/static/images/task_images/dig.jpg"",""time"":1944.1000000238419}]",[],8,,,,,,,,,,,,,,
harvest,220,734005,0.0-71.0-1.0,"""event"",""trial"",""time""
""fullscreenenter"",""1"",""5172""
","
","
","""event"",""trial"",""time""
""fullscreenenter"",""1"",""5172""
","
",,null,run_exp/static/images/task_images/gems/17.jpg,null,,,,,,,12,,,8,,,,,17,0.725850481,0.705882353,,,,,,,
decision,221,734069,0.0-71.0-2.0,"""event"",""trial"",""time""
""fullscreenenter"",""1"",""5172""
","
","
","""event"",""trial"",""time""
""fullscreenenter"",""1"",""5172""
","
",,63,run_exp/static/images/task_images/land.jpg,76,,,,,,,12,,,8,,,,,,,,279334,1,7,TRUE,,,
travel,222,744009,0.0-72.0-0.0,"""event"",""trial"",""time""
""fullscreenenter"",""1"",""5172""
","
","
","""event"",""trial"",""time""
""fullscreenenter"",""1"",""5172""
","
",,,,,,,,,,,,"[{""stimulus"":""run_exp/static/images/task_images/rocket-01.jpg"",""time"":0},{""stimulus"":""run_exp/static/images/task_images/rocket-02.jpg"",""time"":1104.8999999761581},{""stimulus"":""run_exp/static/images/task_images/rocket-03.jpg"",""time"":2210.199999988079},{""stimulus"":""run_exp/static/images/task_images/rocket-04.jpg"",""time"":3314.5999999940395},{""stimulus"":""run_exp/static/images/task_images/rocket-05.jpg"",""time"":4417.399999976158},{""stimulus"":""run_exp/static/images/task_images/rocket-06.jpg"",""time"":5521.899999976158},{""stimulus"":""run_exp/static/images/task_images/rocket-07.jpg"",""time"":6625.5},{""stimulus"":""run_exp/static/images/task_images/rocket-08.jpg"",""time"":7729.5999999940395},{""stimulus"":""run_exp/static/images/task_images/rocket-09.jpg"",""time"":8833.199999988079}]",[],8,,,,,,,,,,,,,,
alien_welcome,223,749011,0.0-72.0-1.0,"""event"",""trial"",""time""
""fullscreenenter"",""1"",""5172""
","
","
","""event"",""trial"",""time""
""fullscreenenter"",""1"",""5172""
","
",,null,run_exp/static/images/task_images/aliens/old_aliens/planet/alien_planet-72.jpg,null,,,,,,,,,,,,,72,"13,75,36,37,28,16,54,4,72,32,52,30,67,38,18,58,42,66,10,3,64,17,33,44,8,78,45,6,46,14,12,76,20,50,57,53",,,,,,,,,,
land,224,749513,0.0-72.0-2.0,"""event"",""trial"",""time""
""fullscreenenter"",""1"",""5172""
","
","
","""event"",""trial"",""time""
""fullscreenenter"",""1"",""5172""
","
",,null,run_exp/static/images/task_images/land.jpg,null,,,,,,,101,,,9,,,,,,,,,,,,,,
dig,225,751516,0.0-72.0-3.0,"""event"",""trial"",""time""
""fullscreenenter"",""1"",""5172""
","
","
","""event"",""trial"",""time""
""fullscreenenter"",""1"",""5172""
","
",,,,,,,,,,,,"[{""stimulus"":""run_exp/static/images/task_images/dig.jpg"",""time"":0.20000001788139343},{""stimulus"":""run_exp/static/images/task_images/land.jpg"",""time"":667.9000000059605},{""stimulus"":""run_exp/static/images/task_images/dig.jpg"",""time"":1335.9000000059605}]",[],9,,,,,,,,,,,,,,
harvest,226,752518,0.0-72.0-4.0,"""event"",""trial"",""time""
""fullscreenenter"",""1"",""5172""
","
","
","""event"",""trial"",""time""
""fullscreenenter"",""1"",""5172""
","
",,null,run_exp/static/images/task_images/gems/101.jpg,null,,,,,,,16,,,9,,,,,101,0.154785947,0.158415842,,,,,,,
decision,227,752599,0.0-72.0-5.0,"""event"",""trial"",""time""
""fullscreenenter"",""1"",""5172""
","
","
","""event"",""trial"",""time""
""fullscreenenter"",""1"",""5172""
","
",,80.30000001,run_exp/static/images/task_images/land.jpg,65,,,,,,,16,,,9,,,,,,,,297864,1,0,FALSE,,,
dig,228,755521,0.0-73.0-0.0,"""event"",""trial"",""time""
""fullscreenenter"",""1"",""5172""
","
","
","""event"",""trial"",""time""
""fullscreenenter"",""1"",""5172""
","
",,,,,,,,,,,,"[{""stimulus"":""run_exp/static/images/task_images/dig.jpg"",""time"":0},{""stimulus"":""run_exp/static/images/task_images/land.jpg"",""time"":974.0999999940395},{""stimulus"":""run_exp/static/images/task_images/dig.jpg"",""time"":1946.7999999821186}]",[],9,,,,,,,,,,,,,,
harvest,229,756522,0.0-73.0-1.0,"""event"",""trial"",""time""
""fullscreenenter"",""1"",""5172""
","
","
","""event"",""trial"",""time""
""fullscreenenter"",""1"",""5172""
","
",,null,run_exp/static/images/task_images/gems/16.jpg,null,,,,,,,4,,,9,,,,,16,0.247477989,0.25,,,,,,,
decision,230,756526,0.0-73.0-2.0,"""event"",""trial"",""time""
""fullscreenenter"",""1"",""5172""
","
","
","""event"",""trial"",""time""
""fullscreenenter"",""1"",""5172""
","
",,2.599999994,run_exp/static/images/task_images/land.jpg,65,,,,,,,4,,,9,,,,,,,,301791,1,1,TRUE,,,
end_of_block_continue,231,765376,0.0-74.0-0.0,"""event"",""trial"",""time""
""fullscreenenter"",""1"",""5172""
","
","
","""event"",""trial"",""time""
""fullscreenenter"",""1"",""5172""
","
",,null,run_exp/static/audio/clip_32_block_end.m4a,,,,,,,null,,,,,,,,,,,,,,,,,,
alien_welcome,232,770380,0.0-75.0-0.0,"""event"",""trial"",""time""
""fullscreenenter"",""1"",""5172""
","
","
","""event"",""trial"",""time""
""fullscreenenter"",""1"",""5172""
","
",,null,run_exp/static/images/task_images/aliens/old_aliens/planet/alien_planet-32.jpg,null,,,,,,,,,,,,,32,"13,75,36,37,28,16,54,4,72,32,52,30,67,38,18,58,42,66,10,3,64,17,33,44,8,78,45,6,46,14,12,76,20,50,57,53",,,,,,,,,,
land,233,770882,0.0-75.0-1.0,"""event"",""trial"",""time""
""fullscreenenter"",""1"",""5172""
","
","
","""event"",""trial"",""time""
""fullscreenenter"",""1"",""5172""
","
",,null,run_exp/static/images/task_images/land.jpg,null,,,,,,,97,,,10,,,,,,,,,,,,,,
dig,234,772885,0.0-75.0-2.0,"""event"",""trial"",""time""
""fullscreenenter"",""1"",""5172""
","
","
","""event"",""trial"",""time""
""fullscreenenter"",""1"",""5172""
","
",,,,,,,,,,,,"[{""stimulus"":""run_exp/static/images/task_images/dig.jpg"",""time"":0.19999998807907104},{""stimulus"":""run_exp/static/images/task_images/land.jpg"",""time"":668.0999999940395},{""stimulus"":""run_exp/static/images/task_images/dig.jpg"",""time"":1334.699999988079}]",[],10,,,,,,,,,,,,,,
harvest,235,773886,0.0-75.0-3.0,"""event"",""trial"",""time""
""fullscreenenter"",""1"",""5172""
","
","
","""event"",""trial"",""time""
""fullscreenenter"",""1"",""5172""
","
",,null,run_exp/static/images/task_images/gems/97.jpg,null,,,,,,,19,,,10,,,,,97,0.196320933,0.195876289,,,,,,,
decision,236,774104,0.0-75.0-4.0,"""event"",""trial"",""time""
""fullscreenenter"",""1"",""5172""
","
","
","""event"",""trial"",""time""
""fullscreenenter"",""1"",""5172""
","
",,217.1,run_exp/static/images/task_images/land.jpg,65,,,,,,,19,,,10,,,,,,,,8727,2,0,FALSE,,,
dig,237,776888,0.0-76.0-0.0,"""event"",""trial"",""time""
""fullscreenenter"",""1"",""5172""
","
","
","""event"",""trial"",""time""
""fullscreenenter"",""1"",""5172""
","
",,,,,,,,,,,,"[{""stimulus"":""run_exp/static/images/task_images/dig.jpg"",""time"":0},{""stimulus"":""run_exp/static/images/task_images/land.jpg"",""time"":929.3000000119209},{""stimulus"":""run_exp/static/images/task_images/dig.jpg"",""time"":1855.0999999940395}]",[],10,,,,,,,,,,,,,,
harvest,238,777889,0.0-76.0-1.0,"""event"",""trial"",""time""
""fullscreenenter"",""1"",""5172""
","
","
","""event"",""trial"",""time""
""fullscreenenter"",""1"",""5172""
","
",,null,run_exp/static/images/task_images/gems/19.jpg,null,,,,,,,4,,,10,,,,,19,0.202862304,0.210526316,,,,,,,
decision,239,777893,0.0-76.0-2.0,"""event"",""trial"",""time""
""fullscreenenter"",""1"",""5172""
","
","
","""event"",""trial"",""time""
""fullscreenenter"",""1"",""5172""
","
",,2.599999994,run_exp/static/images/task_images/land.jpg,65,,,,,,,4,,,10,,,,,,,,12516,2,1,FALSE,,,
dig,240,780893,0.0-77.0-0.0,"""event"",""trial"",""time""
""fullscreenenter"",""1"",""5172""
","
","
","""event"",""trial"",""time""
""fullscreenenter"",""1"",""5172""
","
",,,,,,,,,,,,"[{""stimulus"":""run_exp/static/images/task_images/dig.jpg"",""time"":0.09999999403953552},{""stimulus"":""run_exp/static/images/task_images/land.jpg"",""time"":1000.9000000059605},{""stimulus"":""run_exp/static/images/task_images/dig.jpg"",""time"":1998.9000000059605}]",[],10,,,,,,,,,,,,,,
harvest,241,781895,0.0-77.0-1.0,"""event"",""trial"",""time""
""fullscreenenter"",""1"",""5172""
","
","
","""event"",""trial"",""time""
""fullscreenenter"",""1"",""5172""
","
",,null,run_exp/static/images/task_images/gems/4.jpg,null,,,,,,,1,,,10,,,,,4,0.263729091,0.25,,,,,,,
decision,242,781963,0.0-77.0-2.0,"""event"",""trial"",""time""
""fullscreenenter"",""1"",""5172""
","
","
","""event"",""trial"",""time""
""fullscreenenter"",""1"",""5172""
","
",,67.80000001,run_exp/static/images/task_images/land.jpg,65,,,,,,,1,,,10,,,,,,,,16586,2,2,FALSE,,,
dig,243,784897,0.0-78.0-0.0,"""event"",""trial"",""time""
""fullscreenenter"",""1"",""5172""
","
","
","""event"",""trial"",""time""
""fullscreenenter"",""1"",""5172""
","
",,,,,,,,,,,,"[{""stimulus"":""run_exp/static/images/task_images/dig.jpg"",""time"":0.09999999403953552},{""stimulus"":""run_exp/static/images/task_images/land.jpg"",""time"":978.5999999940395},{""stimulus"":""run_exp/static/images/task_images/dig.jpg"",""time"":1955.9000000059605}]",[],10,,,,,,,,,,,,,,
harvest,244,785900,0.0-78.0-1.0,"""event"",""trial"",""time""
""fullscreenenter"",""1"",""5172""
","
","
","""event"",""trial"",""time""
""fullscreenenter"",""1"",""5172""
","
",,null,run_exp/static/images/task_images/gems/1.jpg,null,,,,,,,0,,,10,,,,,1,0.168690569,0,,,,,,,
decision,245,786062,0.0-78.0-2.0,"""event"",""trial"",""time""
""fullscreenenter"",""1"",""5172""
","
","
","""event"",""trial"",""time""
""fullscreenenter"",""1"",""5172""
","
",,160.6,run_exp/static/images/task_images/land.jpg,76,,,,,,,0,,,10,,,,,,,,20685,2,3,TRUE,,,
travel,246,795901,0.0-79.0-0.0,"""event"",""trial"",""time""
""fullscreenenter"",""1"",""5172""
","
","
","""event"",""trial"",""time""
""fullscreenenter"",""1"",""5172""
","
",,,,,,,,,,,,"[{""stimulus"":""run_exp/static/images/task_images/rocket-01.jpg"",""time"":0.09999999403953552},{""stimulus"":""run_exp/static/images/task_images/rocket-02.jpg"",""time"":1094.300000011921},{""stimulus"":""run_exp/static/images/task_images/rocket-03.jpg"",""time"":2188.300000011921},{""stimulus"":""run_exp/static/images/task_images/rocket-04.jpg"",""time"":3280.4000000059605},{""stimulus"":""run_exp/static/images/task_images/rocket-05.jpg"",""time"":4382.5999999940395},{""stimulus"":""run_exp/static/images/task_images/rocket-06.jpg"",""time"":5466.4000000059605},{""stimulus"":""run_exp/static/images/task_images/rocket-07.jpg"",""time"":6558.800000011921},{""stimulus"":""run_exp/static/images/task_images/rocket-08.jpg"",""time"":7652.800000011921},{""stimulus"":""run_exp/static/images/task_images/rocket-09.jpg"",""time"":8744.800000011921}]",[],10,,,,,,,,,,,,,,
alien_welcome,247,800903,0.0-79.0-1.0,"""event"",""trial"",""time""
""fullscreenenter"",""1"",""5172""
","
","
","""event"",""trial"",""time""
""fullscreenenter"",""1"",""5172""
","
",,null,run_exp/static/images/task_images/aliens/old_aliens/planet/alien_planet-52.jpg,null,,,,,,,,,,,,,52,"13,75,36,37,28,16,54,4,72,32,52,30,67,38,18,58,42,66,10,3,64,17,33,44,8,78,45,6,46,14,12,76,20,50,57,53",,,,,,,,,,
land,248,801405,0.0-79.0-2.0,"""event"",""trial"",""time""
""fullscreenenter"",""1"",""5172""
","
","
","""event"",""trial"",""time""
""fullscreenenter"",""1"",""5172""
","
",,null,run_exp/static/images/task_images/land.jpg,null,,,,,,,102,,,11,,,,,,,,,,,,,,
dig,249,803409,0.0-79.0-3.0,"""event"",""trial"",""time""
""fullscreenenter"",""1"",""5172""
","
","
","""event"",""trial"",""time""
""fullscreenenter"",""1"",""5172""
","
",,,,,,,,,,,,"[{""stimulus"":""run_exp/static/images/task_images/dig.jpg"",""time"":0.29999998211860657},{""stimulus"":""run_exp/static/images/task_images/land.jpg"",""time"":668.2999999821186},{""stimulus"":""run_exp/static/images/task_images/dig.jpg"",""time"":1335.5999999940395}]",[],11,,,,,,,,,,,,,,
harvest,250,804411,0.0-79.0-4.0,"""event"",""trial"",""time""
""fullscreenenter"",""1"",""5172""
","
","
","""event"",""trial"",""time""
""fullscreenenter"",""1"",""5172""
","
",,null,run_exp/static/images/task_images/gems/102.jpg,null,,,,,,,21,,,11,,,,,102,0.203634314,0.205882353,,,,,,,
decision,251,804425,0.0-79.0-5.0,"""event"",""trial"",""time""
""fullscreenenter"",""1"",""5172""
","
","
","""event"",""trial"",""time""
""fullscreenenter"",""1"",""5172""
","
",,13.40000001,run_exp/static/images/task_images/land.jpg,65,,,,,,,21,,,11,,,,,,,,39048,2,0,FALSE,,,
dig,252,807413,0.0-80.0-0.0,"""event"",""trial"",""time""
""fullscreenenter"",""1"",""5172""
","
","
