trial_type,trial_index,time_elapsed,internal_node_id,interactions,blur_events,focus_events,fullscreenenter_events,fullscreenexit_events,success,rt,stimulus,key_press,prompt,subject_id,participant_id,age,gender,button_pressed,next_reward,animation_sequence,responses,planet,curr_prac_trial,n_prac_rounds,alien,aliens,reward_received,decay_rate_actual,decay_rate_exp,time_in_block,block_num,prt,last_trial_on_planet,button_html,bonus,num_failures
pavlovia,0,6,0.0-0.0,"""event"",""trial"",""time""
""fullscreenenter"",""1"",""10650""
","
","
","""event"",""trial"",""time""
""fullscreenenter"",""1"",""10650""
","
",,,,,,,,,,,,,,,,,,,,,,,,,,,,
fullscreen,1,11602,0.0-1.0,"""event"",""trial"",""time""
""fullscreenenter"",""1"",""10650""
","
","
","""event"",""trial"",""time""
""fullscreenenter"",""1"",""10650""
","
",TRUE,,,,,,,,,,,,,,,,,,,,,,,,,,,
instruc_welcome,2,21696,0.0-2.0,"""event"",""trial"",""time""
""fullscreenenter"",""1"",""10650""
","
","
","""event"",""trial"",""time""
""fullscreenenter"",""1"",""10650""
","
",,null,run_exp/static/audio/clip_1_welcome.m4a,null,"<p>Howdy! In this experiment, you’ll be an explorer traveling through space to collect space treasure.</p><p>Your mission is to collect as much treasure as possible.</p><br><br><p><img src='run_exp/static/images/task_images/opening_img-01.jpg' height='300' width='auto'></p>",9292,4464,17.92,Male,,,,,,,,,,,,,,,,,,,
audio-keyboard-response,3,38319,0.0-3.0,"""event"",""trial"",""time""
""fullscreenenter"",""1"",""10650""
","
","
","""event"",""trial"",""time""
""fullscreenenter"",""1"",""10650""
","
",,null,run_exp/static/audio/clip_2_move.m4a,null,,,,,,,,,,,,,,,,,,,,,,,,
welcome_dec,4,73206,0.0-4.0,"""event"",""trial"",""time""
""fullscreenenter"",""1"",""10650""
","
","
","""event"",""trial"",""time""
""fullscreenenter"",""1"",""10650""
","
",,34878,"<p>Howdy! In this experiment, you’ll be an explorer traveling through space to collect space treasure.</p><p>Your mission is to collect as much treasure as possible.</p><br><br><p><img src='run_exp/static/images/task_images/opening_img-01.jpg' height='300' width='auto'></p>",,,,,,,1,,,,,,,,,,,,,,,,,,
html-keyboard-response,5,78834,0.0-5.0,"""event"",""trial"",""time""
""fullscreenenter"",""1"",""10650""
","
","
","""event"",""trial"",""time""
""fullscreenenter"",""1"",""10650""
","
",,5621.7,"<p>Howdy! In this experiment, you’ll be an explorer traveling through space to collect space treasure.</p><p>Your mission is to collect as much treasure as possible.</p><br><br><p><img src='run_exp/static/images/task_images/opening_img-01.jpg' height='300' width='auto'></p><button class=""jspsych-html-btn-unchosen""><img src=""run_exp/static/images/task_images/planet-01.jpg"" height=""50""></button><button class=""jspsych-html-btn-chosen""><img src=""run_exp/static/images/task_images/planet-02.jpg"" height=""50""></button><p><b>[press the space bar to lock in your answer]<b><br></p>",32,,,,,,,,,,,,,,,,,,,,,,,,
instruc_goal,6,89344,0.0-6.0-0.0,"""event"",""trial"",""time""
""fullscreenenter"",""1"",""10650""
","
","
","""event"",""trial"",""time""
""fullscreenenter"",""1"",""10650""
","
",,null,run_exp/static/audio/clip_3_goal.m4a,null,"<p> As a space explorer, you’ll visit different planets to dig for space treasure, these pink gems.</p> <p> The more treasure you dig up, the more bonus money you’ll win! </p><br><br><p><img src='run_exp/static/images/task_images/pink_gem.jpg' height='300' width='auto'></p>",,,,,,,,,,,,,,,,,,,,,,,
instruc_goal,7,95204,0.0-6.0-1.0,"""event"",""trial"",""time""
""fullscreenenter"",""1"",""10650""
","
","
","""event"",""trial"",""time""
""fullscreenenter"",""1"",""10650""
","
",,5853.4,"<p> As a space explorer, you’ll visit different planets to dig for space treasure, these pink gems.</p> <p> The more treasure you dig up, the more bonus money you’ll win! </p><br><br><p><img src='run_exp/static/images/task_images/pink_gem.jpg' height='300' width='auto'></p>",,,,,,,1,,,,,,,,,,,,,,,,,,
html-keyboard-response,8,96624,0.0-6.0-2.0,"""event"",""trial"",""time""
""fullscreenenter"",""1"",""10650""
","
","
","""event"",""trial"",""time""
""fullscreenenter"",""1"",""10650""
","
",,1416.2,"<p> As a space explorer, you’ll visit different planets to dig for space treasure, these pink gems.</p> <p> The more treasure you dig up, the more bonus money you’ll win! </p><br><br><p><img src='run_exp/static/images/task_images/pink_gem.jpg' height='300' width='auto'></p><button class=""jspsych-html-btn-unchosen""><img src=""run_exp/static/images/task_images/planet-01.jpg"" height=""50""></button><button class=""jspsych-html-btn-chosen""><img src=""run_exp/static/images/task_images/planet-02.jpg"" height=""50""></button><p><b>[press the space bar to lock in your answer]<b><br></p>",32,,,,,,,,,,,,,,,,,,,,,,,,
instruc_dig,9,112646,0.0-7.0-0.0,"""event"",""trial"",""time""
""fullscreenenter"",""1"",""10650""
","
","
","""event"",""trial"",""time""
""fullscreenenter"",""1"",""10650""
","
",,null,run_exp/static/audio/clip_4_dig.m4a,null,,,,,,,100,,,,,,,,,,,,,,,,,
instruc_dig_try,10,113684,0.0-7.0-1.0,"""event"",""trial"",""time""
""fullscreenenter"",""1"",""10650""
","
","
","""event"",""trial"",""time""
""fullscreenenter"",""1"",""10650""
","
",,1029.4,"<p> When you’ve arrived at a new planet, you will dig once. </p> <p>Then, you get to decide if you want to stay on the planet and dig again or travel to a new planet and dig there.</p> <p> To stay and dig, press the letter <strong>‘A’</strong> on your keyboard. Try pressing it now! </p><p><img src='run_exp/static/images/task_images/land.jpg'  height='700' width='auto'></p>",65,"<p> When you’ve arrived at a new planet, you will dig once. </p> <p>Then, you get to decide if you want to stay on the planet and dig again or travel to a new planet and dig there.</p> <p> To stay and dig, press the letter <strong>‘A’</strong> on your keyboard. Try pressing it now! </p><p><img src='run_exp/static/images/task_images/land.jpg'  height='700' width='auto'></p>",,,,,,100,,,,,,,,,,,,,,,,,
dig_prac,11,115712,0.0-7.0-2.0,"""event"",""trial"",""time""
""fullscreenenter"",""1"",""10650""
","
","
","""event"",""trial"",""time""
""fullscreenenter"",""1"",""10650""
","
",,,,,,,,,,,,"[{""stimulus"":""run_exp/static/images/task_images/dig.jpg"",""time"":1},{""stimulus"":""run_exp/static/images/task_images/land.jpg"",""time"":670.1000000238419},{""stimulus"":""run_exp/static/images/task_images/dig.jpg"",""time"":1347.2000000476837}]",[],,,,,,,,,,,,,,,
instruc_travel,12,151967,0.0-7.0-3.0,"""event"",""trial"",""time""
""fullscreenenter"",""1"",""10650""
","
","
","""event"",""trial"",""time""
""fullscreenenter"",""1"",""10650""
","
",,null,run_exp/static/audio/clip_5_travel.m4a,null,"<p>Every time you dig up gems, there are less gems on the planet, so the more you dig on a planet the fewer gems you’ll get with each dig.</p><p>When gems are running low, you may want to travel to a new planet. </p> <p>  Planets are very far apart in this galaxy, so it will take some time to travel between them. </p> <br><p>There are lots and lots of planets for you to visit, so you won’t be able to return to any planets you’ve seen before. </p><br><p>To leave this planet and travel to a new one, press the letter <strong>‘L’</strong> on your keyboard. Try pressing it now! </p><p><img src='run_exp/static/images/task_images/rocket-01.jpg'  height='600' width='auto'></p>",,,,,,,,,,,,,,,,,,,,,,,
instruc_travel_try,13,155861,0.0-7.0-4.0,"""event"",""trial"",""time""
""fullscreenenter"",""1"",""10650""
","
","
","""event"",""trial"",""time""
""fullscreenenter"",""1"",""10650""
","
",,3886.8,"<p>Every time you dig up gems, there are less gems on the planet, so the more you dig on a planet the fewer gems you’ll get with each dig.</p><p>When gems are running low, you may want to travel to a new planet. </p> <p>  Planets are very far apart in this galaxy, so it will take some time to travel between them. </p> <br><p>There are lots and lots of planets for you to visit, so you won’t be able to return to any planets you’ve seen before. </p><br><p>To leave this planet and travel to a new one, press the letter <strong>‘L’</strong> on your keyboard. Try pressing it now! </p><p><img src='run_exp/static/images/task_images/rocket-01.jpg'  height='600' width='auto'></p>",76,"<p>Every time you dig up gems, there are less gems on the planet, so the more you dig on a planet the fewer gems you’ll get with each dig.</p><p>When gems are running low, you may want to travel to a new planet. </p> <p>  Planets are very far apart in this galaxy, so it will take some time to travel between them. </p> <br><p>There are lots and lots of planets for you to visit, so you won’t be able to return to any planets you’ve seen before. </p><br><p>To leave this planet and travel to a new one, press the letter <strong>‘L’</strong> on your keyboard. Try pressing it now! </p><p><img src='run_exp/static/images/task_images/rocket-01.jpg'  height='600' width='auto'></p>",,,,,,,,,,,,,,,,,,,,,,,
travel_prac,14,165879,0.0-7.0-5.0,"""event"",""trial"",""time""
""fullscreenenter"",""1"",""10650""
","
","
","""event"",""trial"",""time""
""fullscreenenter"",""1"",""10650""
","
",,,,,,,,,,,,"[{""stimulus"":""run_exp/static/images/task_images/rocket-01.jpg"",""time"":0.8000000715255737},{""stimulus"":""run_exp/static/images/task_images/rocket-02.jpg"",""time"":1118.7000000476837},{""stimulus"":""run_exp/static/images/task_images/rocket-03.jpg"",""time"":2236.7000000476837},{""stimulus"":""run_exp/static/images/task_images/rocket-04.jpg"",""time"":3337},{""stimulus"":""run_exp/static/images/task_images/rocket-05.jpg"",""time"":4447.900000095367},{""stimulus"":""run_exp/static/images/task_images/rocket-06.jpg"",""time"":5559},{""stimulus"":""run_exp/static/images/task_images/rocket-07.jpg"",""time"":6678.800000071526},{""stimulus"":""run_exp/static/images/task_images/rocket-08.jpg"",""time"":7786.700000047684},{""stimulus"":""run_exp/static/images/task_images/rocket-09.jpg"",""time"":8902.600000023842}]",[],0,,,,,,,,,,,,,,
instruc_alien_greet,15,193093,0.0-7.0-6.0,"""event"",""trial"",""time""
""fullscreenenter"",""1"",""10650""
","
","
","""event"",""trial"",""time""
""fullscreenenter"",""1"",""10650""
","
",,null,run_exp/static/audio/clip_6_alien.m4a,null,"<p>When you arrive at a new planet, the alien who owns the treasure mine on that planet will greet you!</p><p>The better an alien takes care of their mine the easier it is to dig for gems. Some aliens take better care of their mine than others. So, you won’t get exactly the same amount of gems on each planet.</p><p>What the alien looks like does not tell you anything about how many gems there are on the planet.</p><br><p><img src=""run_exp/static/images/task_images/aliens/instructions_aliens/planet/alien_planet-1.jpg""  height=""600"" width=""auto""></p>",,,,,,,,,,,,,,,,,,,,,,,
instruc_alien_greet,16,199341,0.0-7.0-7.0,"""event"",""trial"",""time""
""fullscreenenter"",""1"",""10650""
","
","
","""event"",""trial"",""time""
""fullscreenenter"",""1"",""10650""
","
",,6239.6,"<p>When you arrive at a new planet, the alien who owns the treasure mine on that planet will greet you!</p><p>The better an alien takes care of their mine the easier it is to dig for gems. Some aliens take better care of their mine than others. So, you won’t get exactly the same amount of gems on each planet.</p><p>What the alien looks like does not tell you anything about how many gems there are on the planet.</p><br><p><img src=""run_exp/static/images/task_images/aliens/instructions_aliens/planet/alien_planet-1.jpg""  height=""600"" width=""auto""></p>",,,,,,,1,,,,,,,,,,,,,,,,,,
html-keyboard-response,17,203435,0.0-7.0-8.0,"""event"",""trial"",""time""
""fullscreenenter"",""1"",""10650""
","
","
","""event"",""trial"",""time""
""fullscreenenter"",""1"",""10650""
","
",,4090,"<p>When you arrive at a new planet, the alien who owns the treasure mine on that planet will greet you!</p><p>The better an alien takes care of their mine the easier it is to dig for gems. Some aliens take better care of their mine than others. So, you won’t get exactly the same amount of gems on each planet.</p><p>What the alien looks like does not tell you anything about how many gems there are on the planet.</p><br><p><img src=""run_exp/static/images/task_images/aliens/instructions_aliens/planet/alien_planet-1.jpg""  height=""600"" width=""auto""></p><button class=""jspsych-html-btn-unchosen""><img src=""run_exp/static/images/task_images/planet-01.jpg"" height=""50""></button><button class=""jspsych-html-btn-chosen""><img src=""run_exp/static/images/task_images/planet-02.jpg"" height=""50""></button><p><b>[press the space bar to lock in your answer]<b><br></p>",32,,,,,,,,,,,,,,,,,,,,,,,,
time_out,18,214533,0.0-8.0-0.0,"""event"",""trial"",""time""
""fullscreenenter"",""1"",""10650""
","
","
","""event"",""trial"",""time""
""fullscreenenter"",""1"",""10650""
","
",,null,run_exp/static/audio/clip_7_timeout.m4a,null,"<p>If you don't make your choice fast enough, you’ll have to wait a few seconds before you can make another one.</p><p>You can’t dig for more gems or travel to new planets. You just have to sit and wait.</p><br><p><img src='run_exp/static/images/task_images/time_out.jpg'  height='600' width='auto'></p>",,,,,,,,,,,,,,,,,,,,,,,
time_out,19,218853,0.0-8.0-1.0,"""event"",""trial"",""time""
""fullscreenenter"",""1"",""10650""
","
","
","""event"",""trial"",""time""
""fullscreenenter"",""1"",""10650""
","
",,4309.5,"<p>If you don't make your choice fast enough, you’ll have to wait a few seconds before you can make another one.</p><p>You can’t dig for more gems or travel to new planets. You just have to sit and wait.</p><br><p><img src='run_exp/static/images/task_images/time_out.jpg'  height='600' width='auto'></p>",,,,,,,1,,,,,,,,,,,,,,,,,,
html-keyboard-response,20,221803,0.0-8.0-2.0,"""event"",""trial"",""time""
""fullscreenenter"",""1"",""10650""
","
","
","""event"",""trial"",""time""
""fullscreenenter"",""1"",""10650""
","
",,2945.6,"<p>If you don't make your choice fast enough, you’ll have to wait a few seconds before you can make another one.</p><p>You can’t dig for more gems or travel to new planets. You just have to sit and wait.</p><br><p><img src='run_exp/static/images/task_images/time_out.jpg'  height='600' width='auto'></p><button class=""jspsych-html-btn-unchosen""><img src=""run_exp/static/images/task_images/planet-01.jpg"" height=""50""></button><button class=""jspsych-html-btn-chosen""><img src=""run_exp/static/images/task_images/planet-02.jpg"" height=""50""></button><p><b>[press the space bar to lock in your answer]<b><br></p>",32,,,,,,,,,,,,,,,,,,,,,,,,
instruc_break,21,237514,0.0-9.0-0.0,"""event"",""trial"",""time""
""fullscreenenter"",""1"",""10650""
","
","
","""event"",""trial"",""time""
""fullscreenenter"",""1"",""10650""
","
",,null,run_exp/static/audio/clip_8_break.m4a,null,"<p> After digging and traveling for a while, you’ll be able to take a break at home base. </p><p>The game will last 20 minutes no matter what.</p><p>You will visit home base every 5 minutes, so, you will visit home base three times during the game.</p><br><p><img src='run_exp/static/images/task_images/home_base.jpg' height='600' width='auto'></p>",,,,,,,,,,,,,,,,,,,,,,,
instruc_break,22,241853,0.0-9.0-1.0,"""event"",""trial"",""time""
""fullscreenenter"",""1"",""10650""
","
","
","""event"",""trial"",""time""
""fullscreenenter"",""1"",""10650""
","
",,4328.5,"<p> After digging and traveling for a while, you’ll be able to take a break at home base. </p><p>The game will last 20 minutes no matter what.</p><p>You will visit home base every 5 minutes, so, you will visit home base three times during the game.</p><br><p><img src='run_exp/static/images/task_images/home_base.jpg' height='600' width='auto'></p>",,,,,,,1,,,,,,,,,,,,,,,,,,
html-keyboard-response,23,243902,0.0-9.0-2.0,"""event"",""trial"",""time""
""fullscreenenter"",""1"",""10650""
","
","
","""event"",""trial"",""time""
""fullscreenenter"",""1"",""10650""
","
",,2044.9,"<p> After digging and traveling for a while, you’ll be able to take a break at home base. </p><p>The game will last 20 minutes no matter what.</p><p>You will visit home base every 5 minutes, so, you will visit home base three times during the game.</p><br><p><img src='run_exp/static/images/task_images/home_base.jpg' height='600' width='auto'></p><button class=""jspsych-html-btn-unchosen""><img src=""run_exp/static/images/task_images/planet-01.jpg"" height=""50""></button><button class=""jspsych-html-btn-chosen""><img src=""run_exp/static/images/task_images/planet-02.jpg"" height=""50""></button><p><b>[press the space bar to lock in your answer]<b><br></p>",32,,,,,,,,,,,,,,,,,,,,,,,,
instruc_prac_game,24,254054,0.0-10.0-0.0,"""event"",""trial"",""time""
""fullscreenenter"",""1"",""10650""
","
","
","""event"",""trial"",""time""
""fullscreenenter"",""1"",""10650""
","
",,null,run_exp/static/audio/clip_9_practice.m4a,null,"<p> Are you ready to play a practice game? </p> <p>In this practice game, you'll be digging up barrels of gems. But, in the real game, you'll be digging up the gems themselves. </p>",,,,,,,,,,,,,,,,,,,,,,,
html-button-response,25,257933,0.0-10.0-1.0,"""event"",""trial"",""time""
""fullscreenenter"",""1"",""10650""
","
","
","""event"",""trial"",""time""
""fullscreenenter"",""1"",""10650""
","
",,3869.6,"<p> Are you ready to play a practice game? </p> <p>In this practice game, you'll be digging up barrels of gems. But, in the real game, you'll be digging up the gems themselves. </p>",,,,,,,0,,,,,,,,,,,,,,,,,,
alien_welcome_prac,26,262951,0.0-11.0-0.0,"""event"",""trial"",""time""
""fullscreenenter"",""1"",""10650""
","
","
","""event"",""trial"",""time""
""fullscreenenter"",""1"",""10650""
","
",,null,run_exp/static/images/task_images/aliens/practice_aliens/planet/alien_planet-5.jpg,null,,,,,,,,,,,,,,,,,,,,,,,,
land_prac,27,263461,0.0-11.0-1.0,"""event"",""trial"",""time""
""fullscreenenter"",""1"",""10650""
","
","
","""event"",""trial"",""time""
""fullscreenenter"",""1"",""10650""
","
",,null,run_exp/static/images/task_images/land.jpg,null,,,,,,,106,,,0,,,,,,,,,,,,,,
dig_prac,28,265481,0.0-11.0-2.0,"""event"",""trial"",""time""
""fullscreenenter"",""1"",""10650""
","
","
","""event"",""trial"",""time""
""fullscreenenter"",""1"",""10650""
","
",,,,,,,,,,,,"[{""stimulus"":""run_exp/static/images/task_images/dig.jpg"",""time"":0.7000000476837158},{""stimulus"":""run_exp/static/images/task_images/land.jpg"",""time"":675},{""stimulus"":""run_exp/static/images/task_images/dig.jpg"",""time"":1345.5}]",[],,,,,,,,,,,,,,,
harvest_prac,29,266490,0.0-11.0-3.0,"""event"",""trial"",""time""
""fullscreenenter"",""1"",""10650""
","
","
","""event"",""trial"",""time""
""fullscreenenter"",""1"",""10650""
","
",,null,run_exp/static/images/task_images/barrel_text.jpg,null,,,,,,,,,,,,,,,,,,,,,,,,
decision_prac,30,267103,0.0-11.0-4.0,"""event"",""trial"",""time""
""fullscreenenter"",""1"",""10650""
","
","
","""event"",""trial"",""time""
""fullscreenenter"",""1"",""10650""
","
",,609.2,run_exp/static/images/task_images/land.jpg,65,,,,,,,,,,,1,,,,,,,,,,,,,
dig_prac,31,269119,0.0-12.0-0.0,"""event"",""trial"",""time""
""fullscreenenter"",""1"",""10650""
","
","
","""event"",""trial"",""time""
""fullscreenenter"",""1"",""10650""
","
",,,,,,,,,,,,"[{""stimulus"":""run_exp/static/images/task_images/dig.jpg"",""time"":0.7000000476837158},{""stimulus"":""run_exp/static/images/task_images/land.jpg"",""time"":678.8999999761581},{""stimulus"":""run_exp/static/images/task_images/dig.jpg"",""time"":1346.3999999761581}]",[],,,,,,,,,,,,,,,
harvest_prac,32,270130,0.0-12.0-1.0,"""event"",""trial"",""time""
""fullscreenenter"",""1"",""10650""
","
","
","""event"",""trial"",""time""
""fullscreenenter"",""1"",""10650""
","
",,null,run_exp/static/images/task_images/barrel_text.jpg,null,,,,,,,,,,,,,,,,,,,,,,,,
decision_prac,33,272943,0.0-12.0-2.0,"""event"",""trial"",""time""
""fullscreenenter"",""1"",""10650""
","
","
","""event"",""trial"",""time""
""fullscreenenter"",""1"",""10650""
","
",,2809.9,run_exp/static/images/task_images/land.jpg,65,,,,,,,,,,,2,,,,,,,,,,,,,
dig_prac,34,274961,0.0-13.0-0.0,"""event"",""trial"",""time""
""fullscreenenter"",""1"",""10650""
","
","
","""event"",""trial"",""time""
""fullscreenenter"",""1"",""10650""
","
",,,,,,,,,,,,"[{""stimulus"":""run_exp/static/images/task_images/dig.jpg"",""time"":0.7999999523162842},{""stimulus"":""run_exp/static/images/task_images/land.jpg"",""time"":684.1999999284744},{""stimulus"":""run_exp/static/images/task_images/dig.jpg"",""time"":1338.6999999284744}]",[],,,,,,,,,,,,,,,
harvest_prac,35,275970,0.0-13.0-1.0,"""event"",""trial"",""time""
""fullscreenenter"",""1"",""10650""
","
","
","""event"",""trial"",""time""
""fullscreenenter"",""1"",""10650""
","
",,null,run_exp/static/images/task_images/barrel_text.jpg,null,,,,,,,,,,,,,,,,,,,,,,,,
decision_prac,36,278978,0.0-13.0-2.0,"""event"",""trial"",""time""
""fullscreenenter"",""1"",""10650""
","
","
","""event"",""trial"",""time""
""fullscreenenter"",""1"",""10650""
","
",,null,run_exp/static/images/task_images/land.jpg,null,,,,,,,,,,,3,,,,,,,,,,,,,
time_out,37,280991,0.0-14.0-0.0,"""event"",""trial"",""time""
""fullscreenenter"",""1"",""10650""
","
","
","""event"",""trial"",""time""
""fullscreenenter"",""1"",""10650""
","
",,null,run_exp/static/images/task_images/time_out.jpg,null,,,,,,,,,,,,,,,,,,,,,,,,
decision_prac,38,281479,0.0-14.0-1.0,"""event"",""trial"",""time""
""fullscreenenter"",""1"",""10650""
","
","
","""event"",""trial"",""time""
""fullscreenenter"",""1"",""10650""
","
",,484.7,run_exp/static/images/task_images/land.jpg,65,,,,,,,,,,,4,,,,,,,,,,,,,
dig_prac,39,283500,0.0-15.0-0.0,"""event"",""trial"",""time""
""fullscreenenter"",""1"",""10650""
","
","
","""event"",""trial"",""time""
""fullscreenenter"",""1"",""10650""
","
",,,,,,,,,,,,"[{""stimulus"":""run_exp/static/images/task_images/dig.jpg"",""time"":0.6999999284744263},{""stimulus"":""run_exp/static/images/task_images/land.jpg"",""time"":672.1999999284744},{""stimulus"":""run_exp/static/images/task_images/dig.jpg"",""time"":1342}]",[],,,,,,,,,,,,,,,
harvest_prac,40,284511,0.0-15.0-1.0,"""event"",""trial"",""time""
""fullscreenenter"",""1"",""10650""
","
","
","""event"",""trial"",""time""
""fullscreenenter"",""1"",""10650""
","
",,null,run_exp/static/images/task_images/barrel_text.jpg,null,,,,,,,,,,,,,,,,,,,,,,,,
decision_prac,41,284864,0.0-15.0-2.0,"""event"",""trial"",""time""
""fullscreenenter"",""1"",""10650""
","
","
","""event"",""trial"",""time""
""fullscreenenter"",""1"",""10650""
","
",,350.3000001,run_exp/static/images/task_images/land.jpg,65,,,,,,,,,,,,1,,,,,,,,,,,,
quiz_instruc,42,299583,0.0-16.0-0.0,"""event"",""trial"",""time""
""fullscreenenter"",""1"",""10650""
","
","
","""event"",""trial"",""time""
""fullscreenenter"",""1"",""10650""
","
",,14707.9,run_exp/static/audio/clip_10_quiz.m4a,,,,,,,0,,,,,,,,,,,,,,,,,,
instruc_repeat,43,342376,0.0-16.0-1.0,"""event"",""trial"",""time""
""fullscreenenter"",""1"",""10650""
","
","
","""event"",""trial"",""time""
""fullscreenenter"",""1"",""10650""
","
",,null,"<p> Are you ready to play a practice game? </p> <p>In this practice game, you'll be digging up barrels of gems. But, in the real game, you'll be digging up the gems themselves. </p>",null,"<p>In this game, your goal is to collect as many gems as you can. That’s how you will win bonus money. </p> <p>The entire game will last 20 minutes no matter how many gems you collect or how many planets you visit. </p><p>To stay on a planet and dig again, press the letter A on your keyboard. To leave for a new planet, press the letter L.</p><p>The more you dig on a planet, the fewer gems you’ll get with each dig which is why you might consider leaving for a new planet. </p><p>When you arrive at a new planet, you’ll be greeted by an alien. What the alien looks like does not tell you anything about how much treasure is on the planet. </p>",,,,,,,,,,,,,,,,,,,,,,,
instruc_repeat_continue,44,346277,0.0-16.0-2.0,"""event"",""trial"",""time""
""fullscreenenter"",""1"",""10650""
","
","
","""event"",""trial"",""time""
""fullscreenenter"",""1"",""10650""
","
",,3893.1,"<p> Are you ready to play a practice game? </p> <p>In this practice game, you'll be digging up barrels of gems. But, in the real game, you'll be digging up the gems themselves. </p>",,,,,,,0,,,,,,,,,,,,,,,,,,
quiz_q_1_ask,45,354983,0.0-16.0-3.0,"""event"",""trial"",""time""
""fullscreenenter"",""1"",""10650""
","
","
","""event"",""trial"",""time""
""fullscreenenter"",""1"",""10650""
","
",,8703.2,run_exp/static/audio/clip_11_q1_ask.m4a,,,,,,,2,,,,,,,,,,,,,,,,,,
quiz_q_1_fb_correct,46,358874,0.0-17.0-0.0,"""event"",""trial"",""time""
""fullscreenenter"",""1"",""10650""
","
","
","""event"",""trial"",""time""
""fullscreenenter"",""1"",""10650""
","
",,null,run_exp/static/audio/clip_12_q1_correct.m4a,null,<p>That’s correct. You win extra money by collecting more gems.</p>,,,,,,,,,,,,,,,,,,,,,,,
quiz_q_2_ask,47,370534,0.0-17.0-1.0,"""event"",""trial"",""time""
""fullscreenenter"",""1"",""10650""
","
","
","""event"",""trial"",""time""
""fullscreenenter"",""1"",""10650""
","
",,11656.8,run_exp/static/audio/clip_14_q2_ask.m4a,,,,,,,2,,,,,,,,,,,,,,,,,,
quiz_q_2_fb_incorrect,48,374654,0.0-18.0-0.0,"""event"",""trial"",""time""
""fullscreenenter"",""1"",""10650""
","
","
","""event"",""trial"",""time""
""fullscreenenter"",""1"",""10650""
","
",,null,run_exp/static/audio/clip_16_q2_incorrect.m4a,null,<p>That’s incorrect. The experiment is 20 minutes no matter what.</p>,,,,,,,,,,,,,,,,,,,,,,,
quiz_q_3_ask,49,387965,0.0-18.0-1.0,"""event"",""trial"",""time""
""fullscreenenter"",""1"",""10650""
","
","
","""event"",""trial"",""time""
""fullscreenenter"",""1"",""10650""
","
",,13307.2,run_exp/static/audio/clip_17_q3_ask.m4a,,,,,,,1,,,,,,,,,,,,,,,,,,
quiz_q_3_fb_correct,50,391995,0.0-19.0-0.0,"""event"",""trial"",""time""
""fullscreenenter"",""1"",""10650""
","
","
","""event"",""trial"",""time""
""fullscreenenter"",""1"",""10650""
","
",,null,run_exp/static/audio/clip_18_q3_correct.m4a,null,<p> That’s correct. You press the letter L to travel to a new planet.</p>,,,,,,,,,,,,,,,,,,,,,,,
quiz_q_4_ask,51,400238,0.0-19.0-1.0,"""event"",""trial"",""time""
""fullscreenenter"",""1"",""10650""
","
","
","""event"",""trial"",""time""
""fullscreenenter"",""1"",""10650""
","
",,8239.3,run_exp/static/audio/clip_20_q4_ask.m4a,,,,,,,0,,,,,,,,,,,,,,,,,,
quiz_q_4_fb_correct,52,405594,0.0-20.0-0.0,"""event"",""trial"",""time""
""fullscreenenter"",""1"",""10650""
","
","
","""event"",""trial"",""time""
""fullscreenenter"",""1"",""10650""
","
",,null,run_exp/static/audio/clip_21_q4_correct.m4a,null,<p> That’s correct. The more you dig on a planet the fewer gems you’ll get with each dig. </p>,,,,,,,,,,,,,,,,,,,,,,,
quiz_q_5_ask,53,412110,0.0-20.0-1.0,"""event"",""trial"",""time""
""fullscreenenter"",""1"",""10650""
","
","
","""event"",""trial"",""time""
""fullscreenenter"",""1"",""10650""
","
",,6508,run_exp/static/audio/clip_23_q5_ask.m4a,,,,,,,1,,,,,,,,,,,,,,,,,,
quiz_q_5_fb_correct,54,417157,0.0-21.0-0.0,"""event"",""trial"",""time""
""fullscreenenter"",""1"",""10650""
","
","
","""event"",""trial"",""time""
""fullscreenenter"",""1"",""10650""
","
",,null,run_exp/static/audio/clip_24_q5_correct.m4a,null,<p> That’s correct. The alien tells you nothing about how much treasure is on the planet.</p>,,,,,,,,,,,,,,,,,,,,,,,
quiz_incorrect,55,422735,0.0-22.0-0.0,"""event"",""trial"",""time""
""fullscreenenter"",""1"",""10650""
","
","
","""event"",""trial"",""time""
""fullscreenenter"",""1"",""10650""
","
",,null,run_exp/static/audio/clip_27_incorrect_quiz.m4a,null,,,,,,,,,,,,,,,,,,,,,,,,
quiz_incorrect_continue,56,425758,0.0-22.0-1.0,"""event"",""trial"",""time""
""fullscreenenter"",""1"",""10650""
","
","
","""event"",""trial"",""time""
""fullscreenenter"",""1"",""10650""
","
",,3019.5,"<p>Oops, you missed some questions.</p><p>Now that you’ve heard the correct answers. Try the quiz again!</p>",,,,,,,0,,,,,,,,,,,,,,,,,,
quiz_q_1_ask,57,431544,0.0-22.0-2.0,"""event"",""trial"",""time""
""fullscreenenter"",""1"",""10650""
","
","
","""event"",""trial"",""time""
""fullscreenenter"",""1"",""10650""
","
",,5783.6,run_exp/static/audio/clip_11_q1_ask.m4a,,,,,,,2,,,,,,,,,,,,,,,,,,
quiz_q_1_fb_correct,58,435436,0.0-23.0-0.0,"""event"",""trial"",""time""
""fullscreenenter"",""1"",""10650""
","
","
","""event"",""trial"",""time""
""fullscreenenter"",""1"",""10650""
","
",,null,run_exp/static/audio/clip_12_q1_correct.m4a,null,<p>That’s correct. You win extra money by collecting more gems.</p>,,,,,,,,,,,,,,,,,,,,,,,
quiz_q_2_ask,59,448279,0.0-23.0-1.0,"""event"",""trial"",""time""
""fullscreenenter"",""1"",""10650""
","
","
","""event"",""trial"",""time""
""fullscreenenter"",""1"",""10650""
","
",,12839.1,run_exp/static/audio/clip_14_q2_ask.m4a,,,,,,,1,,,,,,,,,,,,,,,,,,
quiz_q_2_fb_correct,60,452315,0.0-24.0-0.0,"""event"",""trial"",""time""
""fullscreenenter"",""1"",""10650""
","
","
","""event"",""trial"",""time""
""fullscreenenter"",""1"",""10650""
","
",,null,run_exp/static/audio/clip_15_q2_correct.m4a,null,<p>That’s correct. The experiment is 20 minutes no matter what.</p>,,,,,,,,,,,,,,,,,,,,,,,
quiz_q_3_ask,61,457224,0.0-24.0-1.0,"""event"",""trial"",""time""
""fullscreenenter"",""1"",""10650""
","
","
","""event"",""trial"",""time""
""fullscreenenter"",""1"",""10650""
","
",,4905,run_exp/static/audio/clip_17_q3_ask.m4a,,,,,,,1,,,,,,,,,,,,,,,,,,
quiz_q_3_fb_correct,62,461255,0.0-25.0-0.0,"""event"",""trial"",""time""
""fullscreenenter"",""1"",""10650""
","
","
","""event"",""trial"",""time""
""fullscreenenter"",""1"",""10650""
","
",,null,run_exp/static/audio/clip_18_q3_correct.m4a,null,<p> That’s correct. You press the letter L to travel to a new planet.</p>,,,,,,,,,,,,,,,,,,,,,,,
quiz_q_4_ask,63,468016,0.0-25.0-1.0,"""event"",""trial"",""time""
""fullscreenenter"",""1"",""10650""
","
","
","""event"",""trial"",""time""
""fullscreenenter"",""1"",""10650""
","
",,6758,run_exp/static/audio/clip_20_q4_ask.m4a,,,,,,,0,,,,,,,,,,,,,,,,,,
quiz_q_4_fb_correct,64,473373,0.0-26.0-0.0,"""event"",""trial"",""time""
""fullscreenenter"",""1"",""10650""
","
","
","""event"",""trial"",""time""
""fullscreenenter"",""1"",""10650""
","
",,null,run_exp/static/audio/clip_21_q4_correct.m4a,null,<p> That’s correct. The more you dig on a planet the fewer gems you’ll get with each dig. </p>,,,,,,,,,,,,,,,,,,,,,,,
quiz_q_5_ask,65,476437,0.0-26.0-1.0,"""event"",""trial"",""time""
""fullscreenenter"",""1"",""10650""
","
","
","""event"",""trial"",""time""
""fullscreenenter"",""1"",""10650""
","
",,3056.1,run_exp/static/audio/clip_23_q5_ask.m4a,,,,,,,1,,,,,,,,,,,,,,,,,,
quiz_q_5_fb_correct,66,481473,0.0-27.0-0.0,"""event"",""trial"",""time""
""fullscreenenter"",""1"",""10650""
","
","
","""event"",""trial"",""time""
""fullscreenenter"",""1"",""10650""
","
",,null,run_exp/static/audio/clip_24_q5_correct.m4a,null,<p> That’s correct. The alien tells you nothing about how much treasure is on the planet.</p>,,,,,,,,,,,,,,,,,,,,,,,
quiz_correct,67,484973,0.0-28.0-0.0,"""event"",""trial"",""time""
""fullscreenenter"",""1"",""10650""
","
","
","""event"",""trial"",""time""
""fullscreenenter"",""1"",""10650""
","
",,null,run_exp/static/audio/clip_26_correct_quiz.m4a,null,,,,,,,,,,,,,,,,,,,,,,,,
quiz_correct_continue,68,489909,0.0-28.0-1.0,"""event"",""trial"",""time""
""fullscreenenter"",""1"",""10650""
","
","
","""event"",""trial"",""time""
""fullscreenenter"",""1"",""10650""
","
",,4932.5,<p>Good job! You're now ready to move on to the real game!</p>,,,,,,,0,,,,,,,,,,,,,,,,,,
audio-keyboard-response,69,500053,0.0-28.0-2.0,"""event"",""trial"",""time""
""fullscreenenter"",""1"",""10650""
","
","
","""event"",""trial"",""time""
""fullscreenenter"",""1"",""10650""
","
",,null,run_exp/static/audio/clip_28_real_game.m4a,null,,,,,,,,,,,,,,,,,,,,,,,,
instruc_begin_exp_contine,70,502516,0.0-28.0-3.0,"""event"",""trial"",""time""
""fullscreenenter"",""1"",""10650""
","
","
","""event"",""trial"",""time""
""fullscreenenter"",""1"",""10650""
","
",,2453.4,"<p>Now that you know how  to dig for space treasure and travel to new planets,you can start exploring! </p><p>Do you want to go over the instructions again or get started with the real game?</p>",,,,,,,1,,,,,,1,,,,,,,,,,,,
alien_welcome,71,507536,0.0-29.0-0.0,"""event"",""trial"",""time""
""fullscreenenter"",""1"",""10650""
","
","
","""event"",""trial"",""time""
""fullscreenenter"",""1"",""10650""
","
",,null,run_exp/static/images/task_images/aliens/old_aliens/planet/alien_planet-68.jpg,null,,,,,,,,,,,,,68,"68,22,79,3,36,44,2,19,5,59,52,57,50,38,41,32,18,53,9,23,54,28,45,8,14,21,39,25,7,17,34,74,75,76,10,15,40",,,,,,,,,,
land,72,508040,0.0-29.0-1.0,"""event"",""trial"",""time""
""fullscreenenter"",""1"",""10650""
","
","
","""event"",""trial"",""time""
""fullscreenenter"",""1"",""10650""
","
",,null,run_exp/static/images/task_images/land.jpg,null,,,,,,,103,,,1,,,,,,,,,,,,,,
dig,73,510051,0.0-29.0-2.0,"""event"",""trial"",""time""
""fullscreenenter"",""1"",""10650""
","
","
","""event"",""trial"",""time""
""fullscreenenter"",""1"",""10650""
","
",,,,,,,,,,,,"[{""stimulus"":""run_exp/static/images/task_images/dig.jpg"",""time"":0.7000000476837158},{""stimulus"":""run_exp/static/images/task_images/land.jpg"",""time"":676.7000000476837},{""stimulus"":""run_exp/static/images/task_images/dig.jpg"",""time"":1337.8999999761581}]",[],1,,,,,,,,,,,,,,
harvest,74,511060,0.0-29.0-3.0,"""event"",""trial"",""time""
""fullscreenenter"",""1"",""10650""
","
","
","""event"",""trial"",""time""
""fullscreenenter"",""1"",""10650""
","
",,null,run_exp/static/images/task_images/gems/103.jpg,null,,,,,,,18,,,1,,,,,103,0.176963612,0.174757282,,,,,,,
decision,75,512112,0.0-29.0-4.0,"""event"",""trial"",""time""
""fullscreenenter"",""1"",""10650""
","
","
","""event"",""trial"",""time""
""fullscreenenter"",""1"",""10650""
","
",,1047.5,run_exp/static/images/task_images/land.jpg,65,,,,,,,18,,,1,,,,,,,,9592,1,0,FALSE,,,
dig,76,514080,0.0-30.0-0.0,"""event"",""trial"",""time""
""fullscreenenter"",""1"",""10650""
","
","
","""event"",""trial"",""time""
""fullscreenenter"",""1"",""10650""
","
",,,,,,,,,,,,"[{""stimulus"":""run_exp/static/images/task_images/dig.jpg"",""time"":0.7999999523162842},{""stimulus"":""run_exp/static/images/task_images/land.jpg"",""time"":665.6000000238419},{""stimulus"":""run_exp/static/images/task_images/dig.jpg"",""time"":1307.3999999761581}]",[],1,,,,,,,,,,,,,,
harvest,77,515091,0.0-30.0-1.0,"""event"",""trial"",""time""
""fullscreenenter"",""1"",""10650""
","
","
","""event"",""trial"",""time""
""fullscreenenter"",""1"",""10650""
","
",,null,run_exp/static/images/task_images/gems/18.jpg,null,,,,,,,3,,,1,,,,,18,0.189293708,0.166666667,,,,,,,
decision,78,516729,0.0-30.0-2.0,"""event"",""trial"",""time""
""fullscreenenter"",""1"",""10650""
","
","
","""event"",""trial"",""time""
""fullscreenenter"",""1"",""10650""
","
",,1635.6,run_exp/static/images/task_images/land.jpg,65,,,,,,,3,,,1,,,,,,,,14208,1,1,FALSE,,,
dig,79,518108,0.0-31.0-0.0,"""event"",""trial"",""time""
""fullscreenenter"",""1"",""10650""
","
","
","""event"",""trial"",""time""
""fullscreenenter"",""1"",""10650""
","
",,,,,,,,,,,,"[{""stimulus"":""run_exp/static/images/task_images/dig.jpg"",""time"":0.6999999284744263},{""stimulus"":""run_exp/static/images/task_images/land.jpg"",""time"":461},{""stimulus"":""run_exp/static/images/task_images/dig.jpg"",""time"":924.2999999523163}]",[],1,,,,,,,,,,,,,,
harvest,80,519120,0.0-31.0-1.0,"""event"",""trial"",""time""
""fullscreenenter"",""1"",""10650""
","
","
","""event"",""trial"",""time""
""fullscreenenter"",""1"",""10650""
","
",,null,run_exp/static/images/task_images/gems/3.jpg,null,,,,,,,1,,,1,,,,,3,0.28556835,0.333333333,,,,,,,
decision,81,519873,0.0-31.0-2.0,"""event"",""trial"",""time""
""fullscreenenter"",""1"",""10650""
","
","
","""event"",""trial"",""time""
""fullscreenenter"",""1"",""10650""
","
",,749.8,run_exp/static/images/task_images/land.jpg,65,,,,,,,1,,,1,,,,,,,,17352,1,2,FALSE,,,
dig,82,522138,0.0-32.0-0.0,"""event"",""trial"",""time""
""fullscreenenter"",""1"",""10650""
","
","
","""event"",""trial"",""time""
""fullscreenenter"",""1"",""10650""
","
",,,,,,,,,,,,"[{""stimulus"":""run_exp/static/images/task_images/dig.jpg"",""time"":0.6000000238418579},{""stimulus"":""run_exp/static/images/task_images/land.jpg"",""time"":757.3999999761581},{""stimulus"":""run_exp/static/images/task_images/dig.jpg"",""time"":1507.7999999523163}]",[],1,,,,,,,,,,,,,,
harvest,83,523148,0.0-32.0-1.0,"""event"",""trial"",""time""
""fullscreenenter"",""1"",""10650""
","
","
","""event"",""trial"",""time""
""fullscreenenter"",""1"",""10650""
","
",,null,run_exp/static/images/task_images/gems/1.jpg,null,,,,,,,0,,,1,,,,,1,0.172856403,0,,,,,,,
decision,84,525071,0.0-32.0-2.0,"""event"",""trial"",""time""
""fullscreenenter"",""1"",""10650""
","
","
","""event"",""trial"",""time""
""fullscreenenter"",""1"",""10650""
","
",,1918.5,run_exp/static/images/task_images/land.jpg,76,,,,,,,0,,,1,,,,,,,,22550,1,3,TRUE,,,
travel,85,533157,0.0-33.0-0.0,"""event"",""trial"",""time""
""fullscreenenter"",""1"",""10650""
","
","
","""event"",""trial"",""time""
""fullscreenenter"",""1"",""10650""
","
",,,,,,,,,,,,"[{""stimulus"":""run_exp/static/images/task_images/rocket-01.jpg"",""time"":0.7000000476837158},{""stimulus"":""run_exp/static/images/task_images/rocket-02.jpg"",""time"":901.6000000238419},{""stimulus"":""run_exp/static/images/task_images/rocket-03.jpg"",""time"":1800.2000000476837},{""stimulus"":""run_exp/static/images/task_images/rocket-04.jpg"",""time"":2699.399999976158},{""stimulus"":""run_exp/static/images/task_images/rocket-05.jpg"",""time"":3600.100000023842},{""stimulus"":""run_exp/static/images/task_images/rocket-06.jpg"",""time"":4493.700000047684},{""stimulus"":""run_exp/static/images/task_images/rocket-07.jpg"",""time"":5389.899999976158},{""stimulus"":""run_exp/static/images/task_images/rocket-08.jpg"",""time"":6288.100000023842},{""stimulus"":""run_exp/static/images/task_images/rocket-09.jpg"",""time"":7180.100000023842}]",[],1,,,,,,,,,,,,,,
alien_welcome,86,538171,0.0-33.0-1.0,"""event"",""trial"",""time""
""fullscreenenter"",""1"",""10650""
","
","
","""event"",""trial"",""time""
""fullscreenenter"",""1"",""10650""
","
",,null,run_exp/static/images/task_images/aliens/old_aliens/planet/alien_planet-22.jpg,null,,,,,,,,,,,,,22,"68,22,79,3,36,44,2,19,5,59,52,57,50,38,41,32,18,53,9,23,54,28,45,8,14,21,39,25,7,17,34,74,75,76,10,15,40",,,,,,,,,,
land,87,538683,0.0-33.0-2.0,"""event"",""trial"",""time""
""fullscreenenter"",""1"",""10650""
","
","
","""event"",""trial"",""time""
""fullscreenenter"",""1"",""10650""
","
",,null,run_exp/static/images/task_images/land.jpg,null,,,,,,,100,,,2,,,,,,,,,,,,,,
dig,88,540692,0.0-33.0-3.0,"""event"",""trial"",""time""
""fullscreenenter"",""1"",""10650""
","
","
","""event"",""trial"",""time""
""fullscreenenter"",""1"",""10650""
","
",,,,,,,,,,,,"[{""stimulus"":""run_exp/static/images/task_images/dig.jpg"",""time"":0.7000000476837158},{""stimulus"":""run_exp/static/images/task_images/land.jpg"",""time"":674.7000000476837},{""stimulus"":""run_exp/static/images/task_images/dig.jpg"",""time"":1346.6000000238419}]",[],2,,,,,,,,,,,,,,
harvest,89,541710,0.0-33.0-4.0,"""event"",""trial"",""time""
""fullscreenenter"",""1"",""10650""
","
","
","""event"",""trial"",""time""
""fullscreenenter"",""1"",""10650""
","
",,null,run_exp/static/images/task_images/gems/100.jpg,null,,,,,,,23,,,2,,,,,100,0.22565497,0.23,,,,,,,
decision,90,542212,0.0-33.0-5.0,"""event"",""trial"",""time""
""fullscreenenter"",""1"",""10650""
","
","
","""event"",""trial"",""time""
""fullscreenenter"",""1"",""10650""
","
",,500,run_exp/static/images/task_images/land.jpg,65,,,,,,,23,,,2,,,,,,,,39691,1,0,FALSE,,,
dig,91,544725,0.0-34.0-0.0,"""event"",""trial"",""time""
""fullscreenenter"",""1"",""10650""
","
","
","""event"",""trial"",""time""
""fullscreenenter"",""1"",""10650""
","
",,,,,,,,,,,,"[{""stimulus"":""run_exp/static/images/task_images/dig.jpg"",""time"":0.5},{""stimulus"":""run_exp/static/images/task_images/land.jpg"",""time"":839.8999999761581},{""stimulus"":""run_exp/static/images/task_images/dig.jpg"",""time"":1670.2000000476837}]",[],2,,,,,,,,,,,,,,
harvest,92,545732,0.0-34.0-1.0,"""event"",""trial"",""time""
""fullscreenenter"",""1"",""10650""
","
","
","""event"",""trial"",""time""
""fullscreenenter"",""1"",""10650""
","
",,null,run_exp/static/images/task_images/gems/23.jpg,null,,,,,,,7,,,2,,,,,23,0.292873859,0.304347826,,,,,,,
decision,93,546210,0.0-34.0-2.0,"""event"",""trial"",""time""
""fullscreenenter"",""1"",""10650""
","
","
","""event"",""trial"",""time""
""fullscreenenter"",""1"",""10650""
","
",,474.6,run_exp/static/images/task_images/land.jpg,65,,,,,,,7,,,2,,,,,,,,43690,1,1,FALSE,,,
dig,94,548750,0.0-35.0-0.0,"""event"",""trial"",""time""
""fullscreenenter"",""1"",""10650""
","
","
","""event"",""trial"",""time""
""fullscreenenter"",""1"",""10650""
","
",,,,,,,,,,,,"[{""stimulus"":""run_exp/static/images/task_images/dig.jpg"",""time"":0.7000000476837158},{""stimulus"":""run_exp/static/images/task_images/land.jpg"",""time"":852.3000000715256},{""stimulus"":""run_exp/static/images/task_images/dig.jpg"",""time"":1691.7000000476837}]",[],2,,,,,,,,,,,,,,
harvest,95,549768,0.0-35.0-1.0,"""event"",""trial"",""time""
""fullscreenenter"",""1"",""10650""
","
","
","""event"",""trial"",""time""
""fullscreenenter"",""1"",""10650""
","
",,null,run_exp/static/images/task_images/gems/7.jpg,null,,,,,,,1,,,2,,,,,7,0.145023879,0.142857143,,,,,,,
decision,96,550216,0.0-35.0-2.0,"""event"",""trial"",""time""
""fullscreenenter"",""1"",""10650""
","
","
","""event"",""trial"",""time""
""fullscreenenter"",""1"",""10650""
","
",,445.4,run_exp/static/images/task_images/land.jpg,76,,,,,,,1,,,2,,,,,,,,47695,1,2,TRUE,,,
travel,97,559791,0.0-36.0-0.0,"""event"",""trial"",""time""
""fullscreenenter"",""1"",""10650""
","
","
","""event"",""trial"",""time""
""fullscreenenter"",""1"",""10650""
","
",,,,,,,,,,,,"[{""stimulus"":""run_exp/static/images/task_images/rocket-01.jpg"",""time"":0.7000000476837158},{""stimulus"":""run_exp/static/images/task_images/rocket-02.jpg"",""time"":1066.7999999523163},{""stimulus"":""run_exp/static/images/task_images/rocket-03.jpg"",""time"":2132.7999999523163},{""stimulus"":""run_exp/static/images/task_images/rocket-04.jpg"",""time"":3198.5},{""stimulus"":""run_exp/static/images/task_images/rocket-05.jpg"",""time"":4255},{""stimulus"":""run_exp/static/images/task_images/rocket-06.jpg"",""time"":5316.100000023842},{""stimulus"":""run_exp/static/images/task_images/rocket-07.jpg"",""time"":6375.899999976158},{""stimulus"":""run_exp/static/images/task_images/rocket-08.jpg"",""time"":7444.299999952316},{""stimulus"":""run_exp/static/images/task_images/rocket-09.jpg"",""time"":8495.899999976158}]",[],2,,,,,,,,,,,,,,
alien_welcome,98,564801,0.0-36.0-1.0,"""event"",""trial"",""time""
""fullscreenenter"",""1"",""10650""
","
","
","""event"",""trial"",""time""
""fullscreenenter"",""1"",""10650""
","
",,null,run_exp/static/images/task_images/aliens/old_aliens/planet/alien_planet-79.jpg,null,,,,,,,,,,,,,79,"68,22,79,3,36,44,2,19,5,59,52,57,50,38,41,32,18,53,9,23,54,28,45,8,14,21,39,25,7,17,34,74,75,76,10,15,40",,,,,,,,,,
land,99,565309,0.0-36.0-2.0,"""event"",""trial"",""time""
""fullscreenenter"",""1"",""10650""
","
","
","""event"",""trial"",""time""
""fullscreenenter"",""1"",""10650""
","
",,null,run_exp/static/images/task_images/land.jpg,null,,,,,,,97,,,3,,,,,,,,,,,,,,
dig,100,567322,0.0-36.0-3.0,"""event"",""trial"",""time""
""fullscreenenter"",""1"",""10650""
","
","
","""event"",""trial"",""time""
""fullscreenenter"",""1"",""10650""
","
",,,,,,,,,,,,"[{""stimulus"":""run_exp/static/images/task_images/dig.jpg"",""time"":0.6999999284744263},{""stimulus"":""run_exp/static/images/task_images/land.jpg"",""time"":678.6999999284744},{""stimulus"":""run_exp/static/images/task_images/dig.jpg"",""time"":1346}]",[],3,,,,,,,,,,,,,,
harvest,101,568331,0.0-36.0-4.0,"""event"",""trial"",""time""
""fullscreenenter"",""1"",""10650""
","
","
","""event"",""trial"",""time""
""fullscreenenter"",""1"",""10650""
","
",,null,run_exp/static/images/task_images/gems/97.jpg,null,,,,,,,47,,,3,,,,,97,0.487036608,0.484536082,,,,,,,
decision,102,568849,0.0-36.0-5.0,"""event"",""trial"",""time""
""fullscreenenter"",""1"",""10650""
","
","
","""event"",""trial"",""time""
""fullscreenenter"",""1"",""10650""
","
",,514.6,run_exp/static/images/task_images/land.jpg,65,,,,,,,47,,,3,,,,,,,,66328,1,0,FALSE,,,
dig,103,571354,0.0-37.0-0.0,"""event"",""trial"",""time""
""fullscreenenter"",""1"",""10650""
","
","
","""event"",""trial"",""time""
""fullscreenenter"",""1"",""10650""
","
",,,,,,,,,,,,"[{""stimulus"":""run_exp/static/images/task_images/dig.jpg"",""time"":0.6999999284744263},{""stimulus"":""run_exp/static/images/task_images/land.jpg"",""time"":844.7999999523163},{""stimulus"":""run_exp/static/images/task_images/dig.jpg"",""time"":1670.3999999761581}]",[],3,,,,,,,,,,,,,,
harvest,104,572361,0.0-37.0-1.0,"""event"",""trial"",""time""
""fullscreenenter"",""1"",""10650""
","
","
","""event"",""trial"",""time""
""fullscreenenter"",""1"",""10650""
","
",,null,run_exp/static/images/task_images/gems/47.jpg,null,,,,,,,20,,,3,,,,,47,0.418257178,0.425531915,,,,,,,
decision,105,575369,0.0-37.0-2.0,"""event"",""trial"",""time""
""fullscreenenter"",""1"",""10650""
","
","
","""event"",""trial"",""time""
""fullscreenenter"",""1"",""10650""
","
",,null,run_exp/static/images/task_images/land.jpg,null,,,,,,,20,,,3,,,,,,,,72848,1,1,FALSE,,,
time_out,106,577382,0.0-38.0-0.0,"""event"",""trial"",""time""
""fullscreenenter"",""1"",""10650""
","
","
","""event"",""trial"",""time""
""fullscreenenter"",""1"",""10650""
","
",,null,run_exp/static/images/task_images/time_out.jpg,null,,,,,,,20,,,,,,,,,,,,,,,,,
decision,107,578537,0.0-38.0-1.0,"""event"",""trial"",""time""
""fullscreenenter"",""1"",""10650""
","
","
","""event"",""trial"",""time""
""fullscreenenter"",""1"",""10650""
","
",,1152.3,run_exp/static/images/task_images/land.jpg,76,,,,,,,20,,,3,,,,,,,,76017,1,1,TRUE,,,
travel,108,587400,0.0-39.0-0.0,"""event"",""trial"",""time""
""fullscreenenter"",""1"",""10650""
","
","
","""event"",""trial"",""time""
""fullscreenenter"",""1"",""10650""
","
",,,,,,,,,,,,"[{""stimulus"":""run_exp/static/images/task_images/rocket-01.jpg"",""time"":0.6000000238418579},{""stimulus"":""run_exp/static/images/task_images/rocket-02.jpg"",""time"":996.2000000476837},{""stimulus"":""run_exp/static/images/task_images/rocket-03.jpg"",""time"":1984.6000000238419},{""stimulus"":""run_exp/static/images/task_images/rocket-04.jpg"",""time"":2955.8000000715256},{""stimulus"":""run_exp/static/images/task_images/rocket-05.jpg"",""time"":3943.5},{""stimulus"":""run_exp/static/images/task_images/rocket-06.jpg"",""time"":4925.600000023842},{""stimulus"":""run_exp/static/images/task_images/rocket-07.jpg"",""time"":5904},{""stimulus"":""run_exp/static/images/task_images/rocket-08.jpg"",""time"":6884},{""stimulus"":""run_exp/static/images/task_images/rocket-09.jpg"",""time"":7875.600000023842}]",[],3,,,,,,,,,,,,,,
alien_welcome,109,592413,0.0-39.0-1.0,"""event"",""trial"",""time""
""fullscreenenter"",""1"",""10650""
","
","
","""event"",""trial"",""time""
""fullscreenenter"",""1"",""10650""
","
",,null,run_exp/static/images/task_images/aliens/old_aliens/planet/alien_planet-3.jpg,null,,,,,,,,,,,,,3,"68,22,79,3,36,44,2,19,5,59,52,57,50,38,41,32,18,53,9,23,54,28,45,8,14,21,39,25,7,17,34,74,75,76,10,15,40",,,,,,,,,,
land,110,592926,0.0-39.0-2.0,"""event"",""trial"",""time""
""fullscreenenter"",""1"",""10650""
","
","
","""event"",""trial"",""time""
""fullscreenenter"",""1"",""10650""
","
",,null,run_exp/static/images/task_images/land.jpg,null,,,,,,,94,,,4,,,,,,,,,,,,,,
dig,111,594943,0.0-39.0-3.0,"""event"",""trial"",""time""
""fullscreenenter"",""1"",""10650""
","
","
","""event"",""trial"",""time""
""fullscreenenter"",""1"",""10650""
","
",,,,,,,,,,,,"[{""stimulus"":""run_exp/static/images/task_images/dig.jpg"",""time"":0.7000000476837158},{""stimulus"":""run_exp/static/images/task_images/land.jpg"",""time"":671.5},{""stimulus"":""run_exp/static/images/task_images/dig.jpg"",""time"":1343.8000000715256}]",[],4,,,,,,,,,,,,,,
harvest,112,595953,0.0-39.0-4.0,"""event"",""trial"",""time""
""fullscreenenter"",""1"",""10650""
","
","
","""event"",""trial"",""time""
""fullscreenenter"",""1"",""10650""
","
",,null,run_exp/static/images/task_images/gems/94.jpg,null,,,,,,,44,,,4,,,,,94,0.472702938,0.468085106,,,,,,,
decision,113,596475,0.0-39.0-5.0,"""event"",""trial"",""time""
""fullscreenenter"",""1"",""10650""
","
","
","""event"",""trial"",""time""
""fullscreenenter"",""1"",""10650""
","
",,518.1,run_exp/static/images/task_images/land.jpg,65,,,,,,,44,,,4,,,,,,,,93954,1,0,FALSE,,,
dig,114,598973,0.0-40.0-0.0,"""event"",""trial"",""time""
""fullscreenenter"",""1"",""10650""
","
","
","""event"",""trial"",""time""
""fullscreenenter"",""1"",""10650""
","
",,,,,,,,,,,,"[{""stimulus"":""run_exp/static/images/task_images/dig.jpg"",""time"":0.6000000238418579},{""stimulus"":""run_exp/static/images/task_images/land.jpg"",""time"":838.1000000238419},{""stimulus"":""run_exp/static/images/task_images/dig.jpg"",""time"":1656.8000000715256}]",[],4,,,,,,,,,,,,,,
harvest,115,599981,0.0-40.0-1.0,"""event"",""trial"",""time""
""fullscreenenter"",""1"",""10650""
","
","
","""event"",""trial"",""time""
""fullscreenenter"",""1"",""10650""
","
",,null,run_exp/static/images/task_images/gems/44.jpg,null,,,,,,,20,,,4,,,,,44,0.461712144,0.454545455,,,,,,,
decision,116,600318,0.0-40.0-2.0,"""event"",""trial"",""time""
""fullscreenenter"",""1"",""10650""
","
","
","""event"",""trial"",""time""
""fullscreenenter"",""1"",""10650""
","
",,334.9000001,run_exp/static/images/task_images/land.jpg,65,,,,,,,20,,,4,,,,,,,,97797,1,1,FALSE,,,
dig,117,603002,0.0-41.0-0.0,"""event"",""trial"",""time""
""fullscreenenter"",""1"",""10650""
","
","
","""event"",""trial"",""time""
""fullscreenenter"",""1"",""10650""
","
",,,,,,,,,,,,"[{""stimulus"":""run_exp/static/images/task_images/dig.jpg"",""time"":0.5},{""stimulus"":""run_exp/static/images/task_images/land.jpg"",""time"":892.3000000715256},{""stimulus"":""run_exp/static/images/task_images/dig.jpg"",""time"":1783.7000000476837}]",[],4,,,,,,,,,,,,,,
harvest,118,604013,0.0-41.0-1.0,"""event"",""trial"",""time""
""fullscreenenter"",""1"",""10650""
","
","
","""event"",""trial"",""time""
""fullscreenenter"",""1"",""10650""
","
",,null,run_exp/static/images/task_images/gems/20.jpg,null,,,,,,,10,,,4,,,,,20,0.523594819,0.5,,,,,,,
decision,119,604459,0.0-41.0-2.0,"""event"",""trial"",""time""
""fullscreenenter"",""1"",""10650""
","
","
","""event"",""trial"",""time""
""fullscreenenter"",""1"",""10650""
","
",,444.6,run_exp/static/images/task_images/land.jpg,76,,,,,,,10,,,4,,,,,,,,101939,1,2,TRUE,,,
travel,120,614031,0.0-42.0-0.0,"""event"",""trial"",""time""
""fullscreenenter"",""1"",""10650""
","
","
","""event"",""trial"",""time""
""fullscreenenter"",""1"",""10650""
","
",,,,,,,,,,,,"[{""stimulus"":""run_exp/static/images/task_images/rocket-01.jpg"",""time"":0.5},{""stimulus"":""run_exp/static/images/task_images/rocket-02.jpg"",""time"":1074.1000000238419},{""stimulus"":""run_exp/static/images/task_images/rocket-03.jpg"",""time"":2136.600000023842},{""stimulus"":""run_exp/static/images/task_images/rocket-04.jpg"",""time"":3201},{""stimulus"":""run_exp/static/images/task_images/rocket-05.jpg"",""time"":4253.799999952316},{""stimulus"":""run_exp/static/images/task_images/rocket-06.jpg"",""time"":5319.399999976158},{""stimulus"":""run_exp/static/images/task_images/rocket-07.jpg"",""time"":6369.899999976158},{""stimulus"":""run_exp/static/images/task_images/rocket-08.jpg"",""time"":7432},{""stimulus"":""run_exp/static/images/task_images/rocket-09.jpg"",""time"":8493.199999928474}]",[],4,,,,,,,,,,,,,,
alien_welcome,121,619041,0.0-42.0-1.0,"""event"",""trial"",""time""
""fullscreenenter"",""1"",""10650""
","
","
","""event"",""trial"",""time""
""fullscreenenter"",""1"",""10650""
","
",,null,run_exp/static/images/task_images/aliens/old_aliens/planet/alien_planet-36.jpg,null,,,,,,,,,,,,,36,"68,22,79,3,36,44,2,19,5,59,52,57,50,38,41,32,18,53,9,23,54,28,45,8,14,21,39,25,7,17,34,74,75,76,10,15,40",,,,,,,,,,
land,122,619552,0.0-42.0-2.0,"""event"",""trial"",""time""
""fullscreenenter"",""1"",""10650""
","
","
","""event"",""trial"",""time""
""fullscreenenter"",""1"",""10650""
","
",,null,run_exp/static/images/task_images/land.jpg,null,,,,,,,96,,,5,,,,,,,,,,,,,,
dig,123,621563,0.0-42.0-3.0,"""event"",""trial"",""time""
""fullscreenenter"",""1"",""10650""
","
","
","""event"",""trial"",""time""
""fullscreenenter"",""1"",""10650""
","
",,,,,,,,,,,,"[{""stimulus"":""run_exp/static/images/task_images/dig.jpg"",""time"":0.7000000476837158},{""stimulus"":""run_exp/static/images/task_images/land.jpg"",""time"":676.6000000238419},{""stimulus"":""run_exp/static/images/task_images/dig.jpg"",""time"":1345.7000000476837}]",[],5,,,,,,,,,,,,,,
harvest,124,622572,0.0-42.0-4.0,"""event"",""trial"",""time""
""fullscreenenter"",""1"",""10650""
","
","
","""event"",""trial"",""time""
""fullscreenenter"",""1"",""10650""
","
",,null,run_exp/static/images/task_images/gems/96.jpg,null,,,,,,,47,,,5,,,,,96,0.484724306,0.489583333,,,,,,,
decision,125,623629,0.0-42.0-5.0,"""event"",""trial"",""time""
""fullscreenenter"",""1"",""10650""
","
","
","""event"",""trial"",""time""
""fullscreenenter"",""1"",""10650""
","
",,1055.5,run_exp/static/images/task_images/land.jpg,65,,,,,,,47,,,5,,,,,,,,121109,1,0,FALSE,,,
dig,126,625592,0.0-43.0-0.0,"""event"",""trial"",""time""
""fullscreenenter"",""1"",""10650""
","
","
","""event"",""trial"",""time""
""fullscreenenter"",""1"",""10650""
","
",,,,,,,,,,,,"[{""stimulus"":""run_exp/static/images/task_images/dig.jpg"",""time"":0.6999999284744263},{""stimulus"":""run_exp/static/images/task_images/land.jpg"",""time"":652.2999999523163},{""stimulus"":""run_exp/static/images/task_images/dig.jpg"",""time"":1304.7999999523163}]",[],5,,,,,,,,,,,,,,
harvest,127,626613,0.0-43.0-1.0,"""event"",""trial"",""time""
""fullscreenenter"",""1"",""10650""
","
","
","""event"",""trial"",""time""
""fullscreenenter"",""1"",""10650""
","
",,null,run_exp/static/images/task_images/gems/47.jpg,null,,,,,,,22,,,5,,,,,47,0.465771708,0.468085106,,,,,,,
decision,128,627718,0.0-43.0-2.0,"""event"",""trial"",""time""
""fullscreenenter"",""1"",""10650""
","
","
","""event"",""trial"",""time""
""fullscreenenter"",""1"",""10650""
","
",,1102.5,run_exp/static/images/task_images/land.jpg,65,,,,,,,22,,,5,,,,,,,,125197,1,1,FALSE,,,
dig,129,629621,0.0-44.0-0.0,"""event"",""trial"",""time""
""fullscreenenter"",""1"",""10650""
","
","
","""event"",""trial"",""time""
""fullscreenenter"",""1"",""10650""
","
",,,,,,,,,,,,"[{""stimulus"":""run_exp/static/images/task_images/dig.jpg"",""time"":0.2999999523162842},{""stimulus"":""run_exp/static/images/task_images/land.jpg"",""time"":638.6000000238419},{""stimulus"":""run_exp/static/images/task_images/dig.jpg"",""time"":1268.6000000238419}]",[],5,,,,,,,,,,,,,,
harvest,130,630633,0.0-44.0-1.0,"""event"",""trial"",""time""
""fullscreenenter"",""1"",""10650""
","
","
","""event"",""trial"",""time""
""fullscreenenter"",""1"",""10650""
","
",,null,run_exp/static/images/task_images/gems/22.jpg,null,,,,,,,11,,,5,,,,,22,0.504300048,0.5,,,,,,,
decision,131,631137,0.0-44.0-2.0,"""event"",""trial"",""time""
""fullscreenenter"",""1"",""10650""
","
","
","""event"",""trial"",""time""
""fullscreenenter"",""1"",""10650""
","
",,500.8,run_exp/static/images/task_images/land.jpg,65,,,,,,,11,,,5,,,,,,,,128617,1,2,FALSE,,,
dig,132,633652,0.0-45.0-0.0,"""event"",""trial"",""time""
""fullscreenenter"",""1"",""10650""
","
","
","""event"",""trial"",""time""
""fullscreenenter"",""1"",""10650""
","
",,,,,,,,,,,,"[{""stimulus"":""run_exp/static/images/task_images/dig.jpg"",""time"":0.5},{""stimulus"":""run_exp/static/images/task_images/land.jpg"",""time"":843.3999999761581},{""stimulus"":""run_exp/static/images/task_images/dig.jpg"",""time"":1675.1000000238419}]",[],5,,,,,,,,,,,,,,
harvest,133,634660,0.0-45.0-1.0,"""event"",""trial"",""time""
""fullscreenenter"",""1"",""10650""
","
","
","""event"",""trial"",""time""
""fullscreenenter"",""1"",""10650""
","
",,null,run_exp/static/images/task_images/gems/11.jpg,null,,,,,,,5,,,5,,,,,11,0.438266289,0.454545455,,,,,,,
decision,134,634840,0.0-45.0-2.0,"""event"",""trial"",""time""
""fullscreenenter"",""1"",""10650""
","
","
","""event"",""trial"",""time""
""fullscreenenter"",""1"",""10650""
","
",,176,run_exp/static/images/task_images/land.jpg,76,,,,,,,5,,,5,,,,,,,,132319,1,3,TRUE,,,
travel,135,644672,0.0-46.0-0.0,"""event"",""trial"",""time""
""fullscreenenter"",""1"",""10650""
","
","
","""event"",""trial"",""time""
""fullscreenenter"",""1"",""10650""
","
",,,,,,,,,,,,"[{""stimulus"":""run_exp/static/images/task_images/rocket-01.jpg"",""time"":0.5},{""stimulus"":""run_exp/static/images/task_images/rocket-02.jpg"",""time"":1103.2000000476837},{""stimulus"":""run_exp/static/images/task_images/rocket-03.jpg"",""time"":2193.5},{""stimulus"":""run_exp/static/images/task_images/rocket-04.jpg"",""time"":3284},{""stimulus"":""run_exp/static/images/task_images/rocket-05.jpg"",""time"":4371.899999976158},{""stimulus"":""run_exp/static/images/task_images/rocket-06.jpg"",""time"":5467.700000047684},{""stimulus"":""run_exp/static/images/task_images/rocket-07.jpg"",""time"":6552.600000023842},{""stimulus"":""run_exp/static/images/task_images/rocket-08.jpg"",""time"":7641.399999976158},{""stimulus"":""run_exp/static/images/task_images/rocket-09.jpg"",""time"":8732.899999976158}]",[],5,,,,,,,,,,,,,,
alien_welcome,136,649680,0.0-46.0-1.0,"""event"",""trial"",""time""
""fullscreenenter"",""1"",""10650""
","
","
","""event"",""trial"",""time""
""fullscreenenter"",""1"",""10650""
","
",,null,run_exp/static/images/task_images/aliens/old_aliens/planet/alien_planet-44.jpg,null,,,,,,,,,,,,,44,"68,22,79,3,36,44,2,19,5,59,52,57,50,38,41,32,18,53,9,23,54,28,45,8,14,21,39,25,7,17,34,74,75,76,10,15,40",,,,,,,,,,
land,137,650193,0.0-46.0-2.0,"""event"",""trial"",""time""
""fullscreenenter"",""1"",""10650""
","
","
","""event"",""trial"",""time""
""fullscreenenter"",""1"",""10650""
","
",,null,run_exp/static/images/task_images/land.jpg,null,,,,,,,94,,,6,,,,,,,,,,,,,,
dig,138,652200,0.0-46.0-3.0,"""event"",""trial"",""time""
""fullscreenenter"",""1"",""10650""
","
","
","""event"",""trial"",""time""
""fullscreenenter"",""1"",""10650""
","
",,,,,,,,,,,,"[{""stimulus"":""run_exp/static/images/task_images/dig.jpg"",""time"":0.7000000476837158},{""stimulus"":""run_exp/static/images/task_images/land.jpg"",""time"":676.3999999761581},{""stimulus"":""run_exp/static/images/task_images/dig.jpg"",""time"":1349.1000000238419}]",[],6,,,,,,,,,,,,,,
harvest,139,653206,0.0-46.0-4.0,"""event"",""trial"",""time""
""fullscreenenter"",""1"",""10650""
","
","
","""event"",""trial"",""time""
""fullscreenenter"",""1"",""10650""
","
",,null,run_exp/static/images/task_images/gems/94.jpg,null,,,,,,,78,,,6,,,,,94,0.834604331,0.829787234,,,,,,,
decision,140,653917,0.0-46.0-5.0,"""event"",""trial"",""time""
""fullscreenenter"",""1"",""10650""
","
","
","""event"",""trial"",""time""
""fullscreenenter"",""1"",""10650""
","
",,708.5,run_exp/static/images/task_images/land.jpg,65,,,,,,,78,,,6,,,,,,,,151397,1,0,FALSE,,,
dig,141,656212,0.0-47.0-0.0,"""event"",""trial"",""time""
""fullscreenenter"",""1"",""10650""
","
","
","""event"",""trial"",""time""
""fullscreenenter"",""1"",""10650""
","
",,,,,,,,,,,,"[{""stimulus"":""run_exp/static/images/task_images/dig.jpg"",""time"":0.5},{""stimulus"":""run_exp/static/images/task_images/land.jpg"",""time"":780.2000000476837},{""stimulus"":""run_exp/static/images/task_images/dig.jpg"",""time"":1541.7000000476837}]",[],6,,,,,,,,,,,,,,
harvest,142,657232,0.0-47.0-1.0,"""event"",""trial"",""time""
""fullscreenenter"",""1"",""10650""
","
","
","""event"",""trial"",""time""
""fullscreenenter"",""1"",""10650""
","
",,null,run_exp/static/images/task_images/gems/78.jpg,null,,,,,,,61,,,6,,,,,78,0.77775345,0.782051282,,,,,,,
decision,143,657237,0.0-47.0-2.0,"""event"",""trial"",""time""
""fullscreenenter"",""1"",""10650""
","
","
","""event"",""trial"",""time""
""fullscreenenter"",""1"",""10650""
","
",,2.400000095,run_exp/static/images/task_images/land.jpg,65,,,,,,,61,,,6,,,,,,,,154717,1,1,FALSE,,,
dig,144,660257,0.0-48.0-0.0,"""event"",""trial"",""time""
""fullscreenenter"",""1"",""10650""
","
","
","""event"",""trial"",""time""
""fullscreenenter"",""1"",""10650""
","
",,,,,,,,,,,,"[{""stimulus"":""run_exp/static/images/task_images/dig.jpg"",""time"":0.6000000238418579},{""stimulus"":""run_exp/static/images/task_images/land.jpg"",""time"":1005.1000000238419},{""stimulus"":""run_exp/static/images/task_images/dig.jpg"",""time"":2005.3000000715256}]",[],6,,,,,,,,,,,,,,
harvest,145,661269,0.0-48.0-1.0,"""event"",""trial"",""time""
""fullscreenenter"",""1"",""10650""
","
","
","""event"",""trial"",""time""
""fullscreenenter"",""1"",""10650""
","
",,null,run_exp/static/images/task_images/gems/61.jpg,null,,,,,,,51,,,6,,,,,61,0.832113456,0.836065574,,,,,,,
decision,146,661860,0.0-48.0-2.0,"""event"",""trial"",""time""
""fullscreenenter"",""1"",""10650""
","
","
","""event"",""trial"",""time""
""fullscreenenter"",""1"",""10650""
","
",,588,run_exp/static/images/task_images/land.jpg,76,,,,,,,51,,,6,,,,,,,,159340,1,2,TRUE,,,
travel,147,671287,0.0-49.0-0.0,"""event"",""trial"",""time""
""fullscreenenter"",""1"",""10650""
","
","
","""event"",""trial"",""time""
""fullscreenenter"",""1"",""10650""
","
",,,,,,,,,,,,"[{""stimulus"":""run_exp/static/images/task_images/rocket-01.jpg"",""time"":0.7000000476837158},{""stimulus"":""run_exp/static/images/task_images/rocket-02.jpg"",""time"":1055.9000000953674},{""stimulus"":""run_exp/static/images/task_images/rocket-03.jpg"",""time"":2095.7000000476837},{""stimulus"":""run_exp/static/images/task_images/rocket-04.jpg"",""time"":3143.9000000953674},{""stimulus"":""run_exp/static/images/task_images/rocket-05.jpg"",""time"":4185.900000095367},{""stimulus"":""run_exp/static/images/task_images/rocket-06.jpg"",""time"":5236.200000047684},{""stimulus"":""run_exp/static/images/task_images/rocket-07.jpg"",""time"":6286.600000023842},{""stimulus"":""run_exp/static/images/task_images/rocket-08.jpg"",""time"":7324.600000023842},{""stimulus"":""run_exp/static/images/task_images/rocket-09.jpg"",""time"":8367.100000023842}]",[],6,,,,,,,,,,,,,,
alien_welcome,148,676297,0.0-49.0-1.0,"""event"",""trial"",""time""
""fullscreenenter"",""1"",""10650""
","
","
","""event"",""trial"",""time""
""fullscreenenter"",""1"",""10650""
","
",,null,run_exp/static/images/task_images/aliens/old_aliens/planet/alien_planet-2.jpg,null,,,,,,,,,,,,,2,"68,22,79,3,36,44,2,19,5,59,52,57,50,38,41,32,18,53,9,23,54,28,45,8,14,21,39,25,7,17,34,74,75,76,10,15,40",,,,,,,,,,
land,149,676806,0.0-49.0-2.0,"""event"",""trial"",""time""
""fullscreenenter"",""1"",""10650""
","
","
","""event"",""trial"",""time""
""fullscreenenter"",""1"",""10650""
","
",,null,run_exp/static/images/task_images/land.jpg,null,,,,,,,103,,,7,,,,,,,,,,,,,,
dig,150,678814,0.0-49.0-3.0,"""event"",""trial"",""time""
""fullscreenenter"",""1"",""10650""
","
","
","""event"",""trial"",""time""
""fullscreenenter"",""1"",""10650""
","
",,,,,,,,,,,,"[{""stimulus"":""run_exp/static/images/task_images/dig.jpg"",""time"":1.2000000476837158},{""stimulus"":""run_exp/static/images/task_images/land.jpg"",""time"":676.8000000715256},{""stimulus"":""run_exp/static/images/task_images/dig.jpg"",""time"":1351.6000000238419}]",[],7,,,,,,,,,,,,,,
harvest,151,679821,0.0-49.0-4.0,"""event"",""trial"",""time""
""fullscreenenter"",""1"",""10650""
","
","
","""event"",""trial"",""time""
""fullscreenenter"",""1"",""10650""
","
",,null,run_exp/static/images/task_images/gems/103.jpg,null,,,,,,,82,,,7,,,,,103,0.796719796,0.796116505,,,,,,,
decision,152,680220,0.0-49.0-5.0,"""event"",""trial"",""time""
""fullscreenenter"",""1"",""10650""
","
","
","""event"",""trial"",""time""
""fullscreenenter"",""1"",""10650""
","
",,397.4,run_exp/static/images/task_images/land.jpg,65,,,,,,,82,,,7,,,,,,,,177699,1,0,FALSE,,,
dig,153,682831,0.0-50.0-0.0,"""event"",""trial"",""time""
""fullscreenenter"",""1"",""10650""
","
","
","""event"",""trial"",""time""
""fullscreenenter"",""1"",""10650""
","
",,,,,,,,,,,,"[{""stimulus"":""run_exp/static/images/task_images/dig.jpg"",""time"":0.2999999523162842},{""stimulus"":""run_exp/static/images/task_images/land.jpg"",""time"":872.1999999284744},{""stimulus"":""run_exp/static/images/task_images/dig.jpg"",""time"":1742.5}]",[],7,,,,,,,,,,,,,,
harvest,154,683837,0.0-50.0-1.0,"""event"",""trial"",""time""
""fullscreenenter"",""1"",""10650""
","
","
","""event"",""trial"",""time""
""fullscreenenter"",""1"",""10650""
","
",,null,run_exp/static/images/task_images/gems/82.jpg,null,,,,,,,61,,,7,,,,,82,0.745167227,0.743902439,,,,,,,
decision,155,684051,0.0-50.0-2.0,"""event"",""trial"",""time""
""fullscreenenter"",""1"",""10650""
","
","
","""event"",""trial"",""time""
""fullscreenenter"",""1"",""10650""
","
",,211,run_exp/static/images/task_images/land.jpg,65,,,,,,,61,,,7,,,,,,,,181530,1,1,FALSE,,,
dig,156,686857,0.0-51.0-0.0,"""event"",""trial"",""time""
""fullscreenenter"",""1"",""10650""
","
","
","""event"",""trial"",""time""
""fullscreenenter"",""1"",""10650""
","
",,,,,,,,,,,,"[{""stimulus"":""run_exp/static/images/task_images/dig.jpg"",""time"":0.6999999284744263},{""stimulus"":""run_exp/static/images/task_images/land.jpg"",""time"":934.1999999284744},{""stimulus"":""run_exp/static/images/task_images/dig.jpg"",""time"":1866.1000000238419}]",[],7,,,,,,,,,,,,,,
harvest,157,687860,0.0-51.0-1.0,"""event"",""trial"",""time""
""fullscreenenter"",""1"",""10650""
","
","
","""event"",""trial"",""time""
""fullscreenenter"",""1"",""10650""
","
",,null,run_exp/static/images/task_images/gems/61.jpg,null,,,,,,,50,,,7,,,,,61,0.82222874,0.819672131,,,,,,,
decision,158,688152,0.0-51.0-2.0,"""event"",""trial"",""time""
""fullscreenenter"",""1"",""10650""
","
","
","""event"",""trial"",""time""
""fullscreenenter"",""1"",""10650""
","
",,288.5,run_exp/static/images/task_images/land.jpg,65,,,,,,,50,,,7,,,,,,,,185631,1,2,FALSE,,,
dig,159,690878,0.0-52.0-0.0,"""event"",""trial"",""time""
""fullscreenenter"",""1"",""10650""
","
","
","""event"",""trial"",""time""
""fullscreenenter"",""1"",""10650""
","
",,,,,,,,,,,,"[{""stimulus"":""run_exp/static/images/task_images/dig.jpg"",""time"":0.5},{""stimulus"":""run_exp/static/images/task_images/land.jpg"",""time"":906.2999999523163},{""stimulus"":""run_exp/static/images/task_images/dig.jpg"",""time"":1814.6999999284744}]",[],7,,,,,,,,,,,,,,
harvest,160,691889,0.0-52.0-1.0,"""event"",""trial"",""time""
""fullscreenenter"",""1"",""10650""
","
","
","""event"",""trial"",""time""
""fullscreenenter"",""1"",""10650""
","
",,null,run_exp/static/images/task_images/gems/50.jpg,null,,,,,,,38,,,7,,,,,50,0.757218601,0.76,,,,,,,
decision,161,692146,0.0-52.0-2.0,"""event"",""trial"",""time""
""fullscreenenter"",""1"",""10650""
","
","
","""event"",""trial"",""time""
""fullscreenenter"",""1"",""10650""
","
",,253.8000001,run_exp/static/images/task_images/land.jpg,65,,,,,,,38,,,7,,,,,,,,189625,1,3,FALSE,,,
dig,162,694908,0.0-53.0-0.0,"""event"",""trial"",""time""
""fullscreenenter"",""1"",""10650""
","
","
","""event"",""trial"",""time""
""fullscreenenter"",""1"",""10650""
","
",,,,,,,,,,,,"[{""stimulus"":""run_exp/static/images/task_images/dig.jpg"",""time"":0.7000000476837158},{""stimulus"":""run_exp/static/images/task_images/land.jpg"",""time"":925},{""stimulus"":""run_exp/static/images/task_images/dig.jpg"",""time"":1840.3999999761581}]",[],7,,,,,,,,,,,,,,
harvest,163,695917,0.0-53.0-1.0,"""event"",""trial"",""time""
""fullscreenenter"",""1"",""10650""
","
","
","""event"",""trial"",""time""
""fullscreenenter"",""1"",""10650""
","
",,null,run_exp/static/images/task_images/gems/38.jpg,null,,,,,,,30,,,7,,,,,38,0.776912122,0.789473684,,,,,,,
decision,164,695982,0.0-53.0-2.0,"""event"",""trial"",""time""
""fullscreenenter"",""1"",""10650""
","
","
","""event"",""trial"",""time""
""fullscreenenter"",""1"",""10650""
","
",,60.9000001,run_exp/static/images/task_images/land.jpg,65,,,,,,,30,,,7,,,,,,,,193461,1,4,FALSE,,,
dig,165,698936,0.0-54.0-0.0,"""event"",""trial"",""time""
""fullscreenenter"",""1"",""10650""
","
","
","""event"",""trial"",""time""
""fullscreenenter"",""1"",""10650""
","
",,,,,,,,,,,,"[{""stimulus"":""run_exp/static/images/task_images/dig.jpg"",""time"":0.6000000238418579},{""stimulus"":""run_exp/static/images/task_images/land.jpg"",""time"":986.1999999284744},{""stimulus"":""run_exp/static/images/task_images/dig.jpg"",""time"":1966.6000000238419}]",[],7,,,,,,,,,,,,,,
harvest,166,699947,0.0-54.0-1.0,"""event"",""trial"",""time""
""fullscreenenter"",""1"",""10650""
","
","
","""event"",""trial"",""time""
""fullscreenenter"",""1"",""10650""
","
",,null,run_exp/static/images/task_images/gems/30.jpg,null,,,,,,,27,,,7,,,,,30,0.890098268,0.9,,,,,,,
decision,167,700068,0.0-54.0-2.0,"""event"",""trial"",""time""
""fullscreenenter"",""1"",""10650""
","
","
","""event"",""trial"",""time""
""fullscreenenter"",""1"",""10650""
","
",,118.2,run_exp/static/images/task_images/land.jpg,65,,,,,,,27,,,7,,,,,,,,197547,1,5,FALSE,,,
dig,168,702964,0.0-55.0-0.0,"""event"",""trial"",""time""
""fullscreenenter"",""1"",""10650""
","
","
","""event"",""trial"",""time""
""fullscreenenter"",""1"",""10650""
","
",,,,,,,,,,,,"[{""stimulus"":""run_exp/static/images/task_images/dig.jpg"",""time"":1.100000023841858},{""stimulus"":""run_exp/static/images/task_images/land.jpg"",""time"":969.1000000238419},{""stimulus"":""run_exp/static/images/task_images/dig.jpg"",""time"":1928.1000000238419}]",[],7,,,,,,,,,,,,,,
harvest,169,703968,0.0-55.0-1.0,"""event"",""trial"",""time""
""fullscreenenter"",""1"",""10650""
","
","
","""event"",""trial"",""time""
""fullscreenenter"",""1"",""10650""
","
",,null,run_exp/static/images/task_images/gems/27.jpg,null,,,,,,,23,,,7,,,,,27,0.863317174,0.851851852,,,,,,,
decision,170,704265,0.0-55.0-2.0,"""event"",""trial"",""time""
""fullscreenenter"",""1"",""10650""
","
","
","""event"",""trial"",""time""
""fullscreenenter"",""1"",""10650""
","
",,293.1,run_exp/static/images/task_images/land.jpg,76,,,,,,,23,,,7,,,,,,,,201744,1,6,TRUE,,,
travel,171,713989,0.0-56.0-0.0,"""event"",""trial"",""time""
""fullscreenenter"",""1"",""10650""
","
","
","""event"",""trial"",""time""
""fullscreenenter"",""1"",""10650""
","
",,,,,,,,,,,,"[{""stimulus"":""run_exp/static/images/task_images/rocket-01.jpg"",""time"":0.6000000238418579},{""stimulus"":""run_exp/static/images/task_images/rocket-02.jpg"",""time"":1082.1000000238419},{""stimulus"":""run_exp/static/images/task_images/rocket-03.jpg"",""time"":2162.5},{""stimulus"":""run_exp/static/images/task_images/rocket-04.jpg"",""time"":3249.2000000476837},{""stimulus"":""run_exp/static/images/task_images/rocket-05.jpg"",""time"":4321.399999976158},{""stimulus"":""run_exp/static/images/task_images/rocket-06.jpg"",""time"":5403},{""stimulus"":""run_exp/static/images/task_images/rocket-07.jpg"",""time"":6483.399999976158},{""stimulus"":""run_exp/static/images/task_images/rocket-08.jpg"",""time"":7553.200000047684},{""stimulus"":""run_exp/static/images/task_images/rocket-09.jpg"",""time"":8635.200000047684}]",[],7,,,,,,,,,,,,,,
alien_welcome,172,718998,0.0-56.0-1.0,"""event"",""trial"",""time""
""fullscreenenter"",""1"",""10650""
","
","
","""event"",""trial"",""time""
""fullscreenenter"",""1"",""10650""
","
",,null,run_exp/static/images/task_images/aliens/old_aliens/planet/alien_planet-19.jpg,null,,,,,,,,,,,,,19,"68,22,79,3,36,44,2,19,5,59,52,57,50,38,41,32,18,53,9,23,54,28,45,8,14,21,39,25,7,17,34,74,75,76,10,15,40",,,,,,,,,,
land,173,719511,0.0-56.0-2.0,"""event"",""trial"",""time""
""fullscreenenter"",""1"",""10650""
","
","
","""event"",""trial"",""time""
""fullscreenenter"",""1"",""10650""
","
",,null,run_exp/static/images/task_images/land.jpg,null,,,,,,,96,,,8,,,,,,,,,,,,,,
dig,174,721531,0.0-56.0-3.0,"""event"",""trial"",""time""
""fullscreenenter"",""1"",""10650""
","
","
","""event"",""trial"",""time""
""fullscreenenter"",""1"",""10650""
","
",,,,,,,,,,,,"[{""stimulus"":""run_exp/static/images/task_images/dig.jpg"",""time"":0.6999999284744263},{""stimulus"":""run_exp/static/images/task_images/land.jpg"",""time"":677.6999999284744},{""stimulus"":""run_exp/static/images/task_images/dig.jpg"",""time"":1337.3999999761581}]",[],8,,,,,,,,,,,,,,
harvest,175,722539,0.0-56.0-4.0,"""event"",""trial"",""time""
""fullscreenenter"",""1"",""10650""
","
","
","""event"",""trial"",""time""
""fullscreenenter"",""1"",""10650""
","
",,null,run_exp/static/images/task_images/gems/96.jpg,null,,,,,,,85,,,8,,,,,96,0.88662258,0.885416667,,,,,,,
decision,176,723110,0.0-56.0-5.0,"""event"",""trial"",""time""
""fullscreenenter"",""1"",""10650""
","
","
","""event"",""trial"",""time""
""fullscreenenter"",""1"",""10650""
","
",,567.4,run_exp/static/images/task_images/land.jpg,65,,,,,,,85,,,8,,,,,,,,220589,1,0,FALSE,,,
dig,177,725558,0.0-57.0-0.0,"""event"",""trial"",""time""
""fullscreenenter"",""1"",""10650""
","
","
","""event"",""trial"",""time""
""fullscreenenter"",""1"",""10650""
","
",,,,,,,,,,,,"[{""stimulus"":""run_exp/static/images/task_images/dig.jpg"",""time"":0.6000000238418579},{""stimulus"":""run_exp/static/images/task_images/land.jpg"",""time"":821.2000000476837},{""stimulus"":""run_exp/static/images/task_images/dig.jpg"",""time"":1630.7000000476837}]",[],8,,,,,,,,,,,,,,
harvest,178,726562,0.0-57.0-1.0,"""event"",""trial"",""time""
""fullscreenenter"",""1"",""10650""
","
","
","""event"",""trial"",""time""
""fullscreenenter"",""1"",""10650""
","
",,null,run_exp/static/images/task_images/gems/85.jpg,null,,,,,,,71,,,8,,,,,85,0.829549946,0.835294118,,,,,,,
decision,179,727094,0.0-57.0-2.0,"""event"",""trial"",""time""
""fullscreenenter"",""1"",""10650""
","
","
","""event"",""trial"",""time""
""fullscreenenter"",""1"",""10650""
","
",,528.7,run_exp/static/images/task_images/land.jpg,65,,,,,,,71,,,8,,,,,,,,224573,1,1,FALSE,,,
dig,180,729583,0.0-58.0-0.0,"""event"",""trial"",""time""
""fullscreenenter"",""1"",""10650""
","
","
","""event"",""trial"",""time""
""fullscreenenter"",""1"",""10650""
","
",,,,,,,,,,,,"[{""stimulus"":""run_exp/static/images/task_images/dig.jpg"",""time"":0.6000000238418579},{""stimulus"":""run_exp/static/images/task_images/land.jpg"",""time"":826.2999999523163},{""stimulus"":""run_exp/static/images/task_images/dig.jpg"",""time"":1655.6000000238419}]",[],8,,,,,,,,,,,,,,
harvest,181,730592,0.0-58.0-1.0,"""event"",""trial"",""time""
""fullscreenenter"",""1"",""10650""
","
","
","""event"",""trial"",""time""
""fullscreenenter"",""1"",""10650""
","
",,null,run_exp/static/images/task_images/gems/71.jpg,null,,,,,,,62,,,8,,,,,71,0.87403768,0.873239437,,,,,,,
decision,182,730935,0.0-58.0-2.0,"""event"",""trial"",""time""
""fullscreenenter"",""1"",""10650""
","
","
","""event"",""trial"",""time""
""fullscreenenter"",""1"",""10650""
","
",,339,run_exp/static/images/task_images/land.jpg,65,,,,,,,62,,,8,,,,,,,,228414,1,2,FALSE,,,
dig,183,733611,0.0-59.0-0.0,"""event"",""trial"",""time""
""fullscreenenter"",""1"",""10650""
","
","
","""event"",""trial"",""time""
""fullscreenenter"",""1"",""10650""
","
",,,,,,,,,,,,"[{""stimulus"":""run_exp/static/images/task_images/dig.jpg"",""time"":0.6000000238418579},{""stimulus"":""run_exp/static/images/task_images/land.jpg"",""time"":895.1000000238419},{""stimulus"":""run_exp/static/images/task_images/dig.jpg"",""time"":1781.2999999523163}]",[],8,,,,,,,,,,,,,,
harvest,184,734621,0.0-59.0-1.0,"""event"",""trial"",""time""
""fullscreenenter"",""1"",""10650""
","
","
","""event"",""trial"",""time""
""fullscreenenter"",""1"",""10650""
","
",,null,run_exp/static/images/task_images/gems/62.jpg,null,,,,,,,50,,,8,,,,,62,0.807092682,0.806451613,,,,,,,
decision,185,734874,0.0-59.0-2.0,"""event"",""trial"",""time""
""fullscreenenter"",""1"",""10650""
","
","
","""event"",""trial"",""time""
""fullscreenenter"",""1"",""10650""
","
",,249.3000001,run_exp/static/images/task_images/land.jpg,65,,,,,,,50,,,8,,,,,,,,232353,1,3,FALSE,,,
dig,186,737641,0.0-60.0-0.0,"""event"",""trial"",""time""
""fullscreenenter"",""1"",""10650""
","
","
","""event"",""trial"",""time""
""fullscreenenter"",""1"",""10650""
","
",,,,,,,,,,,,"[{""stimulus"":""run_exp/static/images/task_images/dig.jpg"",""time"":0.7000000476837158},{""stimulus"":""run_exp/static/images/task_images/land.jpg"",""time"":921.7000000476837},{""stimulus"":""run_exp/static/images/task_images/dig.jpg"",""time"":1838}]",[],8,,,,,,,,,,,,,,
harvest,187,738653,0.0-60.0-1.0,"""event"",""trial"",""time""
""fullscreenenter"",""1"",""10650""
","
","
","""event"",""trial"",""time""
""fullscreenenter"",""1"",""10650""
","
",,null,run_exp/static/images/task_images/gems/50.jpg,null,,,,,,,41,,,8,,,,,50,0.810587387,0.82,,,,,,,
decision,188,738801,0.0-60.0-2.0,"""event"",""trial"",""time""
""fullscreenenter"",""1"",""10650""
","
","
","""event"",""trial"",""time""
""fullscreenenter"",""1"",""10650""
","
",,144.5,run_exp/static/images/task_images/land.jpg,65,,,,,,,41,,,8,,,,,,,,236280,1,4,FALSE,,,
dig,189,741672,0.0-61.0-0.0,"""event"",""trial"",""time""
""fullscreenenter"",""1"",""10650""
","
","
","""event"",""trial"",""time""
""fullscreenenter"",""1"",""10650""
","
",,,,,,,,,,,,"[{""stimulus"":""run_exp/static/images/task_images/dig.jpg"",""time"":0.5999999046325684},{""stimulus"":""run_exp/static/images/task_images/land.jpg"",""time"":956.1999999284744},{""stimulus"":""run_exp/static/images/task_images/dig.jpg"",""time"":1908.8999999761581}]",[],8,,,,,,,,,,,,,,
harvest,190,742691,0.0-61.0-1.0,"""event"",""trial"",""time""
""fullscreenenter"",""1"",""10650""
","
","
","""event"",""trial"",""time""
""fullscreenenter"",""1"",""10650""
","
",,null,run_exp/static/images/task_images/gems/41.jpg,null,,,,,,,31,,,8,,,,,41,0.759516644,0.756097561,,,,,,,
decision,191,742806,0.0-61.0-2.0,"""event"",""trial"",""time""
""fullscreenenter"",""1"",""10650""
","
","
","""event"",""trial"",""time""
""fullscreenenter"",""1"",""10650""
","
",,112.0999999,run_exp/static/images/task_images/land.jpg,65,,,,,,,31,,,8,,,,,,,,240285,1,5,FALSE,,,
dig,192,745711,0.0-62.0-0.0,"""event"",""trial"",""time""
""fullscreenenter"",""1"",""10650""
","
","
","""event"",""trial"",""time""
""fullscreenenter"",""1"",""10650""
","
",,,,,,,,,,,,"[{""stimulus"":""run_exp/static/images/task_images/dig.jpg"",""time"":0.6000000238418579},{""stimulus"":""run_exp/static/images/task_images/land.jpg"",""time"":965.1000000238419},{""stimulus"":""run_exp/static/images/task_images/dig.jpg"",""time"":1934.7000000476837}]",[],8,,,,,,,,,,,,,,
harvest,193,746723,0.0-62.0-1.0,"""event"",""trial"",""time""
""fullscreenenter"",""1"",""10650""
","
","
","""event"",""trial"",""time""
""fullscreenenter"",""1"",""10650""
","
",,null,run_exp/static/images/task_images/gems/31.jpg,null,,,,,,,26,,,8,,,,,31,0.85140293,0.838709677,,,,,,,
decision,194,747026,0.0-62.0-2.0,"""event"",""trial"",""time""
""fullscreenenter"",""1"",""10650""
","
","
","""event"",""trial"",""time""
""fullscreenenter"",""1"",""10650""
","
",,300,run_exp/static/images/task_images/land.jpg,65,,,,,,,26,,,8,,,,,,,,244505,1,6,FALSE,,,
dig,195,749754,0.0-63.0-0.0,"""event"",""trial"",""time""
""fullscreenenter"",""1"",""10650""
","
","
","""event"",""trial"",""time""
""fullscreenenter"",""1"",""10650""
","
",,,,,,,,,,,,"[{""stimulus"":""run_exp/static/images/task_images/dig.jpg"",""time"":0.6000000238418579},{""stimulus"":""run_exp/static/images/task_images/land.jpg"",""time"":915.3999999761581},{""stimulus"":""run_exp/static/images/task_images/dig.jpg"",""time"":1805.8999999761581}]",[],8,,,,,,,,,,,,,,
harvest,196,750763,0.0-63.0-1.0,"""event"",""trial"",""time""
""fullscreenenter"",""1"",""10650""
","
","
","""event"",""trial"",""time""
""fullscreenenter"",""1"",""10650""
","
",,null,run_exp/static/images/task_images/gems/26.jpg,null,,,,,,,22,,,8,,,,,26,0.839642305,0.846153846,,,,,,,
decision,197,750925,0.0-63.0-2.0,"""event"",""trial"",""time""
""fullscreenenter"",""1"",""10650""
","
","
","""event"",""trial"",""time""
""fullscreenenter"",""1"",""10650""
","
",,158.3,run_exp/static/images/task_images/land.jpg,65,,,,,,,22,,,8,,,,,,,,248404,1,7,FALSE,,,
dig,198,753783,0.0-64.0-0.0,"""event"",""trial"",""time""
""fullscreenenter"",""1"",""10650""
","
","
","""event"",""trial"",""time""
""fullscreenenter"",""1"",""10650""
","
",,,,,,,,,,,,"[{""stimulus"":""run_exp/static/images/task_images/dig.jpg"",""time"":0.7000000476837158},{""stimulus"":""run_exp/static/images/task_images/land.jpg"",""time"":955.1000000238419},{""stimulus"":""run_exp/static/images/task_images/dig.jpg"",""time"":1905.2000000476837}]",[],8,,,,,,,,,,,,,,
harvest,199,754793,0.0-64.0-1.0,"""event"",""trial"",""time""
""fullscreenenter"",""1"",""10650""
","
","
","""event"",""trial"",""time""
""fullscreenenter"",""1"",""10650""
","
",,null,run_exp/static/images/task_images/gems/22.jpg,null,,,,,,,17,,,8,,,,,22,0.759263193,0.772727273,,,,,,,
decision,200,754922,0.0-64.0-2.0,"""event"",""trial"",""time""
""fullscreenenter"",""1"",""10650""
","
","
","""event"",""trial"",""time""
""fullscreenenter"",""1"",""10650""
","
",,125.8,run_exp/static/images/task_images/land.jpg,76,,,,,,,17,,,8,,,,,,,,252401,1,8,TRUE,,,
travel,201,764811,0.0-65.0-0.0,"""event"",""trial"",""time""
""fullscreenenter"",""1"",""10650""
","
","
","""event"",""trial"",""time""
""fullscreenenter"",""1"",""10650""
","
",,,,,,,,,,,,"[{""stimulus"":""run_exp/static/images/task_images/rocket-01.jpg"",""time"":1},{""stimulus"":""run_exp/static/images/task_images/rocket-02.jpg"",""time"":1111.2999999523163},{""stimulus"":""run_exp/static/images/task_images/rocket-03.jpg"",""time"":2200.5999999046326},{""stimulus"":""run_exp/static/images/task_images/rocket-04.jpg"",""time"":3300.399999976158},{""stimulus"":""run_exp/static/images/task_images/rocket-05.jpg"",""time"":4398.599999904633},{""stimulus"":""run_exp/static/images/task_images/rocket-06.jpg"",""time"":5488.199999928474},{""stimulus"":""run_exp/static/images/task_images/rocket-07.jpg"",""time"":6591.599999904633},{""stimulus"":""run_exp/static/images/task_images/rocket-08.jpg"",""time"":7689.699999928474},{""stimulus"":""run_exp/static/images/task_images/rocket-09.jpg"",""time"":8779.899999976158}]",[],8,,,,,,,,,,,,,,
alien_welcome,202,769823,0.0-65.0-1.0,"""event"",""trial"",""time""
""fullscreenenter"",""1"",""10650""
","
","
","""event"",""trial"",""time""
""fullscreenenter"",""1"",""10650""
","
",,null,run_exp/static/images/task_images/aliens/old_aliens/planet/alien_planet-5.jpg,null,,,,,,,,,,,,,5,"68,22,79,3,36,44,2,19,5,59,52,57,50,38,41,32,18,53,9,23,54,28,45,8,14,21,39,25,7,17,34,74,75,76,10,15,40",,,,,,,,,,
land,203,770329,0.0-65.0-2.0,"""event"",""trial"",""time""
""fullscreenenter"",""1"",""10650""
","
","
","""event"",""trial"",""time""
""fullscreenenter"",""1"",""10650""
","
",,null,run_exp/static/images/task_images/land.jpg,null,,,,,,,94,,,9,,,,,,,,,,,,,,
dig,204,772342,0.0-65.0-3.0,"""event"",""trial"",""time""
""fullscreenenter"",""1"",""10650""
","
","
","""event"",""trial"",""time""
""fullscreenenter"",""1"",""10650""
","
",,,,,,,,,,,,"[{""stimulus"":""run_exp/static/images/task_images/dig.jpg"",""time"":0.7000000476837158},{""stimulus"":""run_exp/static/images/task_images/land.jpg"",""time"":670.8999999761581},{""stimulus"":""run_exp/static/images/task_images/dig.jpg"",""time"":1340.7999999523163}]",[],9,,,,,,,,,,,,,,
harvest,205,773349,0.0-65.0-4.0,"""event"",""trial"",""time""
""fullscreenenter"",""1"",""10650""
","
","
","""event"",""trial"",""time""
""fullscreenenter"",""1"",""10650""
","
",,null,run_exp/static/images/task_images/gems/94.jpg,null,,,,,,,22,,,9,,,,,94,0.2332506,0.234042553,,,,,,,
decision,206,773726,0.0-65.0-5.0,"""event"",""trial"",""time""
""fullscreenenter"",""1"",""10650""
","
","
","""event"",""trial"",""time""
""fullscreenenter"",""1"",""10650""
","
",,375.1999999,run_exp/static/images/task_images/land.jpg,65,,,,,,,22,,,9,,,,,,,,271205,1,0,FALSE,,,
dig,207,776361,0.0-66.0-0.0,"""event"",""trial"",""time""
""fullscreenenter"",""1"",""10650""
","
","
","""event"",""trial"",""time""
""fullscreenenter"",""1"",""10650""
","
",,,,,,,,,,,,"[{""stimulus"":""run_exp/static/images/task_images/dig.jpg"",""time"":0.3999999761581421},{""stimulus"":""run_exp/static/images/task_images/land.jpg"",""time"":882.2000000476837},{""stimulus"":""run_exp/static/images/task_images/dig.jpg"",""time"":1762.3000000715256}]",[],9,,,,,,,,,,,,,,
harvest,208,777372,0.0-66.0-1.0,"""event"",""trial"",""time""
""fullscreenenter"",""1"",""10650""
","
","
","""event"",""trial"",""time""
""fullscreenenter"",""1"",""10650""
","
",,null,run_exp/static/images/task_images/gems/22.jpg,null,,,,,,,4,,,9,,,,,22,0.163210001,0.181818182,,,,,,,
decision,209,777929,0.0-66.0-2.0,"""event"",""trial"",""time""
""fullscreenenter"",""1"",""10650""
","
","
","""event"",""trial"",""time""
""fullscreenenter"",""1"",""10650""
","
",,553.1,run_exp/static/images/task_images/land.jpg,76,,,,,,,4,,,9,,,,,,,,275408,1,1,TRUE,,,
travel,210,787391,0.0-67.0-0.0,"""event"",""trial"",""time""
""fullscreenenter"",""1"",""10650""
","
","
","""event"",""trial"",""time""
""fullscreenenter"",""1"",""10650""
","
",,,,,,,,,,,,"[{""stimulus"":""run_exp/static/images/task_images/rocket-01.jpg"",""time"":0.7000000476837158},{""stimulus"":""run_exp/static/images/task_images/rocket-02.jpg"",""time"":1058},{""stimulus"":""run_exp/static/images/task_images/rocket-03.jpg"",""time"":2109.100000023842},{""stimulus"":""run_exp/static/images/task_images/rocket-04.jpg"",""time"":3153.399999976158},{""stimulus"":""run_exp/static/images/task_images/rocket-05.jpg"",""time"":4201.5},{""stimulus"":""run_exp/static/images/task_images/rocket-06.jpg"",""time"":5259.700000047684},{""stimulus"":""run_exp/static/images/task_images/rocket-07.jpg"",""time"":6302.200000047684},{""stimulus"":""run_exp/static/images/task_images/rocket-08.jpg"",""time"":7352.700000047684},{""stimulus"":""run_exp/static/images/task_images/rocket-09.jpg"",""time"":8402}]",[],9,,,,,,,,,,,,,,
alien_welcome,211,792400,0.0-67.0-1.0,"""event"",""trial"",""time""
""fullscreenenter"",""1"",""10650""
","
","
","""event"",""trial"",""time""
""fullscreenenter"",""1"",""10650""
","
",,null,run_exp/static/images/task_images/aliens/old_aliens/planet/alien_planet-59.jpg,null,,,,,,,,,,,,,59,"68,22,79,3,36,44,2,19,5,59,52,57,50,38,41,32,18,53,9,23,54,28,45,8,14,21,39,25,7,17,34,74,75,76,10,15,40",,,,,,,,,,
land,212,792906,0.0-67.0-2.0,"""event"",""trial"",""time""
""fullscreenenter"",""1"",""10650""
","
","
","""event"",""trial"",""time""
""fullscreenenter"",""1"",""10650""
","
",,null,run_exp/static/images/task_images/land.jpg,null,,,,,,,102,,,10,,,,,,,,,,,,,,
dig,213,794924,0.0-67.0-3.0,"""event"",""trial"",""time""
""fullscreenenter"",""1"",""10650""
","
","
","""event"",""trial"",""time""
""fullscreenenter"",""1"",""10650""
","
",,,,,,,,,,,,"[{""stimulus"":""run_exp/static/images/task_images/dig.jpg"",""time"":0.2999999523162842},{""stimulus"":""run_exp/static/images/task_images/land.jpg"",""time"":674.6999999284744},{""stimulus"":""run_exp/static/images/task_images/dig.jpg"",""time"":1344.5}]",[],10,,,,,,,,,,,,,,
harvest,214,795936,0.0-67.0-4.0,"""event"",""trial"",""time""
""fullscreenenter"",""1"",""10650""
","
","
","""event"",""trial"",""time""
""fullscreenenter"",""1"",""10650""
","
",,null,run_exp/static/images/task_images/gems/102.jpg,null,,,,,,,13,,,10,,,,,102,0.124249786,0.12745098,,,,,,,
decision,215,796033,0.0-67.0-5.0,"""event"",""trial"",""time""
""fullscreenenter"",""1"",""10650""
","
","
","""event"",""trial"",""time""
""fullscreenenter"",""1"",""10650""
","
",,94.60000002,run_exp/static/images/task_images/land.jpg,65,,,,,,,13,,,10,,,,,,,,293512,1,0,FALSE,,,
dig,216,798949,0.0-68.0-0.0,"""event"",""trial"",""time""
""fullscreenenter"",""1"",""10650""
","
","
","""event"",""trial"",""time""
""fullscreenenter"",""1"",""10650""
","
",,,,,,,,,,,,"[{""stimulus"":""run_exp/static/images/task_images/dig.jpg"",""time"":0.40000009536743164},{""stimulus"":""run_exp/static/images/task_images/land.jpg"",""time"":976.4000000953674},{""stimulus"":""run_exp/static/images/task_images/dig.jpg"",""time"":1948.7000000476837}]",[],10,,,,,,,,,,,,,,
harvest,217,799953,0.0-68.0-1.0,"""event"",""trial"",""time""
""fullscreenenter"",""1"",""10650""
","
","
","""event"",""trial"",""time""
""fullscreenenter"",""1"",""10650""
","
",,null,run_exp/static/images/task_images/gems/13.jpg,null,,,,,,,2,,,10,,,,,13,0.165063943,0.153846154,,,,,,,
decision,218,800487,0.0-68.0-2.0,"""event"",""trial"",""time""
""fullscreenenter"",""1"",""10650""
","
","
","""event"",""trial"",""time""
""fullscreenenter"",""1"",""10650""
","
",,531.1999999,run_exp/static/images/task_images/land.jpg,65,,,,,,,2,,,10,,,,,,,,297966,1,1,FALSE,,,
dig,219,802977,0.0-69.0-0.0,"""event"",""trial"",""time""
""fullscreenenter"",""1"",""10650""
","
","
","""event"",""trial"",""time""
""fullscreenenter"",""1"",""10650""
","
",,,,,,,,,,,,"[{""stimulus"":""run_exp/static/images/task_images/dig.jpg"",""time"":0.8000000715255737},{""stimulus"":""run_exp/static/images/task_images/land.jpg"",""time"":832.3999999761581},{""stimulus"":""run_exp/static/images/task_images/dig.jpg"",""time"":1653.2000000476837}]",[],10,,,,,,,,,,,,,,
harvest,220,803984,0.0-69.0-1.0,"""event"",""trial"",""time""
""fullscreenenter"",""1"",""10650""
","
","
","""event"",""trial"",""time""
""fullscreenenter"",""1"",""10650""
","
",,null,run_exp/static/images/task_images/gems/2.jpg,null,,,,,,,1,,,10,,,,,2,0.264143297,0.5,,,,,,,
decision,221,804044,0.0-69.0-2.0,"""event"",""trial"",""time""
""fullscreenenter"",""1"",""10650""
","
","
","""event"",""trial"",""time""
""fullscreenenter"",""1"",""10650""
","
",,58,run_exp/static/images/task_images/land.jpg,76,,,,,,,1,,,10,,,,,,,,301523,1,2,TRUE,,,
end_of_block_continue,222,812926,0.0-70.0-0.0,"""event"",""trial"",""time""
""fullscreenenter"",""1"",""10650""
","
","
","""event"",""trial"",""time""
""fullscreenenter"",""1"",""10650""
","
",,null,run_exp/static/audio/clip_32_block_end.m4a,,,,,,,null,,,,,,,,,,,,,,,,,,
alien_welcome,223,817953,0.0-71.0-0.0,"""event"",""trial"",""time""
""fullscreenenter"",""1"",""10650""
","
","
","""event"",""trial"",""time""
""fullscreenenter"",""1"",""10650""
","
",,null,run_exp/static/images/task_images/aliens/old_aliens/planet/alien_planet-52.jpg,null,,,,,,,,,,,,,52,"68,22,79,3,36,44,2,19,5,59,52,57,50,38,41,32,18,53,9,23,54,28,45,8,14,21,39,25,7,17,34,74,75,76,10,15,40",,,,,,,,,,
land,224,818463,0.0-71.0-1.0,"""event"",""trial"",""time""
""fullscreenenter"",""1"",""10650""
","
","
","""event"",""trial"",""time""
""fullscreenenter"",""1"",""10650""
","
",,null,run_exp/static/images/task_images/land.jpg,null,,,,,,,93,,,11,,,,,,,,,,,,,,
dig,225,820471,0.0-71.0-2.0,"""event"",""trial"",""time""
""fullscreenenter"",""1"",""10650""
","
","
","""event"",""trial"",""time""
""fullscreenenter"",""1"",""10650""
","
",,,,,,,,,,,,"[{""stimulus"":""run_exp/static/images/task_images/dig.jpg"",""time"":0.7999999523162842},{""stimulus"":""run_exp/static/images/task_images/land.jpg"",""time"":679.6000000238419},{""stimulus"":""run_exp/static/images/task_images/dig.jpg"",""time"":1336.8999999761581}]",[],11,,,,,,,,,,,,,,
harvest,226,821481,0.0-71.0-3.0,"""event"",""trial"",""time""
""fullscreenenter"",""1"",""10650""
","
","
","""event"",""trial"",""time""
""fullscreenenter"",""1"",""10650""
","
",,null,run_exp/static/images/task_images/gems/93.jpg,null,,,,,,,15,,,11,,,,,93,0.165849383,0.161290323,,,,,,,
decision,227,822146,0.0-71.0-4.0,"""event"",""trial"",""time""
""fullscreenenter"",""1"",""10650""
","
","
","""event"",""trial"",""time""
""fullscreenenter"",""1"",""10650""
","
",,661.8000001,run_exp/static/images/task_images/land.jpg,65,,,,,,,15,,,11,,,,,,,,9204,2,0,FALSE,,,
dig,228,824501,0.0-72.0-0.0,"""event"",""trial"",""time""
""fullscreenenter"",""1"",""10650""
","
","
","""event"",""trial"",""time""
""fullscreenenter"",""1"",""10650""
","
",,,,,,,,,,,,"[{""stimulus"":""run_exp/static/images/task_images/dig.jpg"",""time"":0.6999999284744263},{""stimulus"":""run_exp/static/images/task_images/land.jpg"",""time"":785.6000000238419},{""stimulus"":""run_exp/static/images/task_images/dig.jpg"",""time"":1564.2999999523163}]",[],11,,,,,,,,,,,,,,
harvest,229,825511,0.0-72.0-1.0,"""event"",""trial"",""time""
""fullscreenenter"",""1"",""10650""
","
","
","""event"",""trial"",""time""
""fullscreenenter"",""1"",""10650""
","
",,null,run_exp/static/images/task_images/gems/15.jpg,null,,,,,,,3,,,11,,,,,15,0.208318429,0.2,,,,,,,
decision,230,825546,0.0-72.0-2.0,"""event"",""trial"",""time""
""fullscreenenter"",""1"",""10650""
","
","
","""event"",""trial"",""time""
""fullscreenenter"",""1"",""10650""
","
",,32,run_exp/static/images/task_images/land.jpg,65,,,,,,,3,,,11,,,,,,,,12604,2,1,FALSE,,,
dig,231,828529,0.0-73.0-0.0,"""event"",""trial"",""time""
""fullscreenenter"",""1"",""10650""
","
","
","""event"",""trial"",""time""
""fullscreenenter"",""1"",""10650""
","
",,,,,,,,,,,,"[{""stimulus"":""run_exp/static/images/task_images/dig.jpg"",""time"":0.5},{""stimulus"":""run_exp/static/images/task_images/land.jpg"",""time"":993.5},{""stimulus"":""run_exp/static/images/task_images/dig.jpg"",""time"":1983.7000000476837}]",[],11,,,,,,,,,,,,,,
harvest,232,829538,0.0-73.0-1.0,"""event"",""trial"",""time""
""fullscreenenter"",""1"",""10650""
","
","
","""event"",""trial"",""time""
""fullscreenenter"",""1"",""10650""
","
",,null,run_exp/static/images/task_images/gems/3.jpg,null,,,,,,,1,,,11,,,,,3,0.273747823,0.333333333,,,,,,,
decision,233,830735,0.0-73.0-2.0,"""event"",""trial"",""time""
""fullscreenenter"",""1"",""10650""
","
","
","""event"",""trial"",""time""
""fullscreenenter"",""1"",""10650""
","
",,1193.4,run_exp/static/images/task_images/land.jpg,76,,,,,,,1,,,11,,,,,,,,17792,2,2,TRUE,,,
travel,234,839554,0.0-74.0-0.0,"""event"",""trial"",""time""
""fullscreenenter"",""1"",""10650""
","
","
","""event"",""trial"",""time""
""fullscreenenter"",""1"",""10650""
","
",,,,,,,,,,,,"[{""stimulus"":""run_exp/static/images/task_images/rocket-01.jpg"",""time"":0.8000000715255737},{""stimulus"":""run_exp/static/images/task_images/rocket-02.jpg"",""time"":986.6000000238419},{""stimulus"":""run_exp/static/images/task_images/rocket-03.jpg"",""time"":1971.3999999761581},{""stimulus"":""run_exp/static/images/task_images/rocket-04.jpg"",""time"":2944.5},{""stimulus"":""run_exp/static/images/task_images/rocket-05.jpg"",""time"":3916.399999976158},{""stimulus"":""run_exp/static/images/task_images/rocket-06.jpg"",""time"":4896.600000023842},{""stimulus"":""run_exp/static/images/task_images/rocket-07.jpg"",""time"":5874.600000023842},{""stimulus"":""run_exp/static/images/task_images/rocket-08.jpg"",""time"":6854.399999976158},{""stimulus"":""run_exp/static/images/task_images/rocket-09.jpg"",""time"":7828.899999976158}]",[],11,,,,,,,,,,,,,,
alien_welcome,235,844560,0.0-74.0-1.0,"""event"",""trial"",""time""
""fullscreenenter"",""1"",""10650""
","
","
","""event"",""trial"",""time""
""fullscreenenter"",""1"",""10650""
","
",,null,run_exp/static/images/task_images/aliens/old_aliens/planet/alien_planet-57.jpg,null,,,,,,,,,,,,,57,"68,22,79,3,36,44,2,19,5,59,52,57,50,38,41,32,18,53,9,23,54,28,45,8,14,21,39,25,7,17,34,74,75,76,10,15,40",,,,,,,,,,
land,236,845073,0.0-74.0-2.0,"""event"",""trial"",""time""
""fullscreenenter"",""1"",""10650""
","
","
","""event"",""trial"",""time""
""fullscreenenter"",""1"",""10650""
","
",,null,run_exp/static/images/task_images/land.jpg,null,,,,,,,101,,,12,,,,,,,,,,,,,,
dig,237,847091,0.0-74.0-3.0,"""event"",""trial"",""time""
""fullscreenenter"",""1"",""10650""
","
","
","""event"",""trial"",""time""
""fullscreenenter"",""1"",""10650""
","
",,,,,,,,,,,,"[{""stimulus"":""run_exp/static/images/task_images/dig.jpg"",""time"":0.6999999284744263},{""stimulus"":""run_exp/static/images/task_images/land.jpg"",""time"":675.7999999523163},{""stimulus"":""run_exp/static/images/task_images/dig.jpg"",""time"":1344.3999999761581}]",[],12,,,,,,,,,,,,,,
harvest,238,848102,0.0-74.0-4.0,"""event"",""trial"",""time""
""fullscreenenter"",""1"",""10650""
","
","
","""event"",""trial"",""time""
""fullscreenenter"",""1"",""10650""
","
",,null,run_exp/static/images/task_images/gems/101.jpg,null,,,,,,,19,,,12,,,,,101,0.19055532,0.188118812,,,,,,,
decision,239,848481,0.0-74.0-5.0,"""event"",""trial"",""time""
""fullscreenenter"",""1"",""10650""
","
","
","""event"",""trial"",""time""
""fullscreenenter"",""1"",""10650""
","
",,375.5,run_exp/static/images/task_images/land.jpg,65,,,,,,,19,,,12,,,,,,,,35538,2,0,FALSE,,,
dig,240,851120,0.0-75.0-0.0,"""event"",""trial"",""time""
""fullscreenenter"",""1"",""10650""
","
","
","""event"",""trial"",""time""
""fullscreenenter"",""1"",""10650""
","
",,,,,,,,,,,,"[{""stimulus"":""run_exp/static/images/task_images/dig.jpg"",""time"":0.6000000238418579},{""stimulus"":""run_exp/static/images/task_images/land.jpg"",""time"":887.2000000476837},{""stimulus"":""run_exp/static/images/task_images/dig.jpg"",""time"":1758.2000000476837}]",[],12,,,,,,,,,,,,,,
harvest,241,852130,0.0-75.0-1.0,"""event"",""trial"",""time""
""fullscreenenter"",""1"",""10650""
","
","
","""event"",""trial"",""time""
""fullscreenenter"",""1"",""10650""
","
",,null,run_exp/static/images/task_images/gems/19.jpg,null,,,,,,,2,,,12,,,,,19,0.112180534,0.105263158,,,,,,,
decision,242,852380,0.0-75.0-2.0,"""event"",""trial"",""time""
""fullscreenenter"",""1"",""10650""
","
","
","""event"",""trial"",""time""
""fullscreenenter"",""1"",""10650""
","
",,246,run_exp/static/images/task_images/land.jpg,65,,,,,,,2,,,12,,,,,,,,39437,2,1,FALSE,,,
dig,243,855150,0.0-76.0-0.0,"""event"",""trial"",""time""
""fullscreenenter"",""1"",""10650""
","
","
","""event"",""trial"",""time""
""fullscreenenter"",""1"",""10650""
","
",,,,,,,,,,,,"[{""stimulus"":""run_exp/static/images/task_images/dig.jpg"",""time"":0.5999999046325684},{""stimulus"":""run_exp/static/images/task_images/land.jpg"",""time"":931},{""stimulus"":""run_exp/static/images/task_images/dig.jpg"",""time"":1840.2999999523163}]",[],12,,,,,,,,,,,,,,
harvest,244,856166,0.0-76.0-1.0,"""event"",""trial"",""time""
""fullscreenenter"",""1"",""10650""
","
","
","""event"",""trial"",""time""
""fullscreenenter"",""1"",""10650""
","
",,null,run_exp/static/images/task_images/gems/2.jpg,null,,,,,,,0,,,12,,,,,2,0.150597683,0,,,,,,,
decision,245,856552,0.0-76.0-2.0,"""event"",""trial"",""time""
""fullscreenenter"",""1"",""10650""
","
","
","""event"",""trial"",""time""
""fullscreenenter"",""1"",""10650""
","
",,382.5,run_exp/static/images/task_images/land.jpg,76,,,,,,,0,,,12,,,,,,,,43609,2,2,TRUE,,,
travel,246,866186,0.0-77.0-0.0,"""event"",""trial"",""time""
""fullscreenenter"",""1"",""10650""
","
","
","""event"",""trial"",""time""
""fullscreenenter"",""1"",""10650""
","
