trial_type,trial_index,time_elapsed,internal_node_id,interactions,blur_events,focus_events,fullscreenenter_events,fullscreenexit_events,success,rt,stimulus,key_press,prompt,subject_id,participant_id,age,gender,button_pressed,next_reward,animation_sequence,responses,planet,curr_prac_trial,n_prac_rounds,alien,aliens,reward_received,decay_rate_actual,decay_rate_exp,time_in_block,block_num,prt,last_trial_on_planet,button_html,bonus,num_failures
pavlovia,0,3,0.0-0.0,"""event"",""trial"",""time""
""fullscreenenter"",""1"",""2505""
","
","
","""event"",""trial"",""time""
""fullscreenenter"",""1"",""2505""
","
",,,,,,,,,,,,,,,,,,,,,,,,,,,,
fullscreen,1,3417,0.0-1.0,"""event"",""trial"",""time""
""fullscreenenter"",""1"",""2505""
","
","
","""event"",""trial"",""time""
""fullscreenenter"",""1"",""2505""
","
",TRUE,,,,,,,,,,,,,,,,,,,,,,,,,,,
instruc_welcome,2,13160,0.0-2.0,"""event"",""trial"",""time""
""fullscreenenter"",""1"",""2505""
","
","
","""event"",""trial"",""time""
""fullscreenenter"",""1"",""2505""
","
",,null,run_exp/static/audio/clip_1_welcome.m4a,null,"<p>Howdy! In this experiment, you’ll be an explorer traveling through space to collect space treasure.</p><p>Your mission is to collect as much treasure as possible.</p><br><br><p><img src='run_exp/static/images/task_images/opening_img-01.jpg' height='300' width='auto'></p>",14500,4300,24.75,Male,,,,,,,,,,,,,,,,,,,
audio-keyboard-response,3,29760,0.0-3.0,"""event"",""trial"",""time""
""fullscreenenter"",""1"",""2505""
","
","
","""event"",""trial"",""time""
""fullscreenenter"",""1"",""2505""
","
",,null,run_exp/static/audio/clip_2_move.m4a,null,,,,,,,,,,,,,,,,,,,,,,,,
welcome_dec,4,42016,0.0-4.0,"""event"",""trial"",""time""
""fullscreenenter"",""1"",""2505""
","
","
","""event"",""trial"",""time""
""fullscreenenter"",""1"",""2505""
","
",,12253.1,"<p>Howdy! In this experiment, you’ll be an explorer traveling through space to collect space treasure.</p><p>Your mission is to collect as much treasure as possible.</p><br><br><p><img src='run_exp/static/images/task_images/opening_img-01.jpg' height='300' width='auto'></p>",,,,,,,1,,,,,,,,,,,,,,,,,,
html-keyboard-response,5,43394,0.0-5.0,"""event"",""trial"",""time""
""fullscreenenter"",""1"",""2505""
","
","
","""event"",""trial"",""time""
""fullscreenenter"",""1"",""2505""
","
",,1375.5,"<p>Howdy! In this experiment, you’ll be an explorer traveling through space to collect space treasure.</p><p>Your mission is to collect as much treasure as possible.</p><br><br><p><img src='run_exp/static/images/task_images/opening_img-01.jpg' height='300' width='auto'></p><button class=""jspsych-html-btn-unchosen""><img src=""run_exp/static/images/task_images/planet-01.jpg"" height=""50""></button><button class=""jspsych-html-btn-chosen""><img src=""run_exp/static/images/task_images/planet-02.jpg"" height=""50""></button><p><b>[press the space bar to lock in your answer]<b><br></p>",32,,,,,,,,,,,,,,,,,,,,,,,,
instruc_goal,6,53428,0.0-6.0-0.0,"""event"",""trial"",""time""
""fullscreenenter"",""1"",""2505""
","
","
","""event"",""trial"",""time""
""fullscreenenter"",""1"",""2505""
","
",,null,run_exp/static/audio/clip_3_goal.m4a,null,"<p> As a space explorer, you’ll visit different planets to dig for space treasure, these pink gems.</p> <p> The more treasure you dig up, the more bonus money you’ll win! </p><br><br><p><img src='run_exp/static/images/task_images/pink_gem.jpg' height='300' width='auto'></p>",,,,,,,,,,,,,,,,,,,,,,,
instruc_goal,7,54839,0.0-6.0-1.0,"""event"",""trial"",""time""
""fullscreenenter"",""1"",""2505""
","
","
","""event"",""trial"",""time""
""fullscreenenter"",""1"",""2505""
","
",,1409.2,"<p> As a space explorer, you’ll visit different planets to dig for space treasure, these pink gems.</p> <p> The more treasure you dig up, the more bonus money you’ll win! </p><br><br><p><img src='run_exp/static/images/task_images/pink_gem.jpg' height='300' width='auto'></p>",,,,,,,1,,,,,,,,,,,,,,,,,,
html-keyboard-response,8,55382,0.0-6.0-2.0,"""event"",""trial"",""time""
""fullscreenenter"",""1"",""2505""
","
","
","""event"",""trial"",""time""
""fullscreenenter"",""1"",""2505""
","
",,541.4,"<p> As a space explorer, you’ll visit different planets to dig for space treasure, these pink gems.</p> <p> The more treasure you dig up, the more bonus money you’ll win! </p><br><br><p><img src='run_exp/static/images/task_images/pink_gem.jpg' height='300' width='auto'></p><button class=""jspsych-html-btn-unchosen""><img src=""run_exp/static/images/task_images/planet-01.jpg"" height=""50""></button><button class=""jspsych-html-btn-chosen""><img src=""run_exp/static/images/task_images/planet-02.jpg"" height=""50""></button><p><b>[press the space bar to lock in your answer]<b><br></p>",32,,,,,,,,,,,,,,,,,,,,,,,,
instruc_dig,9,71388,0.0-7.0-0.0,"""event"",""trial"",""time""
""fullscreenenter"",""1"",""2505""
","
","
","""event"",""trial"",""time""
""fullscreenenter"",""1"",""2505""
","
",,null,run_exp/static/audio/clip_4_dig.m4a,null,,,,,,,100,,,,,,,,,,,,,,,,,
instruc_dig_try,10,71838,0.0-7.0-1.0,"""event"",""trial"",""time""
""fullscreenenter"",""1"",""2505""
","
","
","""event"",""trial"",""time""
""fullscreenenter"",""1"",""2505""
","
",,447.8,"<p> When you’ve arrived at a new planet, you will dig once. </p> <p>Then, you get to decide if you want to stay on the planet and dig again or travel to a new planet and dig there.</p> <p> To stay and dig, press the letter <strong>‘A’</strong> on your keyboard. Try pressing it now! </p><p><img src='run_exp/static/images/task_images/land.jpg'  height='700' width='auto'></p>",65,"<p> When you’ve arrived at a new planet, you will dig once. </p> <p>Then, you get to decide if you want to stay on the planet and dig again or travel to a new planet and dig there.</p> <p> To stay and dig, press the letter <strong>‘A’</strong> on your keyboard. Try pressing it now! </p><p><img src='run_exp/static/images/task_images/land.jpg'  height='700' width='auto'></p>",,,,,,100,,,,,,,,,,,,,,,,,
dig_prac,11,73848,0.0-7.0-2.0,"""event"",""trial"",""time""
""fullscreenenter"",""1"",""2505""
","
","
","""event"",""trial"",""time""
""fullscreenenter"",""1"",""2505""
","
",,,,,,,,,,,,"[{""stimulus"":""run_exp/static/images/task_images/dig.jpg"",""time"":0.20000000298023224},{""stimulus"":""run_exp/static/images/task_images/land.jpg"",""time"":671.6000000014901},{""stimulus"":""run_exp/static/images/task_images/dig.jpg"",""time"":1338}]",[],,,,,,,,,,,,,,,
instruc_travel,12,110109,0.0-7.0-3.0,"""event"",""trial"",""time""
""fullscreenenter"",""1"",""2505""
","
","
","""event"",""trial"",""time""
""fullscreenenter"",""1"",""2505""
","
",,null,run_exp/static/audio/clip_5_travel.m4a,null,"<p>Every time you dig up gems, there are less gems on the planet, so the more you dig on a planet the fewer gems you’ll get with each dig.</p><p>When gems are running low, you may want to travel to a new planet. </p> <p>  Planets are very far apart in this galaxy, so it will take some time to travel between them. </p> <br><p>There are lots and lots of planets for you to visit, so you won’t be able to return to any planets you’ve seen before. </p><br><p>To leave this planet and travel to a new one, press the letter <strong>‘L’</strong> on your keyboard. Try pressing it now! </p><p><img src='run_exp/static/images/task_images/rocket-01.jpg'  height='600' width='auto'></p>",,,,,,,,,,,,,,,,,,,,,,,
instruc_travel_try,13,110754,0.0-7.0-4.0,"""event"",""trial"",""time""
""fullscreenenter"",""1"",""2505""
","
","
","""event"",""trial"",""time""
""fullscreenenter"",""1"",""2505""
","
",,643.8,"<p>Every time you dig up gems, there are less gems on the planet, so the more you dig on a planet the fewer gems you’ll get with each dig.</p><p>When gems are running low, you may want to travel to a new planet. </p> <p>  Planets are very far apart in this galaxy, so it will take some time to travel between them. </p> <br><p>There are lots and lots of planets for you to visit, so you won’t be able to return to any planets you’ve seen before. </p><br><p>To leave this planet and travel to a new one, press the letter <strong>‘L’</strong> on your keyboard. Try pressing it now! </p><p><img src='run_exp/static/images/task_images/rocket-01.jpg'  height='600' width='auto'></p>",76,"<p>Every time you dig up gems, there are less gems on the planet, so the more you dig on a planet the fewer gems you’ll get with each dig.</p><p>When gems are running low, you may want to travel to a new planet. </p> <p>  Planets are very far apart in this galaxy, so it will take some time to travel between them. </p> <br><p>There are lots and lots of planets for you to visit, so you won’t be able to return to any planets you’ve seen before. </p><br><p>To leave this planet and travel to a new one, press the letter <strong>‘L’</strong> on your keyboard. Try pressing it now! </p><p><img src='run_exp/static/images/task_images/rocket-01.jpg'  height='600' width='auto'></p>",,,,,,,,,,,,,,,,,,,,,,,
travel_prac,14,120757,0.0-7.0-5.0,"""event"",""trial"",""time""
""fullscreenenter"",""1"",""2505""
","
","
","""event"",""trial"",""time""
""fullscreenenter"",""1"",""2505""
","
",,,,,,,,,,,,"[{""stimulus"":""run_exp/static/images/task_images/rocket-01.jpg"",""time"":0.19999999552965164},{""stimulus"":""run_exp/static/images/task_images/rocket-02.jpg"",""time"":1112},{""stimulus"":""run_exp/static/images/task_images/rocket-03.jpg"",""time"":2226.5},{""stimulus"":""run_exp/static/images/task_images/rocket-04.jpg"",""time"":3334.5999999940395},{""stimulus"":""run_exp/static/images/task_images/rocket-05.jpg"",""time"":4451.79999999702},{""stimulus"":""run_exp/static/images/task_images/rocket-06.jpg"",""time"":5560.0999999940395},{""stimulus"":""run_exp/static/images/task_images/rocket-07.jpg"",""time"":6667.0999999940395},{""stimulus"":""run_exp/static/images/task_images/rocket-08.jpg"",""time"":7777.89999999851},{""stimulus"":""run_exp/static/images/task_images/rocket-09.jpg"",""time"":8893.59999999404}]",[],0,,,,,,,,,,,,,,
instruc_alien_greet,15,147940,0.0-7.0-6.0,"""event"",""trial"",""time""
""fullscreenenter"",""1"",""2505""
","
","
","""event"",""trial"",""time""
""fullscreenenter"",""1"",""2505""
","
",,null,run_exp/static/audio/clip_6_alien.m4a,null,"<p>When you arrive at a new planet, the alien who owns the treasure mine on that planet will greet you!</p><p>The better an alien takes care of their mine the easier it is to dig for gems. Some aliens take better care of their mine than others. So, you won’t get exactly the same amount of gems on each planet.</p><p>What the alien looks like does not tell you anything about how many gems there are on the planet.</p><br><p><img src=""run_exp/static/images/task_images/aliens/instructions_aliens/planet/alien_planet-1.jpg""  height=""600"" width=""auto""></p>",,,,,,,,,,,,,,,,,,,,,,,
instruc_alien_greet,16,156348,0.0-7.0-7.0,"""event"",""trial"",""time""
""fullscreenenter"",""1"",""2505""
","
","
","""event"",""trial"",""time""
""fullscreenenter"",""1"",""2505""
","
",,8405.1,"<p>When you arrive at a new planet, the alien who owns the treasure mine on that planet will greet you!</p><p>The better an alien takes care of their mine the easier it is to dig for gems. Some aliens take better care of their mine than others. So, you won’t get exactly the same amount of gems on each planet.</p><p>What the alien looks like does not tell you anything about how many gems there are on the planet.</p><br><p><img src=""run_exp/static/images/task_images/aliens/instructions_aliens/planet/alien_planet-1.jpg""  height=""600"" width=""auto""></p>",,,,,,,1,,,,,,,,,,,,,,,,,,
html-keyboard-response,17,157497,0.0-7.0-8.0,"""event"",""trial"",""time""
""fullscreenenter"",""1"",""2505""
","
","
","""event"",""trial"",""time""
""fullscreenenter"",""1"",""2505""
","
",,1147.5,"<p>When you arrive at a new planet, the alien who owns the treasure mine on that planet will greet you!</p><p>The better an alien takes care of their mine the easier it is to dig for gems. Some aliens take better care of their mine than others. So, you won’t get exactly the same amount of gems on each planet.</p><p>What the alien looks like does not tell you anything about how many gems there are on the planet.</p><br><p><img src=""run_exp/static/images/task_images/aliens/instructions_aliens/planet/alien_planet-1.jpg""  height=""600"" width=""auto""></p><button class=""jspsych-html-btn-unchosen""><img src=""run_exp/static/images/task_images/planet-01.jpg"" height=""50""></button><button class=""jspsych-html-btn-chosen""><img src=""run_exp/static/images/task_images/planet-02.jpg"" height=""50""></button><p><b>[press the space bar to lock in your answer]<b><br></p>",32,,,,,,,,,,,,,,,,,,,,,,,,
time_out,18,168601,0.0-8.0-0.0,"""event"",""trial"",""time""
""fullscreenenter"",""1"",""2505""
","
","
","""event"",""trial"",""time""
""fullscreenenter"",""1"",""2505""
","
",,null,run_exp/static/audio/clip_7_timeout.m4a,null,"<p>If you don't make your choice fast enough, you’ll have to wait a few seconds before you can make another one.</p><p>You can’t dig for more gems or travel to new planets. You just have to sit and wait.</p><br><p><img src='run_exp/static/images/task_images/time_out.jpg'  height='600' width='auto'></p>",,,,,,,,,,,,,,,,,,,,,,,
time_out,19,171211,0.0-8.0-1.0,"""event"",""trial"",""time""
""fullscreenenter"",""1"",""2505""
","
","
","""event"",""trial"",""time""
""fullscreenenter"",""1"",""2505""
","
",,2607.4,"<p>If you don't make your choice fast enough, you’ll have to wait a few seconds before you can make another one.</p><p>You can’t dig for more gems or travel to new planets. You just have to sit and wait.</p><br><p><img src='run_exp/static/images/task_images/time_out.jpg'  height='600' width='auto'></p>",,,,,,,1,,,,,,,,,,,,,,,,,,
html-keyboard-response,20,171665,0.0-8.0-2.0,"""event"",""trial"",""time""
""fullscreenenter"",""1"",""2505""
","
","
","""event"",""trial"",""time""
""fullscreenenter"",""1"",""2505""
","
",,452.9,"<p>If you don't make your choice fast enough, you’ll have to wait a few seconds before you can make another one.</p><p>You can’t dig for more gems or travel to new planets. You just have to sit and wait.</p><br><p><img src='run_exp/static/images/task_images/time_out.jpg'  height='600' width='auto'></p><button class=""jspsych-html-btn-unchosen""><img src=""run_exp/static/images/task_images/planet-01.jpg"" height=""50""></button><button class=""jspsych-html-btn-chosen""><img src=""run_exp/static/images/task_images/planet-02.jpg"" height=""50""></button><p><b>[press the space bar to lock in your answer]<b><br></p>",32,,,,,,,,,,,,,,,,,,,,,,,,
instruc_break,21,187341,0.0-9.0-0.0,"""event"",""trial"",""time""
""fullscreenenter"",""1"",""2505""
","
","
","""event"",""trial"",""time""
""fullscreenenter"",""1"",""2505""
","
",,null,run_exp/static/audio/clip_8_break.m4a,null,"<p> After digging and traveling for a while, you’ll be able to take a break at home base. </p><p>The game will last 20 minutes no matter what.</p><p>You will visit home base every 5 minutes, so, you will visit home base three times during the game.</p><br><p><img src='run_exp/static/images/task_images/home_base.jpg' height='600' width='auto'></p>",,,,,,,,,,,,,,,,,,,,,,,
instruc_break,22,188936,0.0-9.0-1.0,"""event"",""trial"",""time""
""fullscreenenter"",""1"",""2505""
","
","
","""event"",""trial"",""time""
""fullscreenenter"",""1"",""2505""
","
",,1591.2,"<p> After digging and traveling for a while, you’ll be able to take a break at home base. </p><p>The game will last 20 minutes no matter what.</p><p>You will visit home base every 5 minutes, so, you will visit home base three times during the game.</p><br><p><img src='run_exp/static/images/task_images/home_base.jpg' height='600' width='auto'></p>",,,,,,,1,,,,,,,,,,,,,,,,,,
html-keyboard-response,23,189987,0.0-9.0-2.0,"""event"",""trial"",""time""
""fullscreenenter"",""1"",""2505""
","
","
","""event"",""trial"",""time""
""fullscreenenter"",""1"",""2505""
","
",,1049.5,"<p> After digging and traveling for a while, you’ll be able to take a break at home base. </p><p>The game will last 20 minutes no matter what.</p><p>You will visit home base every 5 minutes, so, you will visit home base three times during the game.</p><br><p><img src='run_exp/static/images/task_images/home_base.jpg' height='600' width='auto'></p><button class=""jspsych-html-btn-unchosen""><img src=""run_exp/static/images/task_images/planet-01.jpg"" height=""50""></button><button class=""jspsych-html-btn-chosen""><img src=""run_exp/static/images/task_images/planet-02.jpg"" height=""50""></button><p><b>[press the space bar to lock in your answer]<b><br></p>",32,,,,,,,,,,,,,,,,,,,,,,,,
instruc_prac_game,24,200122,0.0-10.0-0.0,"""event"",""trial"",""time""
""fullscreenenter"",""1"",""2505""
","
","
","""event"",""trial"",""time""
""fullscreenenter"",""1"",""2505""
","
",,null,run_exp/static/audio/clip_9_practice.m4a,null,"<p> Are you ready to play a practice game? </p> <p>In this practice game, you'll be digging up barrels of gems. But, in the real game, you'll be digging up the gems themselves. </p>",,,,,,,,,,,,,,,,,,,,,,,
html-button-response,25,201739,0.0-10.0-1.0,"""event"",""trial"",""time""
""fullscreenenter"",""1"",""2505""
","
","
","""event"",""trial"",""time""
""fullscreenenter"",""1"",""2505""
","
",,1616.1,"<p> Are you ready to play a practice game? </p> <p>In this practice game, you'll be digging up barrels of gems. But, in the real game, you'll be digging up the gems themselves. </p>",,,,,,,0,,,,,,,,,,,,,,,,,,
alien_welcome_prac,26,206742,0.0-11.0-0.0,"""event"",""trial"",""time""
""fullscreenenter"",""1"",""2505""
","
","
","""event"",""trial"",""time""
""fullscreenenter"",""1"",""2505""
","
",,null,run_exp/static/images/task_images/aliens/practice_aliens/planet/alien_planet-5.jpg,null,,,,,,,,,,,,,,,,,,,,,,,,
land_prac,27,207244,0.0-11.0-1.0,"""event"",""trial"",""time""
""fullscreenenter"",""1"",""2505""
","
","
","""event"",""trial"",""time""
""fullscreenenter"",""1"",""2505""
","
",,null,run_exp/static/images/task_images/land.jpg,null,,,,,,,103,,,0,,,,,,,,,,,,,,
dig_prac,28,209253,0.0-11.0-2.0,"""event"",""trial"",""time""
""fullscreenenter"",""1"",""2505""
","
","
","""event"",""trial"",""time""
""fullscreenenter"",""1"",""2505""
","
",,,,,,,,,,,,"[{""stimulus"":""run_exp/static/images/task_images/dig.jpg"",""time"":0.10000000149011612},{""stimulus"":""run_exp/static/images/task_images/land.jpg"",""time"":668.6000000014901},{""stimulus"":""run_exp/static/images/task_images/dig.jpg"",""time"":1335.6000000014901}]",[],,,,,,,,,,,,,,,
harvest_prac,29,210257,0.0-11.0-3.0,"""event"",""trial"",""time""
""fullscreenenter"",""1"",""2505""
","
","
","""event"",""trial"",""time""
""fullscreenenter"",""1"",""2505""
","
",,null,run_exp/static/images/task_images/barrel_text.jpg,null,,,,,,,,,,,,,,,,,,,,,,,,
decision_prac,30,210996,0.0-11.0-4.0,"""event"",""trial"",""time""
""fullscreenenter"",""1"",""2505""
","
","
","""event"",""trial"",""time""
""fullscreenenter"",""1"",""2505""
","
",,737.6,run_exp/static/images/task_images/land.jpg,65,,,,,,,,,,,1,,,,,,,,,,,,,
dig_prac,31,213003,0.0-12.0-0.0,"""event"",""trial"",""time""
""fullscreenenter"",""1"",""2505""
","
","
","""event"",""trial"",""time""
""fullscreenenter"",""1"",""2505""
","
",,,,,,,,,,,,"[{""stimulus"":""run_exp/static/images/task_images/dig.jpg"",""time"":0},{""stimulus"":""run_exp/static/images/task_images/land.jpg"",""time"":671.5},{""stimulus"":""run_exp/static/images/task_images/dig.jpg"",""time"":1334.5999999940395}]",[],,,,,,,,,,,,,,,
harvest_prac,32,214004,0.0-12.0-1.0,"""event"",""trial"",""time""
""fullscreenenter"",""1"",""2505""
","
","
","""event"",""trial"",""time""
""fullscreenenter"",""1"",""2505""
","
",,null,run_exp/static/images/task_images/barrel_text.jpg,null,,,,,,,,,,,,,,,,,,,,,,,,
decision_prac,33,214980,0.0-12.0-2.0,"""event"",""trial"",""time""
""fullscreenenter"",""1"",""2505""
","
","
","""event"",""trial"",""time""
""fullscreenenter"",""1"",""2505""
","
",,974.8,run_exp/static/images/task_images/land.jpg,65,,,,,,,,,,,2,,,,,,,,,,,,,
dig_prac,34,216986,0.0-13.0-0.0,"""event"",""trial"",""time""
""fullscreenenter"",""1"",""2505""
","
","
","""event"",""trial"",""time""
""fullscreenenter"",""1"",""2505""
","
",,,,,,,,,,,,"[{""stimulus"":""run_exp/static/images/task_images/dig.jpg"",""time"":0.19999999552965164},{""stimulus"":""run_exp/static/images/task_images/land.jpg"",""time"":671.5},{""stimulus"":""run_exp/static/images/task_images/dig.jpg"",""time"":1338.1000000014901}]",[],,,,,,,,,,,,,,,
harvest_prac,35,217995,0.0-13.0-1.0,"""event"",""trial"",""time""
""fullscreenenter"",""1"",""2505""
","
","
","""event"",""trial"",""time""
""fullscreenenter"",""1"",""2505""
","
",,null,run_exp/static/images/task_images/barrel_text.jpg,null,,,,,,,,,,,,,,,,,,,,,,,,
decision_prac,36,219231,0.0-13.0-2.0,"""event"",""trial"",""time""
""fullscreenenter"",""1"",""2505""
","
","
","""event"",""trial"",""time""
""fullscreenenter"",""1"",""2505""
","
",,1235.6,run_exp/static/images/task_images/land.jpg,65,,,,,,,,,,,3,,,,,,,,,,,,,
dig_prac,37,221236,0.0-14.0-0.0,"""event"",""trial"",""time""
""fullscreenenter"",""1"",""2505""
","
","
","""event"",""trial"",""time""
""fullscreenenter"",""1"",""2505""
","
",,,,,,,,,,,,"[{""stimulus"":""run_exp/static/images/task_images/dig.jpg"",""time"":0.09999999403953552},{""stimulus"":""run_exp/static/images/task_images/land.jpg"",""time"":668.1999999955297},{""stimulus"":""run_exp/static/images/task_images/dig.jpg"",""time"":1336}]",[],,,,,,,,,,,,,,,
harvest_prac,38,222245,0.0-14.0-1.0,"""event"",""trial"",""time""
""fullscreenenter"",""1"",""2505""
","
","
","""event"",""trial"",""time""
""fullscreenenter"",""1"",""2505""
","
",,null,run_exp/static/images/task_images/barrel_text.jpg,null,,,,,,,,,,,,,,,,,,,,,,,,
decision_prac,39,223018,0.0-14.0-2.0,"""event"",""trial"",""time""
""fullscreenenter"",""1"",""2505""
","
","
","""event"",""trial"",""time""
""fullscreenenter"",""1"",""2505""
","
",,771.9,run_exp/static/images/task_images/land.jpg,65,,,,,,,,,,,4,,,,,,,,,,,,,
dig_prac,40,225022,0.0-15.0-0.0,"""event"",""trial"",""time""
""fullscreenenter"",""1"",""2505""
","
","
","""event"",""trial"",""time""
""fullscreenenter"",""1"",""2505""
","
",,,,,,,,,,,,"[{""stimulus"":""run_exp/static/images/task_images/dig.jpg"",""time"":0.19999999552965164},{""stimulus"":""run_exp/static/images/task_images/land.jpg"",""time"":674.5},{""stimulus"":""run_exp/static/images/task_images/dig.jpg"",""time"":1335.5}]",[],,,,,,,,,,,,,,,
harvest_prac,41,226023,0.0-15.0-1.0,"""event"",""trial"",""time""
""fullscreenenter"",""1"",""2505""
","
","
","""event"",""trial"",""time""
""fullscreenenter"",""1"",""2505""
","
",,null,run_exp/static/images/task_images/barrel_text.jpg,null,,,,,,,,,,,,,,,,,,,,,,,,
decision_prac,42,227330,0.0-15.0-2.0,"""event"",""trial"",""time""
""fullscreenenter"",""1"",""2505""
","
","
","""event"",""trial"",""time""
""fullscreenenter"",""1"",""2505""
","
",,1306.3,run_exp/static/images/task_images/land.jpg,65,,,,,,,,,,,,1,,,,,,,,,,,,
quiz_instruc,43,230490,0.0-16.0-0.0,"""event"",""trial"",""time""
""fullscreenenter"",""1"",""2505""
","
","
","""event"",""trial"",""time""
""fullscreenenter"",""1"",""2505""
","
",,3157.1,run_exp/static/audio/clip_10_quiz.m4a,,,,,,,0,,,,,,,,,,,,,,,,,,
instruc_repeat,44,273264,0.0-16.0-1.0,"""event"",""trial"",""time""
""fullscreenenter"",""1"",""2505""
","
","
","""event"",""trial"",""time""
""fullscreenenter"",""1"",""2505""
","
",,null,"<p> Are you ready to play a practice game? </p> <p>In this practice game, you'll be digging up barrels of gems. But, in the real game, you'll be digging up the gems themselves. </p>",null,"<p>In this game, your goal is to collect as many gems as you can. That’s how you will win bonus money. </p> <p>The entire game will last 20 minutes no matter how many gems you collect or how many planets you visit. </p><p>To stay on a planet and dig again, press the letter A on your keyboard. To leave for a new planet, press the letter L.</p><p>The more you dig on a planet, the fewer gems you’ll get with each dig which is why you might consider leaving for a new planet. </p><p>When you arrive at a new planet, you’ll be greeted by an alien. What the alien looks like does not tell you anything about how much treasure is on the planet. </p>",,,,,,,,,,,,,,,,,,,,,,,
instruc_repeat_continue,45,276045,0.0-16.0-2.0,"""event"",""trial"",""time""
""fullscreenenter"",""1"",""2505""
","
","
","""event"",""trial"",""time""
""fullscreenenter"",""1"",""2505""
","
",,2779.9,"<p> Are you ready to play a practice game? </p> <p>In this practice game, you'll be digging up barrels of gems. But, in the real game, you'll be digging up the gems themselves. </p>",,,,,,,0,,,,,,,,,,,,,,,,,,
quiz_q_1_ask,46,281185,0.0-16.0-3.0,"""event"",""trial"",""time""
""fullscreenenter"",""1"",""2505""
","
","
","""event"",""trial"",""time""
""fullscreenenter"",""1"",""2505""
","
",,5138.4,run_exp/static/audio/clip_11_q1_ask.m4a,,,,,,,2,,,,,,,,,,,,,,,,,,
quiz_q_1_fb_correct,47,285063,0.0-17.0-0.0,"""event"",""trial"",""time""
""fullscreenenter"",""1"",""2505""
","
","
","""event"",""trial"",""time""
""fullscreenenter"",""1"",""2505""
","
",,null,run_exp/static/audio/clip_12_q1_correct.m4a,null,<p>That’s correct. You win extra money by collecting more gems.</p>,,,,,,,,,,,,,,,,,,,,,,,
quiz_q_2_ask,48,290343,0.0-17.0-1.0,"""event"",""trial"",""time""
""fullscreenenter"",""1"",""2505""
","
","
","""event"",""trial"",""time""
""fullscreenenter"",""1"",""2505""
","
",,5277.5,run_exp/static/audio/clip_14_q2_ask.m4a,,,,,,,1,,,,,,,,,,,,,,,,,,
quiz_q_2_fb_correct,49,294364,0.0-18.0-0.0,"""event"",""trial"",""time""
""fullscreenenter"",""1"",""2505""
","
","
","""event"",""trial"",""time""
""fullscreenenter"",""1"",""2505""
","
",,null,run_exp/static/audio/clip_15_q2_correct.m4a,null,<p>That’s correct. The experiment is 20 minutes no matter what.</p>,,,,,,,,,,,,,,,,,,,,,,,
quiz_q_3_ask,50,300519,0.0-18.0-1.0,"""event"",""trial"",""time""
""fullscreenenter"",""1"",""2505""
","
","
","""event"",""trial"",""time""
""fullscreenenter"",""1"",""2505""
","
",,6152.3,run_exp/static/audio/clip_17_q3_ask.m4a,,,,,,,1,,,,,,,,,,,,,,,,,,
quiz_q_3_fb_correct,51,304505,0.0-19.0-0.0,"""event"",""trial"",""time""
""fullscreenenter"",""1"",""2505""
","
","
","""event"",""trial"",""time""
""fullscreenenter"",""1"",""2505""
","
",,null,run_exp/static/audio/clip_18_q3_correct.m4a,null,<p> That’s correct. You press the letter L to travel to a new planet.</p>,,,,,,,,,,,,,,,,,,,,,,,
quiz_q_4_ask,52,308182,0.0-19.0-1.0,"""event"",""trial"",""time""
""fullscreenenter"",""1"",""2505""
","
","
","""event"",""trial"",""time""
""fullscreenenter"",""1"",""2505""
","
",,3675.8,run_exp/static/audio/clip_20_q4_ask.m4a,,,,,,,0,,,,,,,,,,,,,,,,,,
quiz_q_4_fb_correct,53,313505,0.0-20.0-0.0,"""event"",""trial"",""time""
""fullscreenenter"",""1"",""2505""
","
","
","""event"",""trial"",""time""
""fullscreenenter"",""1"",""2505""
","
",,null,run_exp/static/audio/clip_21_q4_correct.m4a,null,<p> That’s correct. The more you dig on a planet the fewer gems you’ll get with each dig. </p>,,,,,,,,,,,,,,,,,,,,,,,
quiz_q_5_ask,54,316349,0.0-20.0-1.0,"""event"",""trial"",""time""
""fullscreenenter"",""1"",""2505""
","
","
","""event"",""trial"",""time""
""fullscreenenter"",""1"",""2505""
","
",,2842.3,run_exp/static/audio/clip_23_q5_ask.m4a,,,,,,,1,,,,,,,,,,,,,,,,,,
quiz_q_5_fb_correct,55,321365,0.0-21.0-0.0,"""event"",""trial"",""time""
""fullscreenenter"",""1"",""2505""
","
","
","""event"",""trial"",""time""
""fullscreenenter"",""1"",""2505""
","
",,null,run_exp/static/audio/clip_24_q5_correct.m4a,null,<p> That’s correct. The alien tells you nothing about how much treasure is on the planet.</p>,,,,,,,,,,,,,,,,,,,,,,,
quiz_correct,56,324825,0.0-22.0-0.0,"""event"",""trial"",""time""
""fullscreenenter"",""1"",""2505""
","
","
","""event"",""trial"",""time""
""fullscreenenter"",""1"",""2505""
","
",,null,run_exp/static/audio/clip_26_correct_quiz.m4a,null,,,,,,,,,,,,,,,,,,,,,,,,
quiz_correct_continue,57,326843,0.0-22.0-1.0,"""event"",""trial"",""time""
""fullscreenenter"",""1"",""2505""
","
","
","""event"",""trial"",""time""
""fullscreenenter"",""1"",""2505""
","
",,2016.9,<p>Good job! You're now ready to move on to the real game!</p>,,,,,,,0,,,,,,,,,,,,,,,,,,
audio-keyboard-response,58,337006,0.0-22.0-2.0,"""event"",""trial"",""time""
""fullscreenenter"",""1"",""2505""
","
","
","""event"",""trial"",""time""
""fullscreenenter"",""1"",""2505""
","
",,null,run_exp/static/audio/clip_28_real_game.m4a,null,,,,,,,,,,,,,,,,,,,,,,,,
instruc_begin_exp_contine,59,338639,0.0-22.0-3.0,"""event"",""trial"",""time""
""fullscreenenter"",""1"",""2505""
","
","
","""event"",""trial"",""time""
""fullscreenenter"",""1"",""2505""
","
",,1631.9,"<p>Now that you know how  to dig for space treasure and travel to new planets,you can start exploring! </p><p>Do you want to go over the instructions again or get started with the real game?</p>",,,,,,,1,,,,,,1,,,,,,,,,,,,
alien_welcome,60,343649,0.0-23.0-0.0,"""event"",""trial"",""time""
""fullscreenenter"",""1"",""2505""
","
","
","""event"",""trial"",""time""
""fullscreenenter"",""1"",""2505""
","
",,null,run_exp/static/images/task_images/aliens/old_aliens/planet/alien_planet-71.jpg,null,,,,,,,,,,,,,71,"71,75,69,4,8,80,55,5,47,38,62,13,14,29,57,35,20,9,43,6,40,60,52,53,42,39,18,61,41,59,27,74,65,33,58,64,7,66,11",,,,,,,,,,
land,61,344157,0.0-23.0-1.0,"""event"",""trial"",""time""
""fullscreenenter"",""1"",""2505""
","
","
","""event"",""trial"",""time""
""fullscreenenter"",""1"",""2505""
","
",,null,run_exp/static/images/task_images/land.jpg,null,,,,,,,94,,,1,,,,,,,,,,,,,,
dig,62,346162,0.0-23.0-2.0,"""event"",""trial"",""time""
""fullscreenenter"",""1"",""2505""
","
","
","""event"",""trial"",""time""
""fullscreenenter"",""1"",""2505""
","
",,,,,,,,,,,,"[{""stimulus"":""run_exp/static/images/task_images/dig.jpg"",""time"":0.10000000149011612},{""stimulus"":""run_exp/static/images/task_images/land.jpg"",""time"":673.7999999970198},{""stimulus"":""run_exp/static/images/task_images/dig.jpg"",""time"":1340.7000000029802}]",[],1,,,,,,,,,,,,,,
harvest,63,347166,0.0-23.0-3.0,"""event"",""trial"",""time""
""fullscreenenter"",""1"",""2505""
","
","
","""event"",""trial"",""time""
""fullscreenenter"",""1"",""2505""
","
",,null,run_exp/static/images/task_images/gems/94.jpg,null,,,,,,,15,,,1,,,,,94,0.15730475,0.159574468,,,,,,,
decision,64,347275,0.0-23.0-4.0,"""event"",""trial"",""time""
""fullscreenenter"",""1"",""2505""
","
","
","""event"",""trial"",""time""
""fullscreenenter"",""1"",""2505""
","
",,107.7,run_exp/static/images/task_images/land.jpg,65,,,,,,,15,,,1,,,,,,,,8634,1,0,FALSE,,,
dig,65,350175,0.0-24.0-0.0,"""event"",""trial"",""time""
""fullscreenenter"",""1"",""2505""
","
","
","""event"",""trial"",""time""
""fullscreenenter"",""1"",""2505""
","
",,,,,,,,,,,,"[{""stimulus"":""run_exp/static/images/task_images/dig.jpg"",""time"":0},{""stimulus"":""run_exp/static/images/task_images/land.jpg"",""time"":972.9000000059605},{""stimulus"":""run_exp/static/images/task_images/dig.jpg"",""time"":1929.2000000029802}]",[],1,,,,,,,,,,,,,,
harvest,66,351177,0.0-24.0-1.0,"""event"",""trial"",""time""
""fullscreenenter"",""1"",""2505""
","
","
","""event"",""trial"",""time""
""fullscreenenter"",""1"",""2505""
","
",,null,run_exp/static/images/task_images/gems/15.jpg,null,,,,,,,2,,,1,,,,,15,0.156878503,0.133333333,,,,,,,
decision,67,351982,0.0-24.0-2.0,"""event"",""trial"",""time""
""fullscreenenter"",""1"",""2505""
","
","
","""event"",""trial"",""time""
""fullscreenenter"",""1"",""2505""
","
",,804,run_exp/static/images/task_images/land.jpg,76,,,,,,,2,,,1,,,,,,,,13341,1,1,TRUE,,,
travel,68,361175,0.0-25.0-0.0,"""event"",""trial"",""time""
""fullscreenenter"",""1"",""2505""
","
","
","""event"",""trial"",""time""
""fullscreenenter"",""1"",""2505""
","
",,,,,,,,,,,,"[{""stimulus"":""run_exp/static/images/task_images/rocket-01.jpg"",""time"":0.10000000149011612},{""stimulus"":""run_exp/static/images/task_images/rocket-02.jpg"",""time"":1024},{""stimulus"":""run_exp/static/images/task_images/rocket-03.jpg"",""time"":2042.6000000014901},{""stimulus"":""run_exp/static/images/task_images/rocket-04.jpg"",""time"":3065.89999999851},{""stimulus"":""run_exp/static/images/task_images/rocket-05.jpg"",""time"":4087.5},{""stimulus"":""run_exp/static/images/task_images/rocket-06.jpg"",""time"":5107.70000000298},{""stimulus"":""run_exp/static/images/task_images/rocket-07.jpg"",""time"":6128.10000000149},{""stimulus"":""run_exp/static/images/task_images/rocket-08.jpg"",""time"":7149.89999999851},{""stimulus"":""run_exp/static/images/task_images/rocket-09.jpg"",""time"":8174.89999999851}]",[],1,,,,,,,,,,,,,,
alien_welcome,69,366183,0.0-25.0-1.0,"""event"",""trial"",""time""
""fullscreenenter"",""1"",""2505""
","
","
","""event"",""trial"",""time""
""fullscreenenter"",""1"",""2505""
","
",,null,run_exp/static/images/task_images/aliens/old_aliens/planet/alien_planet-75.jpg,null,,,,,,,,,,,,,75,"71,75,69,4,8,80,55,5,47,38,62,13,14,29,57,35,20,9,43,6,40,60,52,53,42,39,18,61,41,59,27,74,65,33,58,64,7,66,11",,,,,,,,,,
land,70,366691,0.0-25.0-2.0,"""event"",""trial"",""time""
""fullscreenenter"",""1"",""2505""
","
","
","""event"",""trial"",""time""
""fullscreenenter"",""1"",""2505""
","
",,null,run_exp/static/images/task_images/land.jpg,null,,,,,,,105,,,2,,,,,,,,,,,,,,
dig,71,368700,0.0-25.0-3.0,"""event"",""trial"",""time""
""fullscreenenter"",""1"",""2505""
","
","
","""event"",""trial"",""time""
""fullscreenenter"",""1"",""2505""
","
",,,,,,,,,,,,"[{""stimulus"":""run_exp/static/images/task_images/dig.jpg"",""time"":0.20000000298023224},{""stimulus"":""run_exp/static/images/task_images/land.jpg"",""time"":672.7999999970198},{""stimulus"":""run_exp/static/images/task_images/dig.jpg"",""time"":1335.2000000029802}]",[],2,,,,,,,,,,,,,,
harvest,72,369708,0.0-25.0-4.0,"""event"",""trial"",""time""
""fullscreenenter"",""1"",""2505""
","
","
","""event"",""trial"",""time""
""fullscreenenter"",""1"",""2505""
","
",,null,run_exp/static/images/task_images/gems/105.jpg,null,,,,,,,25,,,2,,,,,105,0.236348089,0.238095238,,,,,,,
decision,73,370471,0.0-25.0-5.0,"""event"",""trial"",""time""
""fullscreenenter"",""1"",""2505""
","
","
","""event"",""trial"",""time""
""fullscreenenter"",""1"",""2505""
","
",,762.6,run_exp/static/images/task_images/land.jpg,65,,,,,,,25,,,2,,,,,,,,31830,1,0,FALSE,,,
dig,74,372709,0.0-26.0-0.0,"""event"",""trial"",""time""
""fullscreenenter"",""1"",""2505""
","
","
","""event"",""trial"",""time""
""fullscreenenter"",""1"",""2505""
","
",,,,,,,,,,,,"[{""stimulus"":""run_exp/static/images/task_images/dig.jpg"",""time"":0.09999999403953552},{""stimulus"":""run_exp/static/images/task_images/land.jpg"",""time"":752},{""stimulus"":""run_exp/static/images/task_images/dig.jpg"",""time"":1493.5999999940395}]",[],2,,,,,,,,,,,,,,
harvest,75,373710,0.0-26.0-1.0,"""event"",""trial"",""time""
""fullscreenenter"",""1"",""2505""
","
","
","""event"",""trial"",""time""
""fullscreenenter"",""1"",""2505""
","
",,null,run_exp/static/images/task_images/gems/25.jpg,null,,,,,,,4,,,2,,,,,25,0.153169851,0.16,,,,,,,
decision,76,374096,0.0-26.0-2.0,"""event"",""trial"",""time""
""fullscreenenter"",""1"",""2505""
","
","
","""event"",""trial"",""time""
""fullscreenenter"",""1"",""2505""
","
",,384.7,run_exp/static/images/task_images/land.jpg,65,,,,,,,4,,,2,,,,,,,,35455,1,1,FALSE,,,
dig,77,376717,0.0-27.0-0.0,"""event"",""trial"",""time""
""fullscreenenter"",""1"",""2505""
","
","
","""event"",""trial"",""time""
""fullscreenenter"",""1"",""2505""
","
",,,,,,,,,,,,"[{""stimulus"":""run_exp/static/images/task_images/dig.jpg"",""time"":0.19999999552965164},{""stimulus"":""run_exp/static/images/task_images/land.jpg"",""time"":872.5},{""stimulus"":""run_exp/static/images/task_images/dig.jpg"",""time"":1743.3999999985099}]",[],2,,,,,,,,,,,,,,
harvest,78,377725,0.0-27.0-1.0,"""event"",""trial"",""time""
""fullscreenenter"",""1"",""2505""
","
","
","""event"",""trial"",""time""
""fullscreenenter"",""1"",""2505""
","
",,null,run_exp/static/images/task_images/gems/4.jpg,null,,,,,,,1,,,2,,,,,4,0.145050075,0.25,,,,,,,
decision,79,379149,0.0-27.0-2.0,"""event"",""trial"",""time""
""fullscreenenter"",""1"",""2505""
","
","
","""event"",""trial"",""time""
""fullscreenenter"",""1"",""2505""
","
",,1423.4,run_exp/static/images/task_images/land.jpg,76,,,,,,,1,,,2,,,,,,,,40508,1,2,TRUE,,,
travel,80,387724,0.0-28.0-0.0,"""event"",""trial"",""time""
""fullscreenenter"",""1"",""2505""
","
","
","""event"",""trial"",""time""
""fullscreenenter"",""1"",""2505""
","
",,,,,,,,,,,,"[{""stimulus"":""run_exp/static/images/task_images/rocket-01.jpg"",""time"":0.10000000149011612},{""stimulus"":""run_exp/static/images/task_images/rocket-02.jpg"",""time"":957.6000000014901},{""stimulus"":""run_exp/static/images/task_images/rocket-03.jpg"",""time"":1905.8999999985099},{""stimulus"":""run_exp/static/images/task_images/rocket-04.jpg"",""time"":2857.60000000149},{""stimulus"":""run_exp/static/images/task_images/rocket-05.jpg"",""time"":3812.2999999970198},{""stimulus"":""run_exp/static/images/task_images/rocket-06.jpg"",""time"":4761.60000000149},{""stimulus"":""run_exp/static/images/task_images/rocket-07.jpg"",""time"":5715.89999999851},{""stimulus"":""run_exp/static/images/task_images/rocket-08.jpg"",""time"":6665.70000000298},{""stimulus"":""run_exp/static/images/task_images/rocket-09.jpg"",""time"":7621.29999999702}]",[],2,,,,,,,,,,,,,,
alien_welcome,81,392725,0.0-28.0-1.0,"""event"",""trial"",""time""
""fullscreenenter"",""1"",""2505""
","
","
","""event"",""trial"",""time""
""fullscreenenter"",""1"",""2505""
","
",,null,run_exp/static/images/task_images/aliens/old_aliens/planet/alien_planet-69.jpg,null,,,,,,,,,,,,,69,"71,75,69,4,8,80,55,5,47,38,62,13,14,29,57,35,20,9,43,6,40,60,52,53,42,39,18,61,41,59,27,74,65,33,58,64,7,66,11",,,,,,,,,,
land,82,393234,0.0-28.0-2.0,"""event"",""trial"",""time""
""fullscreenenter"",""1"",""2505""
","
","
","""event"",""trial"",""time""
""fullscreenenter"",""1"",""2505""
","
",,null,run_exp/static/images/task_images/land.jpg,null,,,,,,,103,,,3,,,,,,,,,,,,,,
dig,83,395242,0.0-28.0-3.0,"""event"",""trial"",""time""
""fullscreenenter"",""1"",""2505""
","
","
","""event"",""trial"",""time""
""fullscreenenter"",""1"",""2505""
","
",,,,,,,,,,,,"[{""stimulus"":""run_exp/static/images/task_images/dig.jpg"",""time"":0.20000000298023224},{""stimulus"":""run_exp/static/images/task_images/land.jpg"",""time"":671.7000000029802},{""stimulus"":""run_exp/static/images/task_images/dig.jpg"",""time"":1335.5}]",[],3,,,,,,,,,,,,,,
harvest,84,396248,0.0-28.0-4.0,"""event"",""trial"",""time""
""fullscreenenter"",""1"",""2505""
","
","
","""event"",""trial"",""time""
""fullscreenenter"",""1"",""2505""
","
",,null,run_exp/static/images/task_images/gems/103.jpg,null,,,,,,,55,,,3,,,,,103,0.529303234,0.533980583,,,,,,,
decision,85,397558,0.0-28.0-5.0,"""event"",""trial"",""time""
""fullscreenenter"",""1"",""2505""
","
","
","""event"",""trial"",""time""
""fullscreenenter"",""1"",""2505""
","
",,1308.9,run_exp/static/images/task_images/land.jpg,65,,,,,,,55,,,3,,,,,,,,58918,1,0,FALSE,,,
dig,86,399251,0.0-29.0-0.0,"""event"",""trial"",""time""
""fullscreenenter"",""1"",""2505""
","
","
","""event"",""trial"",""time""
""fullscreenenter"",""1"",""2505""
","
",,,,,,,,,,,,"[{""stimulus"":""run_exp/static/images/task_images/dig.jpg"",""time"":0.20000000298023224},{""stimulus"":""run_exp/static/images/task_images/land.jpg"",""time"":563.8000000044703},{""stimulus"":""run_exp/static/images/task_images/dig.jpg"",""time"":1132.3999999985099}]",[],3,,,,,,,,,,,,,,
harvest,87,400256,0.0-29.0-1.0,"""event"",""trial"",""time""
""fullscreenenter"",""1"",""2505""
","
","
","""event"",""trial"",""time""
""fullscreenenter"",""1"",""2505""
","
",,null,run_exp/static/images/task_images/gems/55.jpg,null,,,,,,,26,,,3,,,,,55,0.475918759,0.472727273,,,,,,,
decision,88,402752,0.0-29.0-2.0,"""event"",""trial"",""time""
""fullscreenenter"",""1"",""2505""
","
","
","""event"",""trial"",""time""
""fullscreenenter"",""1"",""2505""
","
",,2494.5,run_exp/static/images/task_images/land.jpg,65,,,,,,,26,,,3,,,,,,,,64111,1,1,FALSE,,,
dig,89,403258,0.0-30.0-0.0,"""event"",""trial"",""time""
""fullscreenenter"",""1"",""2505""
","
","
","""event"",""trial"",""time""
""fullscreenenter"",""1"",""2505""
","
",,,,,,,,,,,,"[{""stimulus"":""run_exp/static/images/task_images/dig.jpg"",""time"":0.09999999403953552},{""stimulus"":""run_exp/static/images/task_images/land.jpg"",""time"":170.09999999403954},{""stimulus"":""run_exp/static/images/task_images/dig.jpg"",""time"":337.29999999701977}]",[],3,,,,,,,,,,,,,,
harvest,90,404266,0.0-30.0-1.0,"""event"",""trial"",""time""
""fullscreenenter"",""1"",""2505""
","
","
","""event"",""trial"",""time""
""fullscreenenter"",""1"",""2505""
","
",,null,run_exp/static/images/task_images/gems/26.jpg,null,,,,,,,13,,,3,,,,,26,0.517686371,0.5,,,,,,,
decision,91,404965,0.0-30.0-2.0,"""event"",""trial"",""time""
""fullscreenenter"",""1"",""2505""
","
","
","""event"",""trial"",""time""
""fullscreenenter"",""1"",""2505""
","
",,697.9,run_exp/static/images/task_images/land.jpg,76,,,,,,,13,,,3,,,,,,,,66324,1,2,TRUE,,,
travel,92,414267,0.0-31.0-0.0,"""event"",""trial"",""time""
""fullscreenenter"",""1"",""2505""
","
","
","""event"",""trial"",""time""
""fullscreenenter"",""1"",""2505""
","
",,,,,,,,,,,,"[{""stimulus"":""run_exp/static/images/task_images/rocket-01.jpg"",""time"":0.20000000298023224},{""stimulus"":""run_exp/static/images/task_images/rocket-02.jpg"",""time"":1034.5},{""stimulus"":""run_exp/static/images/task_images/rocket-03.jpg"",""time"":2066.89999999851},{""stimulus"":""run_exp/static/images/task_images/rocket-04.jpg"",""time"":3101.2000000029802},{""stimulus"":""run_exp/static/images/task_images/rocket-05.jpg"",""time"":4134.89999999851},{""stimulus"":""run_exp/static/images/task_images/rocket-06.jpg"",""time"":5166.5},{""stimulus"":""run_exp/static/images/task_images/rocket-07.jpg"",""time"":6201.39999999851},{""stimulus"":""run_exp/static/images/task_images/rocket-08.jpg"",""time"":7235.20000000298},{""stimulus"":""run_exp/static/images/task_images/rocket-09.jpg"",""time"":8267.60000000149}]",[],3,,,,,,,,,,,,,,
alien_welcome,93,419276,0.0-31.0-1.0,"""event"",""trial"",""time""
""fullscreenenter"",""1"",""2505""
","
","
","""event"",""trial"",""time""
""fullscreenenter"",""1"",""2505""
","
",,null,run_exp/static/images/task_images/aliens/old_aliens/planet/alien_planet-4.jpg,null,,,,,,,,,,,,,4,"71,75,69,4,8,80,55,5,47,38,62,13,14,29,57,35,20,9,43,6,40,60,52,53,42,39,18,61,41,59,27,74,65,33,58,64,7,66,11",,,,,,,,,,
land,94,419784,0.0-31.0-2.0,"""event"",""trial"",""time""
""fullscreenenter"",""1"",""2505""
","
","
","""event"",""trial"",""time""
""fullscreenenter"",""1"",""2505""
","
",,null,run_exp/static/images/task_images/land.jpg,null,,,,,,,93,,,4,,,,,,,,,,,,,,
dig,95,421791,0.0-31.0-3.0,"""event"",""trial"",""time""
""fullscreenenter"",""1"",""2505""
","
","
","""event"",""trial"",""time""
""fullscreenenter"",""1"",""2505""
","
",,,,,,,,,,,,"[{""stimulus"":""run_exp/static/images/task_images/dig.jpg"",""time"":0.10000000149011612},{""stimulus"":""run_exp/static/images/task_images/land.jpg"",""time"":674.3999999985099},{""stimulus"":""run_exp/static/images/task_images/dig.jpg"",""time"":1335.2999999970198}]",[],4,,,,,,,,,,,,,,
harvest,96,422793,0.0-31.0-4.0,"""event"",""trial"",""time""
""fullscreenenter"",""1"",""2505""
","
","
","""event"",""trial"",""time""
""fullscreenenter"",""1"",""2505""
","
",,null,run_exp/static/images/task_images/gems/93.jpg,null,,,,,,,48,,,4,,,,,93,0.517313804,0.516129032,,,,,,,
decision,97,423009,0.0-31.0-5.0,"""event"",""trial"",""time""
""fullscreenenter"",""1"",""2505""
","
","
","""event"",""trial"",""time""
""fullscreenenter"",""1"",""2505""
","
",,214.7,run_exp/static/images/task_images/land.jpg,65,,,,,,,48,,,4,,,,,,,,84368,1,0,FALSE,,,
dig,98,425801,0.0-32.0-0.0,"""event"",""trial"",""time""
""fullscreenenter"",""1"",""2505""
","
","
","""event"",""trial"",""time""
""fullscreenenter"",""1"",""2505""
","
",,,,,,,,,,,,"[{""stimulus"":""run_exp/static/images/task_images/dig.jpg"",""time"":0},{""stimulus"":""run_exp/static/images/task_images/land.jpg"",""time"":930.7000000029802},{""stimulus"":""run_exp/static/images/task_images/dig.jpg"",""time"":1857}]",[],4,,,,,,,,,,,,,,
harvest,99,426809,0.0-32.0-1.0,"""event"",""trial"",""time""
""fullscreenenter"",""1"",""2505""
","
","
","""event"",""trial"",""time""
""fullscreenenter"",""1"",""2505""
","
",,null,run_exp/static/images/task_images/gems/48.jpg,null,,,,,,,22,,,4,,,,,48,0.449804178,0.458333333,,,,,,,
decision,100,427176,0.0-32.0-2.0,"""event"",""trial"",""time""
""fullscreenenter"",""1"",""2505""
","
","
","""event"",""trial"",""time""
""fullscreenenter"",""1"",""2505""
","
",,366,run_exp/static/images/task_images/land.jpg,65,,,,,,,22,,,4,,,,,,,,88536,1,1,FALSE,,,
dig,101,429814,0.0-33.0-0.0,"""event"",""trial"",""time""
""fullscreenenter"",""1"",""2505""
","
","
","""event"",""trial"",""time""
""fullscreenenter"",""1"",""2505""
","
",,,,,,,,,,,,"[{""stimulus"":""run_exp/static/images/task_images/dig.jpg"",""time"":0.10000000149011612},{""stimulus"":""run_exp/static/images/task_images/land.jpg"",""time"":878.9000000059605},{""stimulus"":""run_exp/static/images/task_images/dig.jpg"",""time"":1759.3000000044703}]",[],4,,,,,,,,,,,,,,
harvest,102,430815,0.0-33.0-1.0,"""event"",""trial"",""time""
""fullscreenenter"",""1"",""2505""
","
","
","""event"",""trial"",""time""
""fullscreenenter"",""1"",""2505""
","
",,null,run_exp/static/images/task_images/gems/22.jpg,null,,,,,,,11,,,4,,,,,22,0.481809859,0.5,,,,,,,
decision,103,430867,0.0-33.0-2.0,"""event"",""trial"",""time""
""fullscreenenter"",""1"",""2505""
","
","
","""event"",""trial"",""time""
""fullscreenenter"",""1"",""2505""
","
",,50.4,run_exp/static/images/task_images/land.jpg,76,,,,,,,11,,,4,,,,,,,,92226,1,2,TRUE,,,
travel,104,440818,0.0-34.0-0.0,"""event"",""trial"",""time""
""fullscreenenter"",""1"",""2505""
","
","
","""event"",""trial"",""time""
""fullscreenenter"",""1"",""2505""
","
",,,,,,,,,,,,"[{""stimulus"":""run_exp/static/images/task_images/rocket-01.jpg"",""time"":0.19999999552965164},{""stimulus"":""run_exp/static/images/task_images/rocket-02.jpg"",""time"":1107.0999999940395},{""stimulus"":""run_exp/static/images/task_images/rocket-03.jpg"",""time"":2216.7999999970198},{""stimulus"":""run_exp/static/images/task_images/rocket-04.jpg"",""time"":3315.5999999940395},{""stimulus"":""run_exp/static/images/task_images/rocket-05.jpg"",""time"":4422.89999999851},{""stimulus"":""run_exp/static/images/task_images/rocket-06.jpg"",""time"":5527.5},{""stimulus"":""run_exp/static/images/task_images/rocket-07.jpg"",""time"":6632.29999999702},{""stimulus"":""run_exp/static/images/task_images/rocket-08.jpg"",""time"":7740.89999999851},{""stimulus"":""run_exp/static/images/task_images/rocket-09.jpg"",""time"":8840.69999999553}]",[],4,,,,,,,,,,,,,,
alien_welcome,105,445827,0.0-34.0-1.0,"""event"",""trial"",""time""
""fullscreenenter"",""1"",""2505""
","
","
","""event"",""trial"",""time""
""fullscreenenter"",""1"",""2505""
","
",,null,run_exp/static/images/task_images/aliens/old_aliens/planet/alien_planet-8.jpg,null,,,,,,,,,,,,,8,"71,75,69,4,8,80,55,5,47,38,62,13,14,29,57,35,20,9,43,6,40,60,52,53,42,39,18,61,41,59,27,74,65,33,58,64,7,66,11",,,,,,,,,,
land,106,446329,0.0-34.0-2.0,"""event"",""trial"",""time""
""fullscreenenter"",""1"",""2505""
","
","
","""event"",""trial"",""time""
""fullscreenenter"",""1"",""2505""
","
",,null,run_exp/static/images/task_images/land.jpg,null,,,,,,,104,,,5,,,,,,,,,,,,,,
dig,107,448335,0.0-34.0-3.0,"""event"",""trial"",""time""
""fullscreenenter"",""1"",""2505""
","
","
","""event"",""trial"",""time""
""fullscreenenter"",""1"",""2505""
","
",,,,,,,,,,,,"[{""stimulus"":""run_exp/static/images/task_images/dig.jpg"",""time"":0.29999999701976776},{""stimulus"":""run_exp/static/images/task_images/land.jpg"",""time"":671.5},{""stimulus"":""run_exp/static/images/task_images/dig.jpg"",""time"":1338.1999999955297}]",[],5,,,,,,,,,,,,,,
harvest,108,449342,0.0-34.0-4.0,"""event"",""trial"",""time""
""fullscreenenter"",""1"",""2505""
","
","
","""event"",""trial"",""time""
""fullscreenenter"",""1"",""2505""
","
",,null,run_exp/static/images/task_images/gems/104.jpg,null,,,,,,,43,,,5,,,,,104,0.416962264,0.413461538,,,,,,,
decision,109,450806,0.0-34.0-5.0,"""event"",""trial"",""time""
""fullscreenenter"",""1"",""2505""
","
","
","""event"",""trial"",""time""
""fullscreenenter"",""1"",""2505""
","
",,1461.8,run_exp/static/images/task_images/land.jpg,65,,,,,,,43,,,5,,,,,,,,112165,1,0,FALSE,,,
dig,110,452347,0.0-35.0-0.0,"""event"",""trial"",""time""
""fullscreenenter"",""1"",""2505""
","
","
","""event"",""trial"",""time""
""fullscreenenter"",""1"",""2505""
","
",,,,,,,,,,,,"[{""stimulus"":""run_exp/static/images/task_images/dig.jpg"",""time"":0},{""stimulus"":""run_exp/static/images/task_images/land.jpg"",""time"":519.8000000044703},{""stimulus"":""run_exp/static/images/task_images/dig.jpg"",""time"":1027.8000000044703}]",[],5,,,,,,,,,,,,,,
harvest,111,453353,0.0-35.0-1.0,"""event"",""trial"",""time""
""fullscreenenter"",""1"",""2505""
","
","
","""event"",""trial"",""time""
""fullscreenenter"",""1"",""2505""
","
",,null,run_exp/static/images/task_images/gems/43.jpg,null,,,,,,,20,,,5,,,,,43,0.465276259,0.465116279,,,,,,,
decision,112,454894,0.0-35.0-2.0,"""event"",""trial"",""time""
""fullscreenenter"",""1"",""2505""
","
","
","""event"",""trial"",""time""
""fullscreenenter"",""1"",""2505""
","
",,1539.9,run_exp/static/images/task_images/land.jpg,65,,,,,,,20,,,5,,,,,,,,116253,1,1,FALSE,,,
dig,113,456355,0.0-36.0-0.0,"""event"",""trial"",""time""
""fullscreenenter"",""1"",""2505""
","
","
","""event"",""trial"",""time""
""fullscreenenter"",""1"",""2505""
","
",,,,,,,,,,,,"[{""stimulus"":""run_exp/static/images/task_images/dig.jpg"",""time"":0.10000000149011612},{""stimulus"":""run_exp/static/images/task_images/land.jpg"",""time"":489.8999999985099},{""stimulus"":""run_exp/static/images/task_images/dig.jpg"",""time"":972.8999999985099}]",[],5,,,,,,,,,,,,,,
harvest,114,457361,0.0-36.0-1.0,"""event"",""trial"",""time""
""fullscreenenter"",""1"",""2505""
","
","
","""event"",""trial"",""time""
""fullscreenenter"",""1"",""2505""
","
",,null,run_exp/static/images/task_images/gems/20.jpg,null,,,,,,,11,,,5,,,,,20,0.530082215,0.55,,,,,,,
decision,115,458767,0.0-36.0-2.0,"""event"",""trial"",""time""
""fullscreenenter"",""1"",""2505""
","
","
","""event"",""trial"",""time""
""fullscreenenter"",""1"",""2505""
","
",,1405.4,run_exp/static/images/task_images/land.jpg,76,,,,,,,11,,,5,,,,,,,,120126,1,2,TRUE,,,
travel,116,467359,0.0-37.0-0.0,"""event"",""trial"",""time""
""fullscreenenter"",""1"",""2505""
","
","
","""event"",""trial"",""time""
""fullscreenenter"",""1"",""2505""
","
",,,,,,,,,,,,"[{""stimulus"":""run_exp/static/images/task_images/rocket-01.jpg"",""time"":0.10000000149011612},{""stimulus"":""run_exp/static/images/task_images/rocket-02.jpg"",""time"":958.5},{""stimulus"":""run_exp/static/images/task_images/rocket-03.jpg"",""time"":1912.1000000014901},{""stimulus"":""run_exp/static/images/task_images/rocket-04.jpg"",""time"":2863.5},{""stimulus"":""run_exp/static/images/task_images/rocket-05.jpg"",""time"":3825},{""stimulus"":""run_exp/static/images/task_images/rocket-06.jpg"",""time"":4774.79999999702},{""stimulus"":""run_exp/static/images/task_images/rocket-07.jpg"",""time"":5725.60000000149},{""stimulus"":""run_exp/static/images/task_images/rocket-08.jpg"",""time"":6683.29999999702},{""stimulus"":""run_exp/static/images/task_images/rocket-09.jpg"",""time"":7632.89999999851}]",[],5,,,,,,,,,,,,,,
alien_welcome,117,472361,0.0-37.0-1.0,"""event"",""trial"",""time""
""fullscreenenter"",""1"",""2505""
","
","
","""event"",""trial"",""time""
""fullscreenenter"",""1"",""2505""
","
",,null,run_exp/static/images/task_images/aliens/old_aliens/planet/alien_planet-80.jpg,null,,,,,,,,,,,,,80,"71,75,69,4,8,80,55,5,47,38,62,13,14,29,57,35,20,9,43,6,40,60,52,53,42,39,18,61,41,59,27,74,65,33,58,64,7,66,11",,,,,,,,,,
land,118,472869,0.0-37.0-2.0,"""event"",""trial"",""time""
""fullscreenenter"",""1"",""2505""
","
","
","""event"",""trial"",""time""
""fullscreenenter"",""1"",""2505""
","
",,null,run_exp/static/images/task_images/land.jpg,null,,,,,,,111,,,6,,,,,,,,,,,,,,
dig,119,474873,0.0-37.0-3.0,"""event"",""trial"",""time""
""fullscreenenter"",""1"",""2505""
","
","
","""event"",""trial"",""time""
""fullscreenenter"",""1"",""2505""
","
",,,,,,,,,,,,"[{""stimulus"":""run_exp/static/images/task_images/dig.jpg"",""time"":0.20000000298023224},{""stimulus"":""run_exp/static/images/task_images/land.jpg"",""time"":673.7999999970198},{""stimulus"":""run_exp/static/images/task_images/dig.jpg"",""time"":1335.1000000014901}]",[],6,,,,,,,,,,,,,,
harvest,120,475875,0.0-37.0-4.0,"""event"",""trial"",""time""
""fullscreenenter"",""1"",""2505""
","
","
","""event"",""trial"",""time""
""fullscreenenter"",""1"",""2505""
","
",,null,run_exp/static/images/task_images/gems/111.jpg,null,,,,,,,99,,,6,,,,,111,0.894132857,0.891891892,,,,,,,
decision,121,475880,0.0-37.0-5.0,"""event"",""trial"",""time""
""fullscreenenter"",""1"",""2505""
","
","
","""event"",""trial"",""time""
""fullscreenenter"",""1"",""2505""
","
",,3.800000004,run_exp/static/images/task_images/land.jpg,65,,,,,,,99,,,6,,,,,,,,137239,1,0,FALSE,,,
dig,122,478877,0.0-38.0-0.0,"""event"",""trial"",""time""
""fullscreenenter"",""1"",""2505""
","
","
","""event"",""trial"",""time""
""fullscreenenter"",""1"",""2505""
","
",,,,,,,,,,,,"[{""stimulus"":""run_exp/static/images/task_images/dig.jpg"",""time"":0.20000000298023224},{""stimulus"":""run_exp/static/images/task_images/land.jpg"",""time"":1004.7999999970198},{""stimulus"":""run_exp/static/images/task_images/dig.jpg"",""time"":2003.7000000029802}]",[],6,,,,,,,,,,,,,,
harvest,123,479878,0.0-38.0-1.0,"""event"",""trial"",""time""
""fullscreenenter"",""1"",""2505""
","
","
","""event"",""trial"",""time""
""fullscreenenter"",""1"",""2505""
","
",,null,run_exp/static/images/task_images/gems/99.jpg,null,,,,,,,78,,,6,,,,,99,0.787851141,0.787878788,,,,,,,
decision,124,481193,0.0-38.0-2.0,"""event"",""trial"",""time""
""fullscreenenter"",""1"",""2505""
","
","
","""event"",""trial"",""time""
""fullscreenenter"",""1"",""2505""
","
",,1314.3,run_exp/static/images/task_images/land.jpg,65,,,,,,,78,,,6,,,,,,,,142552,1,1,FALSE,,,
dig,125,482883,0.0-39.0-0.0,"""event"",""trial"",""time""
""fullscreenenter"",""1"",""2505""
","
","
","""event"",""trial"",""time""
""fullscreenenter"",""1"",""2505""
","
",,,,,,,,,,,,"[{""stimulus"":""run_exp/static/images/task_images/dig.jpg"",""time"":0.20000000298023224},{""stimulus"":""run_exp/static/images/task_images/land.jpg"",""time"":565.3999999985099},{""stimulus"":""run_exp/static/images/task_images/dig.jpg"",""time"":1123.8999999985099}]",[],6,,,,,,,,,,,,,,
harvest,126,483886,0.0-39.0-1.0,"""event"",""trial"",""time""
""fullscreenenter"",""1"",""2505""
","
","
","""event"",""trial"",""time""
""fullscreenenter"",""1"",""2505""
","
",,null,run_exp/static/images/task_images/gems/78.jpg,null,,,,,,,63,,,6,,,,,78,0.804656125,0.807692308,,,,,,,
decision,127,485628,0.0-39.0-2.0,"""event"",""trial"",""time""
""fullscreenenter"",""1"",""2505""
","
","
","""event"",""trial"",""time""
""fullscreenenter"",""1"",""2505""
","
",,1740.5,run_exp/static/images/task_images/land.jpg,65,,,,,,,63,,,6,,,,,,,,146987,1,2,FALSE,,,
dig,128,486895,0.0-40.0-0.0,"""event"",""trial"",""time""
""fullscreenenter"",""1"",""2505""
","
","
","""event"",""trial"",""time""
""fullscreenenter"",""1"",""2505""
","
",,,,,,,,,,,,"[{""stimulus"":""run_exp/static/images/task_images/dig.jpg"",""time"":0.10000000149011612},{""stimulus"":""run_exp/static/images/task_images/land.jpg"",""time"":423.6000000014901},{""stimulus"":""run_exp/static/images/task_images/dig.jpg"",""time"":839.8999999985099}]",[],6,,,,,,,,,,,,,,
harvest,129,487896,0.0-40.0-1.0,"""event"",""trial"",""time""
""fullscreenenter"",""1"",""2505""
","
","
","""event"",""trial"",""time""
""fullscreenenter"",""1"",""2505""
","
",,null,run_exp/static/images/task_images/gems/63.jpg,null,,,,,,,51,,,6,,,,,63,0.802069285,0.80952381,,,,,,,
decision,130,488858,0.0-40.0-2.0,"""event"",""trial"",""time""
""fullscreenenter"",""1"",""2505""
","
","
","""event"",""trial"",""time""
""fullscreenenter"",""1"",""2505""
","
",,961.2,run_exp/static/images/task_images/land.jpg,65,,,,,,,51,,,6,,,,,,,,150217,1,3,FALSE,,,
dig,131,490903,0.0-41.0-0.0,"""event"",""trial"",""time""
""fullscreenenter"",""1"",""2505""
","
","
","""event"",""trial"",""time""
""fullscreenenter"",""1"",""2505""
","
",,,,,,,,,,,,"[{""stimulus"":""run_exp/static/images/task_images/dig.jpg"",""time"":0.10000000149011612},{""stimulus"":""run_exp/static/images/task_images/land.jpg"",""time"":686.2999999970198},{""stimulus"":""run_exp/static/images/task_images/dig.jpg"",""time"":1360.1999999955297}]",[],6,,,,,,,,,,,,,,
harvest,132,491910,0.0-41.0-1.0,"""event"",""trial"",""time""
""fullscreenenter"",""1"",""2505""
","
","
","""event"",""trial"",""time""
""fullscreenenter"",""1"",""2505""
","
",,null,run_exp/static/images/task_images/gems/51.jpg,null,,,,,,,44,,,6,,,,,51,0.864575654,0.862745098,,,,,,,
decision,133,492712,0.0-41.0-2.0,"""event"",""trial"",""time""
""fullscreenenter"",""1"",""2505""
","
","
","""event"",""trial"",""time""
""fullscreenenter"",""1"",""2505""
","
",,801.4,run_exp/static/images/task_images/land.jpg,65,,,,,,,44,,,6,,,,,,,,154071,1,4,FALSE,,,
dig,134,494911,0.0-42.0-0.0,"""event"",""trial"",""time""
""fullscreenenter"",""1"",""2505""
","
","
","""event"",""trial"",""time""
""fullscreenenter"",""1"",""2505""
","
",,,,,,,,,,,,"[{""stimulus"":""run_exp/static/images/task_images/dig.jpg"",""time"":0.20000000298023224},{""stimulus"":""run_exp/static/images/task_images/land.jpg"",""time"":739.3000000044703},{""stimulus"":""run_exp/static/images/task_images/dig.jpg"",""time"":1470.6000000014901}]",[],6,,,,,,,,,,,,,,
harvest,135,495918,0.0-42.0-1.0,"""event"",""trial"",""time""
""fullscreenenter"",""1"",""2505""
","
","
","""event"",""trial"",""time""
""fullscreenenter"",""1"",""2505""
","
",,null,run_exp/static/images/task_images/gems/44.jpg,null,,,,,,,35,,,6,,,,,44,0.801993213,0.795454545,,,,,,,
decision,136,497973,0.0-42.0-2.0,"""event"",""trial"",""time""
""fullscreenenter"",""1"",""2505""
","
","
","""event"",""trial"",""time""
""fullscreenenter"",""1"",""2505""
","
",,2053.9,run_exp/static/images/task_images/land.jpg,65,,,,,,,35,,,6,,,,,,,,159332,1,5,FALSE,,,
dig,137,498928,0.0-43.0-0.0,"""event"",""trial"",""time""
""fullscreenenter"",""1"",""2505""
","
","
","""event"",""trial"",""time""
""fullscreenenter"",""1"",""2505""
","
",,,,,,,,,,,,"[{""stimulus"":""run_exp/static/images/task_images/dig.jpg"",""time"":0.20000000298023224},{""stimulus"":""run_exp/static/images/task_images/land.jpg"",""time"":320.6000000014901},{""stimulus"":""run_exp/static/images/task_images/dig.jpg"",""time"":631.6000000014901}]",[],6,,,,,,,,,,,,,,
harvest,138,499929,0.0-43.0-1.0,"""event"",""trial"",""time""
""fullscreenenter"",""1"",""2505""
","
","
","""event"",""trial"",""time""
""fullscreenenter"",""1"",""2505""
","
",,null,run_exp/static/images/task_images/gems/35.jpg,null,,,,,,,29,,,6,,,,,35,0.825970238,0.828571429,,,,,,,
decision,139,499996,0.0-43.0-2.0,"""event"",""trial"",""time""
""fullscreenenter"",""1"",""2505""
","
","
","""event"",""trial"",""time""
""fullscreenenter"",""1"",""2505""
","
",,66.2,run_exp/static/images/task_images/land.jpg,65,,,,,,,29,,,6,,,,,,,,161355,1,6,FALSE,,,
dig,140,502937,0.0-44.0-0.0,"""event"",""trial"",""time""
""fullscreenenter"",""1"",""2505""
","
","
","""event"",""trial"",""time""
""fullscreenenter"",""1"",""2505""
","
",,,,,,,,,,,,"[{""stimulus"":""run_exp/static/images/task_images/dig.jpg"",""time"":0.20000000298023224},{""stimulus"":""run_exp/static/images/task_images/land.jpg"",""time"":980.8000000044703},{""stimulus"":""run_exp/static/images/task_images/dig.jpg"",""time"":1955.3000000044703}]",[],6,,,,,,,,,,,,,,
harvest,141,503938,0.0-44.0-1.0,"""event"",""trial"",""time""
""fullscreenenter"",""1"",""2505""
","
","
","""event"",""trial"",""time""
""fullscreenenter"",""1"",""2505""
","
",,null,run_exp/static/images/task_images/gems/29.jpg,null,,,,,,,24,,,6,,,,,29,0.831151978,0.827586207,,,,,,,
decision,142,505147,0.0-44.0-2.0,"""event"",""trial"",""time""
""fullscreenenter"",""1"",""2505""
","
","
","""event"",""trial"",""time""
""fullscreenenter"",""1"",""2505""
","
",,1208.2,run_exp/static/images/task_images/land.jpg,65,,,,,,,24,,,6,,,,,,,,166506,1,7,FALSE,,,
dig,143,506945,0.0-45.0-0.0,"""event"",""trial"",""time""
""fullscreenenter"",""1"",""2505""
","
","
","""event"",""trial"",""time""
""fullscreenenter"",""1"",""2505""
","
",,,,,,,,,,,,"[{""stimulus"":""run_exp/static/images/task_images/dig.jpg"",""time"":0.20000000298023224},{""stimulus"":""run_exp/static/images/task_images/land.jpg"",""time"":598.2999999970198},{""stimulus"":""run_exp/static/images/task_images/dig.jpg"",""time"":1196.5}]",[],6,,,,,,,,,,,,,,
harvest,144,507954,0.0-45.0-1.0,"""event"",""trial"",""time""
""fullscreenenter"",""1"",""2505""
","
","
","""event"",""trial"",""time""
""fullscreenenter"",""1"",""2505""
","
",,null,run_exp/static/images/task_images/gems/24.jpg,null,,,,,,,20,,,6,,,,,24,0.824498511,0.833333333,,,,,,,
decision,145,509583,0.0-45.0-2.0,"""event"",""trial"",""time""
""fullscreenenter"",""1"",""2505""
","
","
","""event"",""trial"",""time""
""fullscreenenter"",""1"",""2505""
","
",,1628.9,run_exp/static/images/task_images/land.jpg,76,,,,,,,20,,,6,,,,,,,,170942,1,8,TRUE,,,
travel,146,517962,0.0-46.0-0.0,"""event"",""trial"",""time""
""fullscreenenter"",""1"",""2505""
","
","
","""event"",""trial"",""time""
""fullscreenenter"",""1"",""2505""
","
",,,,,,,,,,,,"[{""stimulus"":""run_exp/static/images/task_images/rocket-01.jpg"",""time"":0.10000000149011612},{""stimulus"":""run_exp/static/images/task_images/rocket-02.jpg"",""time"":936.3000000044703},{""stimulus"":""run_exp/static/images/task_images/rocket-03.jpg"",""time"":1868.8999999985099},{""stimulus"":""run_exp/static/images/task_images/rocket-04.jpg"",""time"":2793.89999999851},{""stimulus"":""run_exp/static/images/task_images/rocket-05.jpg"",""time"":3721.10000000149},{""stimulus"":""run_exp/static/images/task_images/rocket-06.jpg"",""time"":4651.70000000298},{""stimulus"":""run_exp/static/images/task_images/rocket-07.jpg"",""time"":5586},{""stimulus"":""run_exp/static/images/task_images/rocket-08.jpg"",""time"":6511.30000000447},{""stimulus"":""run_exp/static/images/task_images/rocket-09.jpg"",""time"":7443.89999999851}]",[],6,,,,,,,,,,,,,,
alien_welcome,147,522968,0.0-46.0-1.0,"""event"",""trial"",""time""
""fullscreenenter"",""1"",""2505""
","
","
","""event"",""trial"",""time""
""fullscreenenter"",""1"",""2505""
","
",,null,run_exp/static/images/task_images/aliens/old_aliens/planet/alien_planet-55.jpg,null,,,,,,,,,,,,,55,"71,75,69,4,8,80,55,5,47,38,62,13,14,29,57,35,20,9,43,6,40,60,52,53,42,39,18,61,41,59,27,74,65,33,58,64,7,66,11",,,,,,,,,,
land,148,523471,0.0-46.0-2.0,"""event"",""trial"",""time""
""fullscreenenter"",""1"",""2505""
","
","
","""event"",""trial"",""time""
""fullscreenenter"",""1"",""2505""
","
",,null,run_exp/static/images/task_images/land.jpg,null,,,,,,,103,,,7,,,,,,,,,,,,,,
dig,149,525476,0.0-46.0-3.0,"""event"",""trial"",""time""
""fullscreenenter"",""1"",""2505""
","
","
","""event"",""trial"",""time""
""fullscreenenter"",""1"",""2505""
","
",,,,,,,,,,,,"[{""stimulus"":""run_exp/static/images/task_images/dig.jpg"",""time"":0.20000000298023224},{""stimulus"":""run_exp/static/images/task_images/land.jpg"",""time"":673.7999999970198},{""stimulus"":""run_exp/static/images/task_images/dig.jpg"",""time"":1336.1000000014901}]",[],7,,,,,,,,,,,,,,
harvest,150,526479,0.0-46.0-4.0,"""event"",""trial"",""time""
""fullscreenenter"",""1"",""2505""
","
","
","""event"",""trial"",""time""
""fullscreenenter"",""1"",""2505""
","
",,null,run_exp/static/images/task_images/gems/103.jpg,null,,,,,,,78,,,7,,,,,103,0.756311797,0.757281553,,,,,,,
decision,151,527919,0.0-46.0-5.0,"""event"",""trial"",""time""
""fullscreenenter"",""1"",""2505""
","
","
","""event"",""trial"",""time""
""fullscreenenter"",""1"",""2505""
","
",,1438.7,run_exp/static/images/task_images/land.jpg,65,,,,,,,78,,,7,,,,,,,,189278,1,0,FALSE,,,
dig,152,529481,0.0-47.0-0.0,"""event"",""trial"",""time""
""fullscreenenter"",""1"",""2505""
","
","
","""event"",""trial"",""time""
""fullscreenenter"",""1"",""2505""
","
",,,,,,,,,,,,"[{""stimulus"":""run_exp/static/images/task_images/dig.jpg"",""time"":0.20000000298023224},{""stimulus"":""run_exp/static/images/task_images/land.jpg"",""time"":521.5},{""stimulus"":""run_exp/static/images/task_images/dig.jpg"",""time"":1042.1000000014901}]",[],7,,,,,,,,,,,,,,
harvest,153,530488,0.0-47.0-1.0,"""event"",""trial"",""time""
""fullscreenenter"",""1"",""2505""
","
","
","""event"",""trial"",""time""
""fullscreenenter"",""1"",""2505""
","
",,null,run_exp/static/images/task_images/gems/78.jpg,null,,,,,,,60,,,7,,,,,78,0.771640565,0.769230769,,,,,,,
decision,154,532069,0.0-47.0-2.0,"""event"",""trial"",""time""
""fullscreenenter"",""1"",""2505""
","
","
","""event"",""trial"",""time""
""fullscreenenter"",""1"",""2505""
","
",,1580.4,run_exp/static/images/task_images/land.jpg,65,,,,,,,60,,,7,,,,,,,,193428,1,1,FALSE,,,
dig,155,533496,0.0-48.0-0.0,"""event"",""trial"",""time""
""fullscreenenter"",""1"",""2505""
","
","
","""event"",""trial"",""time""
""fullscreenenter"",""1"",""2505""
","
",,,,,,,,,,,,"[{""stimulus"":""run_exp/static/images/task_images/dig.jpg"",""time"":0.10000000149011612},{""stimulus"":""run_exp/static/images/task_images/land.jpg"",""time"":474.20000000298023},{""stimulus"":""run_exp/static/images/task_images/dig.jpg"",""time"":949.1000000014901}]",[],7,,,,,,,,,,,,,,
harvest,156,534505,0.0-48.0-1.0,"""event"",""trial"",""time""
""fullscreenenter"",""1"",""2505""
","
","
","""event"",""trial"",""time""
""fullscreenenter"",""1"",""2505""
","
",,null,run_exp/static/images/task_images/gems/60.jpg,null,,,,,,,43,,,7,,,,,60,0.709762544,0.716666667,,,,,,,
decision,157,536357,0.0-48.0-2.0,"""event"",""trial"",""time""
""fullscreenenter"",""1"",""2505""
","
","
","""event"",""trial"",""time""
""fullscreenenter"",""1"",""2505""
","
",,1852,run_exp/static/images/task_images/land.jpg,65,,,,,,,43,,,7,,,,,,,,197716,1,2,FALSE,,,
dig,158,537508,0.0-49.0-0.0,"""event"",""trial"",""time""
""fullscreenenter"",""1"",""2505""
","
","
","""event"",""trial"",""time""
""fullscreenenter"",""1"",""2505""
","
",,,,,,,,,,,,"[{""stimulus"":""run_exp/static/images/task_images/dig.jpg"",""time"":0.10000000149011612},{""stimulus"":""run_exp/static/images/task_images/land.jpg"",""time"":385.8999999985099},{""stimulus"":""run_exp/static/images/task_images/dig.jpg"",""time"":770.3000000044703}]",[],7,,,,,,,,,,,,,,
harvest,159,538510,0.0-49.0-1.0,"""event"",""trial"",""time""
""fullscreenenter"",""1"",""2505""
","
","
","""event"",""trial"",""time""
""fullscreenenter"",""1"",""2505""
","
",,null,run_exp/static/images/task_images/gems/43.jpg,null,,,,,,,34,,,7,,,,,43,0.800673648,0.790697674,,,,,,,
decision,160,540010,0.0-49.0-2.0,"""event"",""trial"",""time""
""fullscreenenter"",""1"",""2505""
","
","
","""event"",""trial"",""time""
""fullscreenenter"",""1"",""2505""
","
",,1498,run_exp/static/images/task_images/land.jpg,65,,,,,,,34,,,7,,,,,,,,201369,1,3,FALSE,,,
dig,161,541514,0.0-50.0-0.0,"""event"",""trial"",""time""
""fullscreenenter"",""1"",""2505""
","
","
","""event"",""trial"",""time""
""fullscreenenter"",""1"",""2505""
","
",,,,,,,,,,,,"[{""stimulus"":""run_exp/static/images/task_images/dig.jpg"",""time"":0},{""stimulus"":""run_exp/static/images/task_images/land.jpg"",""time"":502.69999999552965},{""stimulus"":""run_exp/static/images/task_images/dig.jpg"",""time"":1002.6999999955297}]",[],7,,,,,,,,,,,,,,
harvest,162,542522,0.0-50.0-1.0,"""event"",""trial"",""time""
""fullscreenenter"",""1"",""2505""
","
","
","""event"",""trial"",""time""
""fullscreenenter"",""1"",""2505""
","
",,null,run_exp/static/images/task_images/gems/34.jpg,null,,,,,,,27,,,7,,,,,34,0.782838952,0.794117647,,,,,,,
decision,163,543690,0.0-50.0-2.0,"""event"",""trial"",""time""
""fullscreenenter"",""1"",""2505""
","
","
","""event"",""trial"",""time""
""fullscreenenter"",""1"",""2505""
","
",,1167,run_exp/static/images/task_images/land.jpg,65,,,,,,,27,,,7,,,,,,,,205049,1,4,FALSE,,,
dig,164,545529,0.0-51.0-0.0,"""event"",""trial"",""time""
""fullscreenenter"",""1"",""2505""
","
","
","""event"",""trial"",""time""
""fullscreenenter"",""1"",""2505""
","
",,,,,,,,,,,,"[{""stimulus"":""run_exp/static/images/task_images/dig.jpg"",""time"":0.20000000298023224},{""stimulus"":""run_exp/static/images/task_images/land.jpg"",""time"":612.1000000014901},{""stimulus"":""run_exp/static/images/task_images/dig.jpg"",""time"":1225.8999999985099}]",[],7,,,,,,,,,,,,,,
harvest,165,546531,0.0-51.0-1.0,"""event"",""trial"",""time""
""fullscreenenter"",""1"",""2505""
","
","
","""event"",""trial"",""time""
""fullscreenenter"",""1"",""2505""
","
",,null,run_exp/static/images/task_images/gems/27.jpg,null,,,,,,,21,,,7,,,,,27,0.766484696,0.777777778,,,,,,,
decision,166,546790,0.0-51.0-2.0,"""event"",""trial"",""time""
""fullscreenenter"",""1"",""2505""
","
","
","""event"",""trial"",""time""
""fullscreenenter"",""1"",""2505""
","
",,258.4,run_exp/static/images/task_images/land.jpg,76,,,,,,,21,,,7,,,,,,,,208149,1,5,TRUE,,,
travel,167,556530,0.0-52.0-0.0,"""event"",""trial"",""time""
""fullscreenenter"",""1"",""2505""
","
","
","""event"",""trial"",""time""
""fullscreenenter"",""1"",""2505""
","
",,,,,,,,,,,,"[{""stimulus"":""run_exp/static/images/task_images/rocket-01.jpg"",""time"":0.09999999403953552},{""stimulus"":""run_exp/static/images/task_images/rocket-02.jpg"",""time"":1082.6999999955297},{""stimulus"":""run_exp/static/images/task_images/rocket-03.jpg"",""time"":2172.89999999851},{""stimulus"":""run_exp/static/images/task_images/rocket-04.jpg"",""time"":3248},{""stimulus"":""run_exp/static/images/task_images/rocket-05.jpg"",""time"":4331.5999999940395},{""stimulus"":""run_exp/static/images/task_images/rocket-06.jpg"",""time"":5414.69999999553},{""stimulus"":""run_exp/static/images/task_images/rocket-07.jpg"",""time"":6497.5999999940395},{""stimulus"":""run_exp/static/images/task_images/rocket-08.jpg"",""time"":7575},{""stimulus"":""run_exp/static/images/task_images/rocket-09.jpg"",""time"":8657.59999999404}]",[],7,,,,,,,,,,,,,,
alien_welcome,168,561533,0.0-52.0-1.0,"""event"",""trial"",""time""
""fullscreenenter"",""1"",""2505""
","
","
","""event"",""trial"",""time""
""fullscreenenter"",""1"",""2505""
","
",,null,run_exp/static/images/task_images/aliens/old_aliens/planet/alien_planet-5.jpg,null,,,,,,,,,,,,,5,"71,75,69,4,8,80,55,5,47,38,62,13,14,29,57,35,20,9,43,6,40,60,52,53,42,39,18,61,41,59,27,74,65,33,58,64,7,66,11",,,,,,,,,,
land,169,562039,0.0-52.0-2.0,"""event"",""trial"",""time""
""fullscreenenter"",""1"",""2505""
","
","
","""event"",""trial"",""time""
""fullscreenenter"",""1"",""2505""
","
",,null,run_exp/static/images/task_images/land.jpg,null,,,,,,,105,,,8,,,,,,,,,,,,,,
dig,170,564049,0.0-52.0-3.0,"""event"",""trial"",""time""
""fullscreenenter"",""1"",""2505""
","
","
","""event"",""trial"",""time""
""fullscreenenter"",""1"",""2505""
","
",,,,,,,,,,,,"[{""stimulus"":""run_exp/static/images/task_images/dig.jpg"",""time"":0.19999999552965164},{""stimulus"":""run_exp/static/images/task_images/land.jpg"",""time"":668.5},{""stimulus"":""run_exp/static/images/task_images/dig.jpg"",""time"":1340.8999999985099}]",[],8,,,,,,,,,,,,,,
harvest,171,565052,0.0-52.0-4.0,"""event"",""trial"",""time""
""fullscreenenter"",""1"",""2505""
","
","
","""event"",""trial"",""time""
""fullscreenenter"",""1"",""2505""
","
",,null,run_exp/static/images/task_images/gems/105.jpg,null,,,,,,,93,,,8,,,,,105,0.887825937,0.885714286,,,,,,,
decision,172,566275,0.0-52.0-5.0,"""event"",""trial"",""time""
""fullscreenenter"",""1"",""2505""
","
","
","""event"",""trial"",""time""
""fullscreenenter"",""1"",""2505""
","
",,1222.4,run_exp/static/images/task_images/land.jpg,65,,,,,,,93,,,8,,,,,,,,227634,1,0,FALSE,,,
dig,173,568057,0.0-53.0-0.0,"""event"",""trial"",""time""
""fullscreenenter"",""1"",""2505""
","
","
","""event"",""trial"",""time""
""fullscreenenter"",""1"",""2505""
","
",,,,,,,,,,,,"[{""stimulus"":""run_exp/static/images/task_images/dig.jpg"",""time"":0.10000000149011612},{""stimulus"":""run_exp/static/images/task_images/land.jpg"",""time"":596.1000000014901},{""stimulus"":""run_exp/static/images/task_images/dig.jpg"",""time"":1188}]",[],8,,,,,,,,,,,,,,
harvest,174,569064,0.0-53.0-1.0,"""event"",""trial"",""time""
""fullscreenenter"",""1"",""2505""
","
","
","""event"",""trial"",""time""
""fullscreenenter"",""1"",""2505""
","
",,null,run_exp/static/images/task_images/gems/93.jpg,null,,,,,,,79,,,8,,,,,93,0.847927476,0.849462366,,,,,,,
decision,175,570242,0.0-53.0-2.0,"""event"",""trial"",""time""
""fullscreenenter"",""1"",""2505""
","
","
","""event"",""trial"",""time""
""fullscreenenter"",""1"",""2505""
","
",,1176.8,run_exp/static/images/task_images/land.jpg,65,,,,,,,79,,,8,,,,,,,,231601,1,1,FALSE,,,
dig,176,572066,0.0-54.0-0.0,"""event"",""trial"",""time""
""fullscreenenter"",""1"",""2505""
","
","
","""event"",""trial"",""time""
""fullscreenenter"",""1"",""2505""
","
",,,,,,,,,,,,"[{""stimulus"":""run_exp/static/images/task_images/dig.jpg"",""time"":0.10000000149011612},{""stimulus"":""run_exp/static/images/task_images/land.jpg"",""time"":613.2000000029802},{""stimulus"":""run_exp/static/images/task_images/dig.jpg"",""time"":1221.7000000029802}]",[],8,,,,,,,,,,,,,,
harvest,177,573073,0.0-54.0-1.0,"""event"",""trial"",""time""
""fullscreenenter"",""1"",""2505""
","
","
","""event"",""trial"",""time""
""fullscreenenter"",""1"",""2505""
","
",,null,run_exp/static/images/task_images/gems/79.jpg,null,,,,,,,63,,,8,,,,,79,0.79344405,0.797468354,,,,,,,
decision,178,574594,0.0-54.0-2.0,"""event"",""trial"",""time""
""fullscreenenter"",""1"",""2505""
","
","
","""event"",""trial"",""time""
""fullscreenenter"",""1"",""2505""
","
",,1519.4,run_exp/static/images/task_images/land.jpg,65,,,,,,,63,,,8,,,,,,,,235953,1,2,FALSE,,,
dig,179,576082,0.0-55.0-0.0,"""event"",""trial"",""time""
""fullscreenenter"",""1"",""2505""
","
","
","""event"",""trial"",""time""
""fullscreenenter"",""1"",""2505""
","
",,,,,,,,,,,,"[{""stimulus"":""run_exp/static/images/task_images/dig.jpg"",""time"":0.10000000149011612},{""stimulus"":""run_exp/static/images/task_images/land.jpg"",""time"":501.80000000447035},{""stimulus"":""run_exp/static/images/task_images/dig.jpg"",""time"":987.4000000059605}]",[],8,,,,,,,,,,,,,,
harvest,180,577090,0.0-55.0-1.0,"""event"",""trial"",""time""
""fullscreenenter"",""1"",""2505""
","
","
","""event"",""trial"",""time""
""fullscreenenter"",""1"",""2505""
","
",,null,run_exp/static/images/task_images/gems/63.jpg,null,,,,,,,54,,,8,,,,,63,0.852127285,0.857142857,,,,,,,
decision,181,578537,0.0-55.0-2.0,"""event"",""trial"",""time""
""fullscreenenter"",""1"",""2505""
","
","
","""event"",""trial"",""time""
""fullscreenenter"",""1"",""2505""
","
",,1446.1,run_exp/static/images/task_images/land.jpg,65,,,,,,,54,,,8,,,,,,,,239896,1,3,FALSE,,,
dig,182,580092,0.0-56.0-0.0,"""event"",""trial"",""time""
""fullscreenenter"",""1"",""2505""
","
","
","""event"",""trial"",""time""
""fullscreenenter"",""1"",""2505""
","
",,,,,,,,,,,,"[{""stimulus"":""run_exp/static/images/task_images/dig.jpg"",""time"":0.10000000149011612},{""stimulus"":""run_exp/static/images/task_images/land.jpg"",""time"":518},{""stimulus"":""run_exp/static/images/task_images/dig.jpg"",""time"":1034.8999999985099}]",[],8,,,,,,,,,,,,,,
harvest,183,581099,0.0-56.0-1.0,"""event"",""trial"",""time""
""fullscreenenter"",""1"",""2505""
","
","
","""event"",""trial"",""time""
""fullscreenenter"",""1"",""2505""
","
",,null,run_exp/static/images/task_images/gems/54.jpg,null,,,,,,,46,,,8,,,,,54,0.849459658,0.851851852,,,,,,,
decision,184,582002,0.0-56.0-2.0,"""event"",""trial"",""time""
""fullscreenenter"",""1"",""2505""
","
","
","""event"",""trial"",""time""
""fullscreenenter"",""1"",""2505""
","
",,902.3,run_exp/static/images/task_images/land.jpg,65,,,,,,,46,,,8,,,,,,,,243361,1,4,FALSE,,,
dig,185,584104,0.0-57.0-0.0,"""event"",""trial"",""time""
""fullscreenenter"",""1"",""2505""
","
","
","""event"",""trial"",""time""
""fullscreenenter"",""1"",""2505""
","
",,,,,,,,,,,,"[{""stimulus"":""run_exp/static/images/task_images/dig.jpg"",""time"":0.10000000149011612},{""stimulus"":""run_exp/static/images/task_images/land.jpg"",""time"":700.3000000044703},{""stimulus"":""run_exp/static/images/task_images/dig.jpg"",""time"":1399.1000000014901}]",[],8,,,,,,,,,,,,,,
harvest,186,585107,0.0-57.0-1.0,"""event"",""trial"",""time""
""fullscreenenter"",""1"",""2505""
","
","
","""event"",""trial"",""time""
""fullscreenenter"",""1"",""2505""
","
",,null,run_exp/static/images/task_images/gems/46.jpg,null,,,,,,,36,,,8,,,,,46,0.789489556,0.782608696,,,,,,,
decision,187,585700,0.0-57.0-2.0,"""event"",""trial"",""time""
""fullscreenenter"",""1"",""2505""
","
","
","""event"",""trial"",""time""
""fullscreenenter"",""1"",""2505""
","
",,592.4,run_exp/static/images/task_images/land.jpg,65,,,,,,,36,,,8,,,,,,,,247059,1,5,FALSE,,,
dig,188,588116,0.0-58.0-0.0,"""event"",""trial"",""time""
""fullscreenenter"",""1"",""2505""
","
","
","""event"",""trial"",""time""
""fullscreenenter"",""1"",""2505""
","
",,,,,,,,,,,,"[{""stimulus"":""run_exp/static/images/task_images/dig.jpg"",""time"":0.10000000149011612},{""stimulus"":""run_exp/static/images/task_images/land.jpg"",""time"":803},{""stimulus"":""run_exp/static/images/task_images/dig.jpg"",""time"":1605.4000000059605}]",[],8,,,,,,,,,,,,,,
harvest,189,589125,0.0-58.0-1.0,"""event"",""trial"",""time""
""fullscreenenter"",""1"",""2505""
","
","
","""event"",""trial"",""time""
""fullscreenenter"",""1"",""2505""
","
",,null,run_exp/static/images/task_images/gems/36.jpg,null,,,,,,,28,,,8,,,,,36,0.777269656,0.777777778,,,,,,,
decision,190,590770,0.0-58.0-2.0,"""event"",""trial"",""time""
""fullscreenenter"",""1"",""2505""
","
","
","""event"",""trial"",""time""
""fullscreenenter"",""1"",""2505""
","
",,1645,run_exp/static/images/task_images/land.jpg,65,,,,,,,28,,,8,,,,,,,,252129,1,6,FALSE,,,
dig,191,592132,0.0-59.0-0.0,"""event"",""trial"",""time""
""fullscreenenter"",""1"",""2505""
","
","
","""event"",""trial"",""time""
""fullscreenenter"",""1"",""2505""
","
",,,,,,,,,,,,"[{""stimulus"":""run_exp/static/images/task_images/dig.jpg"",""time"":0.20000000298023224},{""stimulus"":""run_exp/static/images/task_images/land.jpg"",""time"":451.70000000298023},{""stimulus"":""run_exp/static/images/task_images/dig.jpg"",""time"":910}]",[],8,,,,,,,,,,,,,,
harvest,192,593141,0.0-59.0-1.0,"""event"",""trial"",""time""
""fullscreenenter"",""1"",""2505""
","
","
","""event"",""trial"",""time""
""fullscreenenter"",""1"",""2505""
","
",,null,run_exp/static/images/task_images/gems/28.jpg,null,,,,,,,22,,,8,,,,,28,0.799928864,0.785714286,,,,,,,
decision,193,593990,0.0-59.0-2.0,"""event"",""trial"",""time""
""fullscreenenter"",""1"",""2505""
","
","
","""event"",""trial"",""time""
""fullscreenenter"",""1"",""2505""
","
",,848.4,run_exp/static/images/task_images/land.jpg,76,,,,,,,22,,,8,,,,,,,,255350,1,7,TRUE,,,
travel,194,603141,0.0-60.0-0.0,"""event"",""trial"",""time""
""fullscreenenter"",""1"",""2505""
","
","
","""event"",""trial"",""time""
""fullscreenenter"",""1"",""2505""
","
",,,,,,,,,,,,"[{""stimulus"":""run_exp/static/images/task_images/rocket-01.jpg"",""time"":0},{""stimulus"":""run_exp/static/images/task_images/rocket-02.jpg"",""time"":1023.6000000014901},{""stimulus"":""run_exp/static/images/task_images/rocket-03.jpg"",""time"":2033.1999999955297},{""stimulus"":""run_exp/static/images/task_images/rocket-04.jpg"",""time"":3048.6999999955297},{""stimulus"":""run_exp/static/images/task_images/rocket-05.jpg"",""time"":4065.1999999955297},{""stimulus"":""run_exp/static/images/task_images/rocket-06.jpg"",""time"":5080.89999999851},{""stimulus"":""run_exp/static/images/task_images/rocket-07.jpg"",""time"":6098.5},{""stimulus"":""run_exp/static/images/task_images/rocket-08.jpg"",""time"":7113.39999999851},{""stimulus"":""run_exp/static/images/task_images/rocket-09.jpg"",""time"":8129.5}]",[],8,,,,,,,,,,,,,,
alien_welcome,195,608143,0.0-60.0-1.0,"""event"",""trial"",""time""
""fullscreenenter"",""1"",""2505""
","
","
","""event"",""trial"",""time""
""fullscreenenter"",""1"",""2505""
","
",,null,run_exp/static/images/task_images/aliens/old_aliens/planet/alien_planet-47.jpg,null,,,,,,,,,,,,,47,"71,75,69,4,8,80,55,5,47,38,62,13,14,29,57,35,20,9,43,6,40,60,52,53,42,39,18,61,41,59,27,74,65,33,58,64,7,66,11",,,,,,,,,,
land,196,608647,0.0-60.0-2.0,"""event"",""trial"",""time""
""fullscreenenter"",""1"",""2505""
","
","
","""event"",""trial"",""time""
""fullscreenenter"",""1"",""2505""
","
",,null,run_exp/static/images/task_images/land.jpg,null,,,,,,,99,,,9,,,,,,,,,,,,,,
dig,197,610651,0.0-60.0-3.0,"""event"",""trial"",""time""
""fullscreenenter"",""1"",""2505""
","
","
","""event"",""trial"",""time""
""fullscreenenter"",""1"",""2505""
","
",,,,,,,,,,,,"[{""stimulus"":""run_exp/static/images/task_images/dig.jpg"",""time"":0.10000000149011612},{""stimulus"":""run_exp/static/images/task_images/land.jpg"",""time"":668.1999999955297},{""stimulus"":""run_exp/static/images/task_images/dig.jpg"",""time"":1340}]",[],9,,,,,,,,,,,,,,
harvest,198,611658,0.0-60.0-4.0,"""event"",""trial"",""time""
""fullscreenenter"",""1"",""2505""
","
","
","""event"",""trial"",""time""
""fullscreenenter"",""1"",""2505""
","
",,null,run_exp/static/images/task_images/gems/99.jpg,null,,,,,,,20,,,9,,,,,99,0.201025731,0.202020202,,,,,,,
decision,199,613816,0.0-60.0-5.0,"""event"",""trial"",""time""
""fullscreenenter"",""1"",""2505""
","
","
","""event"",""trial"",""time""
""fullscreenenter"",""1"",""2505""
","
",,2157.1,run_exp/static/images/task_images/land.jpg,65,,,,,,,20,,,9,,,,,,,,275175,1,0,FALSE,,,
dig,200,614664,0.0-61.0-0.0,"""event"",""trial"",""time""
""fullscreenenter"",""1"",""2505""
","
","
","""event"",""trial"",""time""
""fullscreenenter"",""1"",""2505""
","
",,,,,,,,,,,,"[{""stimulus"":""run_exp/static/images/task_images/dig.jpg"",""time"":0.10000000149011612},{""stimulus"":""run_exp/static/images/task_images/land.jpg"",""time"":281.30000000447035},{""stimulus"":""run_exp/static/images/task_images/dig.jpg"",""time"":563.8999999985099}]",[],9,,,,,,,,,,,,,,
harvest,201,615666,0.0-61.0-1.0,"""event"",""trial"",""time""
""fullscreenenter"",""1"",""2505""
","
","
","""event"",""trial"",""time""
""fullscreenenter"",""1"",""2505""
","
",,null,run_exp/static/images/task_images/gems/20.jpg,null,,,,,,,3,,,9,,,,,20,0.146901459,0.15,,,,,,,
decision,202,615710,0.0-61.0-2.0,"""event"",""trial"",""time""
""fullscreenenter"",""1"",""2505""
","
","
","""event"",""trial"",""time""
""fullscreenenter"",""1"",""2505""
","
",,43.1,run_exp/static/images/task_images/land.jpg,76,,,,,,,3,,,9,,,,,,,,277069,1,1,TRUE,,,
travel,203,625669,0.0-62.0-0.0,"""event"",""trial"",""time""
""fullscreenenter"",""1"",""2505""
","
","
","""event"",""trial"",""time""
""fullscreenenter"",""1"",""2505""
","
",,,,,,,,,,,,"[{""stimulus"":""run_exp/static/images/task_images/rocket-01.jpg"",""time"":0.10000000149011612},{""stimulus"":""run_exp/static/images/task_images/rocket-02.jpg"",""time"":1112.2999999970198},{""stimulus"":""run_exp/static/images/task_images/rocket-03.jpg"",""time"":2212.7999999970198},{""stimulus"":""run_exp/static/images/task_images/rocket-04.jpg"",""time"":3319.10000000149},{""stimulus"":""run_exp/static/images/task_images/rocket-05.jpg"",""time"":4425.89999999851},{""stimulus"":""run_exp/static/images/task_images/rocket-06.jpg"",""time"":5531.20000000298},{""stimulus"":""run_exp/static/images/task_images/rocket-07.jpg"",""time"":6637.29999999702},{""stimulus"":""run_exp/static/images/task_images/rocket-08.jpg"",""time"":7745.39999999851},{""stimulus"":""run_exp/static/images/task_images/rocket-09.jpg"",""time"":8852.70000000298}]",[],9,,,,,,,,,,,,,,
alien_welcome,204,630673,0.0-62.0-1.0,"""event"",""trial"",""time""
""fullscreenenter"",""1"",""2505""
","
","
","""event"",""trial"",""time""
""fullscreenenter"",""1"",""2505""
","
",,null,run_exp/static/images/task_images/aliens/old_aliens/planet/alien_planet-38.jpg,null,,,,,,,,,,,,,38,"71,75,69,4,8,80,55,5,47,38,62,13,14,29,57,35,20,9,43,6,40,60,52,53,42,39,18,61,41,59,27,74,65,33,58,64,7,66,11",,,,,,,,,,
land,205,631176,0.0-62.0-2.0,"""event"",""trial"",""time""
""fullscreenenter"",""1"",""2505""
","
","
","""event"",""trial"",""time""
""fullscreenenter"",""1"",""2505""
","
",,null,run_exp/static/images/task_images/land.jpg,null,,,,,,,92,,,10,,,,,,,,,,,,,,
dig,206,633179,0.0-62.0-3.0,"""event"",""trial"",""time""
""fullscreenenter"",""1"",""2505""
","
","
","""event"",""trial"",""time""
""fullscreenenter"",""1"",""2505""
","
",,,,,,,,,,,,"[{""stimulus"":""run_exp/static/images/task_images/dig.jpg"",""time"":0.10000000149011612},{""stimulus"":""run_exp/static/images/task_images/land.jpg"",""time"":672.3000000044703},{""stimulus"":""run_exp/static/images/task_images/dig.jpg"",""time"":1340.8000000044703}]",[],10,,,,,,,,,,,,,,
harvest,207,634182,0.0-62.0-4.0,"""event"",""trial"",""time""
""fullscreenenter"",""1"",""2505""
","
","
","""event"",""trial"",""time""
""fullscreenenter"",""1"",""2505""
","
",,null,run_exp/static/images/task_images/gems/92.jpg,null,,,,,,,20,,,10,,,,,92,0.217587746,0.217391304,,,,,,,
decision,208,636372,0.0-62.0-5.0,"""event"",""trial"",""time""
""fullscreenenter"",""1"",""2505""
","
","
","""event"",""trial"",""time""
""fullscreenenter"",""1"",""2505""
","
",,2189.2,run_exp/static/images/task_images/land.jpg,65,,,,,,,20,,,10,,,,,,,,297731,1,0,FALSE,,,
dig,209,637188,0.0-63.0-0.0,"""event"",""trial"",""time""
""fullscreenenter"",""1"",""2505""
","
","
","""event"",""trial"",""time""
""fullscreenenter"",""1"",""2505""
","
",,,,,,,,,,,,"[{""stimulus"":""run_exp/static/images/task_images/dig.jpg"",""time"":0.19999999552965164},{""stimulus"":""run_exp/static/images/task_images/land.jpg"",""time"":271.3999999985099},{""stimulus"":""run_exp/static/images/task_images/dig.jpg"",""time"":542.6999999955297}]",[],10,,,,,,,,,,,,,,
harvest,210,638193,0.0-63.0-1.0,"""event"",""trial"",""time""
""fullscreenenter"",""1"",""2505""
","
","
","""event"",""trial"",""time""
""fullscreenenter"",""1"",""2505""
","
",,null,run_exp/static/images/task_images/gems/20.jpg,null,,,,,,,6,,,10,,,,,20,0.308066488,0.3,,,,,,,
decision,211,638368,0.0-63.0-2.0,"""event"",""trial"",""time""
""fullscreenenter"",""1"",""2505""
","
","
","""event"",""trial"",""time""
""fullscreenenter"",""1"",""2505""
","
",,174.6,run_exp/static/images/task_images/land.jpg,76,,,,,,,6,,,10,,,,,,,,299727,1,1,TRUE,,,
travel,212,648193,0.0-64.0-0.0,"""event"",""trial"",""time""
""fullscreenenter"",""1"",""2505""
","
","
","""event"",""trial"",""time""
""fullscreenenter"",""1"",""2505""
","
",,,,,,,,,,,,"[{""stimulus"":""run_exp/static/images/task_images/rocket-01.jpg"",""time"":0.09999999403953552},{""stimulus"":""run_exp/static/images/task_images/rocket-02.jpg"",""time"":1097.2999999970198},{""stimulus"":""run_exp/static/images/task_images/rocket-03.jpg"",""time"":2183.39999999851},{""stimulus"":""run_exp/static/images/task_images/rocket-04.jpg"",""time"":3280.6999999955297},{""stimulus"":""run_exp/static/images/task_images/rocket-05.jpg"",""time"":4372.89999999851},{""stimulus"":""run_exp/static/images/task_images/rocket-06.jpg"",""time"":5455.89999999851},{""stimulus"":""run_exp/static/images/task_images/rocket-07.jpg"",""time"":6547.79999999702},{""stimulus"":""run_exp/static/images/task_images/rocket-08.jpg"",""time"":7638.5999999940395},{""stimulus"":""run_exp/static/images/task_images/rocket-09.jpg"",""time"":8731.19999999553}]",[],10,,,,,,,,,,,,,,
alien_welcome,213,653197,0.0-64.0-1.0,"""event"",""trial"",""time""
""fullscreenenter"",""1"",""2505""
","
","
","""event"",""trial"",""time""
""fullscreenenter"",""1"",""2505""
","
",,null,run_exp/static/images/task_images/aliens/old_aliens/planet/alien_planet-62.jpg,null,,,,,,,,,,,,,62,"71,75,69,4,8,80,55,5,47,38,62,13,14,29,57,35,20,9,43,6,40,60,52,53,42,39,18,61,41,59,27,74,65,33,58,64,7,66,11",,,,,,,,,,
land,214,653701,0.0-64.0-2.0,"""event"",""trial"",""time""
""fullscreenenter"",""1"",""2505""
","
","
","""event"",""trial"",""time""
""fullscreenenter"",""1"",""2505""
","
",,null,run_exp/static/images/task_images/land.jpg,null,,,,,,,104,,,11,,,,,,,,,,,,,,
dig,215,655705,0.0-64.0-3.0,"""event"",""trial"",""time""
""fullscreenenter"",""1"",""2505""
","
","
","""event"",""trial"",""time""
""fullscreenenter"",""1"",""2505""
","
",,,,,,,,,,,,"[{""stimulus"":""run_exp/static/images/task_images/dig.jpg"",""time"":0.09999999403953552},{""stimulus"":""run_exp/static/images/task_images/land.jpg"",""time"":670.5},{""stimulus"":""run_exp/static/images/task_images/dig.jpg"",""time"":1339.5}]",[],11,,,,,,,,,,,,,,
harvest,216,656710,0.0-64.0-4.0,"""event"",""trial"",""time""
""fullscreenenter"",""1"",""2505""
","
","
","""event"",""trial"",""time""
""fullscreenenter"",""1"",""2505""
","
",,null,run_exp/static/images/task_images/gems/104.jpg,null,,,,,,,28,,,11,,,,,104,0.270361333,0.269230769,,,,,,,
decision,217,657711,0.0-64.0-5.0,"""event"",""trial"",""time""
""fullscreenenter"",""1"",""2505""
","
","
","""event"",""trial"",""time""
""fullscreenenter"",""1"",""2505""
","
",,1000.4,run_exp/static/images/task_images/land.jpg,65,,,,,,,28,,,11,,,,,,,,319070,1,0,TRUE,,,
end_of_block_continue,218,662928,0.0-65.0-0.0,"""event"",""trial"",""time""
""fullscreenenter"",""1"",""2505""
","
","
","""event"",""trial"",""time""
""fullscreenenter"",""1"",""2505""
","
",,5214.2,run_exp/static/audio/clip_32_block_end.m4a,,,,,,,0,,,,,,,,,,,,,,,,,,
alien_welcome,219,667932,0.0-66.0-0.0,"""event"",""trial"",""time""
""fullscreenenter"",""1"",""2505""
","
","
","""event"",""trial"",""time""
""fullscreenenter"",""1"",""2505""
","
",,null,run_exp/static/images/task_images/aliens/old_aliens/planet/alien_planet-13.jpg,null,,,,,,,,,,,,,13,"71,75,69,4,8,80,55,5,47,38,62,13,14,29,57,35,20,9,43,6,40,60,52,53,42,39,18,61,41,59,27,74,65,33,58,64,7,66,11",,,,,,,,,,
land,220,668435,0.0-66.0-1.0,"""event"",""trial"",""time""
""fullscreenenter"",""1"",""2505""
","
","
","""event"",""trial"",""time""
""fullscreenenter"",""1"",""2505""
","
",,null,run_exp/static/images/task_images/land.jpg,null,,,,,,,100,,,12,,,,,,,,,,,,,,
dig,221,670439,0.0-66.0-2.0,"""event"",""trial"",""time""
""fullscreenenter"",""1"",""2505""
","
","
","""event"",""trial"",""time""
""fullscreenenter"",""1"",""2505""
","
",,,,,,,,,,,,"[{""stimulus"":""run_exp/static/images/task_images/dig.jpg"",""time"":0.29999999701976776},{""stimulus"":""run_exp/static/images/task_images/land.jpg"",""time"":674.1999999955297},{""stimulus"":""run_exp/static/images/task_images/dig.jpg"",""time"":1340.8999999985099}]",[],12,,,,,,,,,,,,,,
harvest,222,671443,0.0-66.0-3.0,"""event"",""trial"",""time""
""fullscreenenter"",""1"",""2505""
","
","
","""event"",""trial"",""time""
""fullscreenenter"",""1"",""2505""
","
",,null,run_exp/static/images/task_images/gems/100.jpg,null,,,,,,,12,,,12,,,,,100,0.123818507,0.12,,,,,,,
decision,223,671506,0.0-66.0-4.0,"""event"",""trial"",""time""
""fullscreenenter"",""1"",""2505""
","
","
","""event"",""trial"",""time""
""fullscreenenter"",""1"",""2505""
","
",,61.7,run_exp/static/images/task_images/land.jpg,65,,,,,,,12,,,12,,,,,,,,8576,2,0,FALSE,,,
dig,224,674453,0.0-67.0-0.0,"""event"",""trial"",""time""
""fullscreenenter"",""1"",""2505""
","
","
","""event"",""trial"",""time""
""fullscreenenter"",""1"",""2505""
","
",,,,,,,,,,,,"[{""stimulus"":""run_exp/static/images/task_images/dig.jpg"",""time"":0.10000000149011612},{""stimulus"":""run_exp/static/images/task_images/land.jpg"",""time"":985.6000000014901},{""stimulus"":""run_exp/static/images/task_images/dig.jpg"",""time"":1960.6000000014901}]",[],12,,,,,,,,,,,,,,
harvest,225,675460,0.0-67.0-1.0,"""event"",""trial"",""time""
""fullscreenenter"",""1"",""2505""
","
","
","""event"",""trial"",""time""
""fullscreenenter"",""1"",""2505""
","
",,null,run_exp/static/images/task_images/gems/12.jpg,null,,,,,,,2,,,12,,,,,12,0.186973229,0.166666667,,,,,,,
decision,226,676411,0.0-67.0-2.0,"""event"",""trial"",""time""
""fullscreenenter"",""1"",""2505""
","
","
","""event"",""trial"",""time""
""fullscreenenter"",""1"",""2505""
","
",,949.2,run_exp/static/images/task_images/land.jpg,76,,,,,,,2,,,12,,,,,,,,13481,2,1,TRUE,,,
travel,227,685461,0.0-68.0-0.0,"""event"",""trial"",""time""
""fullscreenenter"",""1"",""2505""
","
","
","""event"",""trial"",""time""
""fullscreenenter"",""1"",""2505""
","
",,,,,,,,,,,,"[{""stimulus"":""run_exp/static/images/task_images/rocket-01.jpg"",""time"":0.10000000149011612},{""stimulus"":""run_exp/static/images/task_images/rocket-02.jpg"",""time"":1006.1000000014901},{""stimulus"":""run_exp/static/images/task_images/rocket-03.jpg"",""time"":2014.7999999970198},{""stimulus"":""run_exp/static/images/task_images/rocket-04.jpg"",""time"":3015.6999999955297},{""stimulus"":""run_exp/static/images/task_images/rocket-05.jpg"",""time"":4022.2999999970198},{""stimulus"":""run_exp/static/images/task_images/rocket-06.jpg"",""time"":5031.79999999702},{""stimulus"":""run_exp/static/images/task_images/rocket-07.jpg"",""time"":6031},{""stimulus"":""run_exp/static/images/task_images/rocket-08.jpg"",""time"":7036.69999999553},{""stimulus"":""run_exp/static/images/task_images/rocket-09.jpg"",""time"":8047.89999999851}]",[],12,,,,,,,,,,,,,,
alien_welcome,228,690469,0.0-68.0-1.0,"""event"",""trial"",""time""
""fullscreenenter"",""1"",""2505""
","
","
","""event"",""trial"",""time""
""fullscreenenter"",""1"",""2505""
","
",,null,run_exp/static/images/task_images/aliens/old_aliens/planet/alien_planet-14.jpg,null,,,,,,,,,,,,,14,"71,75,69,4,8,80,55,5,47,38,62,13,14,29,57,35,20,9,43,6,40,60,52,53,42,39,18,61,41,59,27,74,65,33,58,64,7,66,11",,,,,,,,,,
land,229,690977,0.0-68.0-2.0,"""event"",""trial"",""time""
""fullscreenenter"",""1"",""2505""
","
","
","""event"",""trial"",""time""
""fullscreenenter"",""1"",""2505""
","
",,null,run_exp/static/images/task_images/land.jpg,null,,,,,,,99,,,13,,,,,,,,,,,,,,
dig,230,692986,0.0-68.0-3.0,"""event"",""trial"",""time""
""fullscreenenter"",""1"",""2505""
","
","
","""event"",""trial"",""time""
""fullscreenenter"",""1"",""2505""
","
",,,,,,,,,,,,"[{""stimulus"":""run_exp/static/images/task_images/dig.jpg"",""time"":0.20000000298023224},{""stimulus"":""run_exp/static/images/task_images/land.jpg"",""time"":674.2999999970198},{""stimulus"":""run_exp/static/images/task_images/dig.jpg"",""time"":1340.7000000029802}]",[],13,,,,,,,,,,,,,,
harvest,231,693991,0.0-68.0-4.0,"""event"",""trial"",""time""
""fullscreenenter"",""1"",""2505""
","
","
","""event"",""trial"",""time""
""fullscreenenter"",""1"",""2505""
","
",,null,run_exp/static/images/task_images/gems/99.jpg,null,,,,,,,24,,,13,,,,,99,0.244871405,0.242424242,,,,,,,
decision,232,694932,0.0-68.0-5.0,"""event"",""trial"",""time""
""fullscreenenter"",""1"",""2505""
","
","
","""event"",""trial"",""time""
""fullscreenenter"",""1"",""2505""
","
",,939.2,run_exp/static/images/task_images/land.jpg,65,,,,,,,24,,,13,,,,,,,,32002,2,0,FALSE,,,
dig,233,696994,0.0-69.0-0.0,"""event"",""trial"",""time""
""fullscreenenter"",""1"",""2505""
","
","
","""event"",""trial"",""time""
""fullscreenenter"",""1"",""2505""
","
",,,,,,,,,,,,"[{""stimulus"":""run_exp/static/images/task_images/dig.jpg"",""time"":0.10000000149011612},{""stimulus"":""run_exp/static/images/task_images/land.jpg"",""time"":694},{""stimulus"":""run_exp/static/images/task_images/dig.jpg"",""time"":1374}]",[],13,,,,,,,,,,,,,,
harvest,234,698003,0.0-69.0-1.0,"""event"",""trial"",""time""
""fullscreenenter"",""1"",""2505""
","
","
","""event"",""trial"",""time""
""fullscreenenter"",""1"",""2505""
","
",,null,run_exp/static/images/task_images/gems/24.jpg,null,,,,,,,6,,,13,,,,,24,0.2385163,0.25,,,,,,,
decision,235,699303,0.0-69.0-2.0,"""event"",""trial"",""time""
""fullscreenenter"",""1"",""2505""
","
","
","""event"",""trial"",""time""
""fullscreenenter"",""1"",""2505""
","
",,1298.8,run_exp/static/images/task_images/land.jpg,65,,,,,,,6,,,13,,,,,,,,36373,2,1,FALSE,,,
dig,236,701011,0.0-70.0-0.0,"""event"",""trial"",""time""
""fullscreenenter"",""1"",""2505""
","
","
","""event"",""trial"",""time""
""fullscreenenter"",""1"",""2505""
","
",,,,,,,,,,,,"[{""stimulus"":""run_exp/static/images/task_images/dig.jpg"",""time"":0.10000000149011612},{""stimulus"":""run_exp/static/images/task_images/land.jpg"",""time"":568.2000000029802},{""stimulus"":""run_exp/static/images/task_images/dig.jpg"",""time"":1135.3000000044703}]",[],13,,,,,,,,,,,,,,
harvest,237,702019,0.0-70.0-1.0,"""event"",""trial"",""time""
""fullscreenenter"",""1"",""2505""
","
","
","""event"",""trial"",""time""
""fullscreenenter"",""1"",""2505""
","
",,null,run_exp/static/images/task_images/gems/6.jpg,null,,,,,,,1,,,13,,,,,6,0.169353422,0.166666667,,,,,,,
decision,238,702490,0.0-70.0-2.0,"""event"",""trial"",""time""
""fullscreenenter"",""1"",""2505""
","
","
","""event"",""trial"",""time""
""fullscreenenter"",""1"",""2505""
","
",,469.9,run_exp/static/images/task_images/land.jpg,76,,,,,,,1,,,13,,,,,,,,39560,2,2,TRUE,,,
travel,239,712020,0.0-71.0-0.0,"""event"",""trial"",""time""
""fullscreenenter"",""1"",""2505""
","
","
","""event"",""trial"",""time""
""fullscreenenter"",""1"",""2505""
","
",,,,,,,,,,,,"[{""stimulus"":""run_exp/static/images/task_images/rocket-01.jpg"",""time"":0},{""stimulus"":""run_exp/static/images/task_images/rocket-02.jpg"",""time"":1060.8999999985099},{""stimulus"":""run_exp/static/images/task_images/rocket-03.jpg"",""time"":2117.5},{""stimulus"":""run_exp/static/images/task_images/rocket-04.jpg"",""time"":3177.1999999955297},{""stimulus"":""run_exp/static/images/task_images/rocket-05.jpg"",""time"":4236.19999999553},{""stimulus"":""run_exp/static/images/task_images/rocket-06.jpg"",""time"":5294.29999999702},{""stimulus"":""run_exp/static/images/task_images/rocket-07.jpg"",""time"":6353},{""stimulus"":""run_exp/static/images/task_images/rocket-08.jpg"",""time"":7411.29999999702},{""stimulus"":""run_exp/static/images/task_images/rocket-09.jpg"",""time"":8465.59999999404}]",[],13,,,,,,,,,,,,,,
alien_welcome,240,717026,0.0-71.0-1.0,"""event"",""trial"",""time""
""fullscreenenter"",""1"",""2505""
","
","
","""event"",""trial"",""time""
""fullscreenenter"",""1"",""2505""
","
",,null,run_exp/static/images/task_images/aliens/old_aliens/planet/alien_planet-29.jpg,null,,,,,,,,,,,,,29,"71,75,69,4,8,80,55,5,47,38,62,13,14,29,57,35,20,9,43,6,40,60,52,53,42,39,18,61,41,59,27,74,65,33,58,64,7,66,11",,,,,,,,,,
land,241,717527,0.0-71.0-2.0,"""event"",""trial"",""time""
""fullscreenenter"",""1"",""2505""
","
","
","""event"",""trial"",""time""
""fullscreenenter"",""1"",""2505""
","
",,null,run_exp/static/images/task_images/land.jpg,null,,,,,,,98,,,14,,,,,,,,,,,,,,
dig,242,719530,0.0-71.0-3.0,"""event"",""trial"",""time""
""fullscreenenter"",""1"",""2505""
","
","
","""event"",""trial"",""time""
""fullscreenenter"",""1"",""2505""
","
",,,,,,,,,,,,"[{""stimulus"":""run_exp/static/images/task_images/dig.jpg"",""time"":0.10000000149011612},{""stimulus"":""run_exp/static/images/task_images/land.jpg"",""time"":669.1000000014901},{""stimulus"":""run_exp/static/images/task_images/dig.jpg"",""time"":1341}]",[],14,,,,,,,,,,,,,,
harvest,243,720537,0.0-71.0-4.0,"""event"",""trial"",""time""
""fullscreenenter"",""1"",""2505""
","
","
","""event"",""trial"",""time""
""fullscreenenter"",""1"",""2505""
","
