trial_type,trial_index,time_elapsed,internal_node_id,interactions,blur_events,focus_events,fullscreenenter_events,fullscreenexit_events,success,rt,stimulus,key_press,prompt,subject_id,participant_id,age,gender,button_pressed,next_reward,animation_sequence,responses,planet,curr_prac_trial,n_prac_rounds,alien,aliens,reward_received,decay_rate_actual,decay_rate_exp,time_in_block,block_num,prt,last_trial_on_planet,button_html,bonus,num_failures
pavlovia,0,4,0.0-0.0,"""event"",""trial"",""time""
""fullscreenenter"",""1"",""7185""
","
","
","""event"",""trial"",""time""
""fullscreenenter"",""1"",""7185""
","
",,,,,,,,,,,,,,,,,,,,,,,,,,,,
fullscreen,1,8144,0.0-1.0,"""event"",""trial"",""time""
""fullscreenenter"",""1"",""7185""
","
","
","""event"",""trial"",""time""
""fullscreenenter"",""1"",""7185""
","
",TRUE,,,,,,,,,,,,,,,,,,,,,,,,,,,
instruc_welcome,2,17991,0.0-2.0,"""event"",""trial"",""time""
""fullscreenenter"",""1"",""7185""
","
","
","""event"",""trial"",""time""
""fullscreenenter"",""1"",""7185""
","
",,null,run_exp/static/audio/clip_1_welcome.m4a,null,"<p>Howdy! In this experiment, you’ll be an explorer traveling through space to collect space treasure.</p><p>Your mission is to collect as much treasure as possible.</p><br><br><p><img src='run_exp/static/images/task_images/opening_img-01.jpg' height='300' width='auto'></p>",8273,2732,19.11,Female,,,,,,,,,,,,,,,,,,,
audio-keyboard-response,3,34606,0.0-3.0,"""event"",""trial"",""time""
""fullscreenenter"",""1"",""7185""
","
","
","""event"",""trial"",""time""
""fullscreenenter"",""1"",""7185""
","
",,null,run_exp/static/audio/clip_2_move.m4a,null,,,,,,,,,,,,,,,,,,,,,,,,
welcome_dec,4,37726,0.0-4.0,"""event"",""trial"",""time""
""fullscreenenter"",""1"",""7185""
","
","
","""event"",""trial"",""time""
""fullscreenenter"",""1"",""7185""
","
",,3115.9,"<p>Howdy! In this experiment, you’ll be an explorer traveling through space to collect space treasure.</p><p>Your mission is to collect as much treasure as possible.</p><br><br><p><img src='run_exp/static/images/task_images/opening_img-01.jpg' height='300' width='auto'></p>",,,,,,,1,,,,,,,,,,,,,,,,,,
html-keyboard-response,5,39213,0.0-5.0,"""event"",""trial"",""time""
""fullscreenenter"",""1"",""7185""
","
","
","""event"",""trial"",""time""
""fullscreenenter"",""1"",""7185""
","
",,1485.2,"<p>Howdy! In this experiment, you’ll be an explorer traveling through space to collect space treasure.</p><p>Your mission is to collect as much treasure as possible.</p><br><br><p><img src='run_exp/static/images/task_images/opening_img-01.jpg' height='300' width='auto'></p><button class=""jspsych-html-btn-unchosen""><img src=""run_exp/static/images/task_images/planet-01.jpg"" height=""50""></button><button class=""jspsych-html-btn-chosen""><img src=""run_exp/static/images/task_images/planet-02.jpg"" height=""50""></button><p><b>[press the space bar to lock in your answer]<b><br></p>",32,,,,,,,,,,,,,,,,,,,,,,,,
instruc_goal,6,49305,0.0-6.0-0.0,"""event"",""trial"",""time""
""fullscreenenter"",""1"",""7185""
","
","
","""event"",""trial"",""time""
""fullscreenenter"",""1"",""7185""
","
",,null,run_exp/static/audio/clip_3_goal.m4a,null,"<p> As a space explorer, you’ll visit different planets to dig for space treasure, these pink gems.</p> <p> The more treasure you dig up, the more bonus money you’ll win! </p><br><br><p><img src='run_exp/static/images/task_images/pink_gem.jpg' height='300' width='auto'></p>",,,,,,,,,,,,,,,,,,,,,,,
instruc_goal,7,53230,0.0-6.0-1.0,"""event"",""trial"",""time""
""fullscreenenter"",""1"",""7185""
","
","
","""event"",""trial"",""time""
""fullscreenenter"",""1"",""7185""
","
",,3917.8,"<p> As a space explorer, you’ll visit different planets to dig for space treasure, these pink gems.</p> <p> The more treasure you dig up, the more bonus money you’ll win! </p><br><br><p><img src='run_exp/static/images/task_images/pink_gem.jpg' height='300' width='auto'></p>",,,,,,,1,,,,,,,,,,,,,,,,,,
html-keyboard-response,8,55109,0.0-6.0-2.0,"""event"",""trial"",""time""
""fullscreenenter"",""1"",""7185""
","
","
","""event"",""trial"",""time""
""fullscreenenter"",""1"",""7185""
","
",,1877.6,"<p> As a space explorer, you’ll visit different planets to dig for space treasure, these pink gems.</p> <p> The more treasure you dig up, the more bonus money you’ll win! </p><br><br><p><img src='run_exp/static/images/task_images/pink_gem.jpg' height='300' width='auto'></p><button class=""jspsych-html-btn-unchosen""><img src=""run_exp/static/images/task_images/planet-01.jpg"" height=""50""></button><button class=""jspsych-html-btn-chosen""><img src=""run_exp/static/images/task_images/planet-02.jpg"" height=""50""></button><p><b>[press the space bar to lock in your answer]<b><br></p>",32,,,,,,,,,,,,,,,,,,,,,,,,
instruc_dig,9,71154,0.0-7.0-0.0,"""event"",""trial"",""time""
""fullscreenenter"",""1"",""7185""
","
","
","""event"",""trial"",""time""
""fullscreenenter"",""1"",""7185""
","
",,null,run_exp/static/audio/clip_4_dig.m4a,null,,,,,,,100,,,,,,,,,,,,,,,,,
instruc_dig_try,10,71710,0.0-7.0-1.0,"""event"",""trial"",""time""
""fullscreenenter"",""1"",""7185""
","
","
","""event"",""trial"",""time""
""fullscreenenter"",""1"",""7185""
","
",,552.3000002,"<p> When you’ve arrived at a new planet, you will dig once. </p> <p>Then, you get to decide if you want to stay on the planet and dig again or travel to a new planet and dig there.</p> <p> To stay and dig, press the letter <strong>‘A’</strong> on your keyboard. Try pressing it now! </p><p><img src='run_exp/static/images/task_images/land.jpg'  height='700' width='auto'></p>",65,"<p> When you’ve arrived at a new planet, you will dig once. </p> <p>Then, you get to decide if you want to stay on the planet and dig again or travel to a new planet and dig there.</p> <p> To stay and dig, press the letter <strong>‘A’</strong> on your keyboard. Try pressing it now! </p><p><img src='run_exp/static/images/task_images/land.jpg'  height='700' width='auto'></p>",,,,,,100,,,,,,,,,,,,,,,,,
dig_prac,11,73727,0.0-7.0-2.0,"""event"",""trial"",""time""
""fullscreenenter"",""1"",""7185""
","
","
","""event"",""trial"",""time""
""fullscreenenter"",""1"",""7185""
","
",,,,,,,,,,,,"[{""stimulus"":""run_exp/static/images/task_images/dig.jpg"",""time"":0.39999961853027344},{""stimulus"":""run_exp/static/images/task_images/land.jpg"",""time"":669.8999996185303},{""stimulus"":""run_exp/static/images/task_images/dig.jpg"",""time"":1336.0999999046326}]",[],,,,,,,,,,,,,,,
instruc_travel,12,109997,0.0-7.0-3.0,"""event"",""trial"",""time""
""fullscreenenter"",""1"",""7185""
","
","
","""event"",""trial"",""time""
""fullscreenenter"",""1"",""7185""
","
",,null,run_exp/static/audio/clip_5_travel.m4a,null,"<p>Every time you dig up gems, there are less gems on the planet, so the more you dig on a planet the fewer gems you’ll get with each dig.</p><p>When gems are running low, you may want to travel to a new planet. </p> <p>  Planets are very far apart in this galaxy, so it will take some time to travel between them. </p> <br><p>There are lots and lots of planets for you to visit, so you won’t be able to return to any planets you’ve seen before. </p><br><p>To leave this planet and travel to a new one, press the letter <strong>‘L’</strong> on your keyboard. Try pressing it now! </p><p><img src='run_exp/static/images/task_images/rocket-01.jpg'  height='600' width='auto'></p>",,,,,,,,,,,,,,,,,,,,,,,
instruc_travel_try,13,112707,0.0-7.0-4.0,"""event"",""trial"",""time""
""fullscreenenter"",""1"",""7185""
","
","
","""event"",""trial"",""time""
""fullscreenenter"",""1"",""7185""
","
",,2707,"<p>Every time you dig up gems, there are less gems on the planet, so the more you dig on a planet the fewer gems you’ll get with each dig.</p><p>When gems are running low, you may want to travel to a new planet. </p> <p>  Planets are very far apart in this galaxy, so it will take some time to travel between them. </p> <br><p>There are lots and lots of planets for you to visit, so you won’t be able to return to any planets you’ve seen before. </p><br><p>To leave this planet and travel to a new one, press the letter <strong>‘L’</strong> on your keyboard. Try pressing it now! </p><p><img src='run_exp/static/images/task_images/rocket-01.jpg'  height='600' width='auto'></p>",76,"<p>Every time you dig up gems, there are less gems on the planet, so the more you dig on a planet the fewer gems you’ll get with each dig.</p><p>When gems are running low, you may want to travel to a new planet. </p> <p>  Planets are very far apart in this galaxy, so it will take some time to travel between them. </p> <br><p>There are lots and lots of planets for you to visit, so you won’t be able to return to any planets you’ve seen before. </p><br><p>To leave this planet and travel to a new one, press the letter <strong>‘L’</strong> on your keyboard. Try pressing it now! </p><p><img src='run_exp/static/images/task_images/rocket-01.jpg'  height='600' width='auto'></p>",,,,,,,,,,,,,,,,,,,,,,,
travel_prac,14,122710,0.0-7.0-5.0,"""event"",""trial"",""time""
""fullscreenenter"",""1"",""7185""
","
","
","""event"",""trial"",""time""
""fullscreenenter"",""1"",""7185""
","
",,,,,,,,,,,,"[{""stimulus"":""run_exp/static/images/task_images/rocket-01.jpg"",""time"":0.5},{""stimulus"":""run_exp/static/images/task_images/rocket-02.jpg"",""time"":1112.7999997138977},{""stimulus"":""run_exp/static/images/task_images/rocket-03.jpg"",""time"":2226},{""stimulus"":""run_exp/static/images/task_images/rocket-04.jpg"",""time"":3335.9000000953674},{""stimulus"":""run_exp/static/images/task_images/rocket-05.jpg"",""time"":4449.199999809265},{""stimulus"":""run_exp/static/images/task_images/rocket-06.jpg"",""time"":5557.099999904633},{""stimulus"":""run_exp/static/images/task_images/rocket-07.jpg"",""time"":6670.799999713898},{""stimulus"":""run_exp/static/images/task_images/rocket-08.jpg"",""time"":7781},{""stimulus"":""run_exp/static/images/task_images/rocket-09.jpg"",""time"":8891.599999904633}]",[],0,,,,,,,,,,,,,,
instruc_alien_greet,15,149933,0.0-7.0-6.0,"""event"",""trial"",""time""
""fullscreenenter"",""1"",""7185""
","
","
","""event"",""trial"",""time""
""fullscreenenter"",""1"",""7185""
","
",,null,run_exp/static/audio/clip_6_alien.m4a,null,"<p>When you arrive at a new planet, the alien who owns the treasure mine on that planet will greet you!</p><p>The better an alien takes care of their mine the easier it is to dig for gems. Some aliens take better care of their mine than others. So, you won’t get exactly the same amount of gems on each planet.</p><p>What the alien looks like does not tell you anything about how many gems there are on the planet.</p><br><p><img src=""run_exp/static/images/task_images/aliens/instructions_aliens/planet/alien_planet-1.jpg""  height=""600"" width=""auto""></p>",,,,,,,,,,,,,,,,,,,,,,,
instruc_alien_greet,16,153594,0.0-7.0-7.0,"""event"",""trial"",""time""
""fullscreenenter"",""1"",""7185""
","
","
","""event"",""trial"",""time""
""fullscreenenter"",""1"",""7185""
","
",,3656.3,"<p>When you arrive at a new planet, the alien who owns the treasure mine on that planet will greet you!</p><p>The better an alien takes care of their mine the easier it is to dig for gems. Some aliens take better care of their mine than others. So, you won’t get exactly the same amount of gems on each planet.</p><p>What the alien looks like does not tell you anything about how many gems there are on the planet.</p><br><p><img src=""run_exp/static/images/task_images/aliens/instructions_aliens/planet/alien_planet-1.jpg""  height=""600"" width=""auto""></p>",,,,,,,1,,,,,,,,,,,,,,,,,,
html-keyboard-response,17,154392,0.0-7.0-8.0,"""event"",""trial"",""time""
""fullscreenenter"",""1"",""7185""
","
","
","""event"",""trial"",""time""
""fullscreenenter"",""1"",""7185""
","
",,797.2999997,"<p>When you arrive at a new planet, the alien who owns the treasure mine on that planet will greet you!</p><p>The better an alien takes care of their mine the easier it is to dig for gems. Some aliens take better care of their mine than others. So, you won’t get exactly the same amount of gems on each planet.</p><p>What the alien looks like does not tell you anything about how many gems there are on the planet.</p><br><p><img src=""run_exp/static/images/task_images/aliens/instructions_aliens/planet/alien_planet-1.jpg""  height=""600"" width=""auto""></p><button class=""jspsych-html-btn-unchosen""><img src=""run_exp/static/images/task_images/planet-01.jpg"" height=""50""></button><button class=""jspsych-html-btn-chosen""><img src=""run_exp/static/images/task_images/planet-02.jpg"" height=""50""></button><p><b>[press the space bar to lock in your answer]<b><br></p>",32,,,,,,,,,,,,,,,,,,,,,,,,
time_out,18,165528,0.0-8.0-0.0,"""event"",""trial"",""time""
""fullscreenenter"",""1"",""7185""
","
","
","""event"",""trial"",""time""
""fullscreenenter"",""1"",""7185""
","
",,null,run_exp/static/audio/clip_7_timeout.m4a,null,"<p>If you don't make your choice fast enough, you’ll have to wait a few seconds before you can make another one.</p><p>You can’t dig for more gems or travel to new planets. You just have to sit and wait.</p><br><p><img src='run_exp/static/images/task_images/time_out.jpg'  height='600' width='auto'></p>",,,,,,,,,,,,,,,,,,,,,,,
time_out,19,167641,0.0-8.0-1.0,"""event"",""trial"",""time""
""fullscreenenter"",""1"",""7185""
","
","
","""event"",""trial"",""time""
""fullscreenenter"",""1"",""7185""
","
",,2110.5,"<p>If you don't make your choice fast enough, you’ll have to wait a few seconds before you can make another one.</p><p>You can’t dig for more gems or travel to new planets. You just have to sit and wait.</p><br><p><img src='run_exp/static/images/task_images/time_out.jpg'  height='600' width='auto'></p>",,,,,,,1,,,,,,,,,,,,,,,,,,
html-keyboard-response,20,168527,0.0-8.0-2.0,"""event"",""trial"",""time""
""fullscreenenter"",""1"",""7185""
","
","
","""event"",""trial"",""time""
""fullscreenenter"",""1"",""7185""
","
",,884.9000001,"<p>If you don't make your choice fast enough, you’ll have to wait a few seconds before you can make another one.</p><p>You can’t dig for more gems or travel to new planets. You just have to sit and wait.</p><br><p><img src='run_exp/static/images/task_images/time_out.jpg'  height='600' width='auto'></p><button class=""jspsych-html-btn-unchosen""><img src=""run_exp/static/images/task_images/planet-01.jpg"" height=""50""></button><button class=""jspsych-html-btn-chosen""><img src=""run_exp/static/images/task_images/planet-02.jpg"" height=""50""></button><p><b>[press the space bar to lock in your answer]<b><br></p>",32,,,,,,,,,,,,,,,,,,,,,,,,
instruc_break,21,184216,0.0-9.0-0.0,"""event"",""trial"",""time""
""fullscreenenter"",""1"",""7185""
","
","
","""event"",""trial"",""time""
""fullscreenenter"",""1"",""7185""
","
",,null,run_exp/static/audio/clip_8_break.m4a,null,"<p> After digging and traveling for a while, you’ll be able to take a break at home base. </p><p>The game will last 20 minutes no matter what.</p><p>You will visit home base every 5 minutes, so, you will visit home base three times during the game.</p><br><p><img src='run_exp/static/images/task_images/home_base.jpg' height='600' width='auto'></p>",,,,,,,,,,,,,,,,,,,,,,,
instruc_break,22,187408,0.0-9.0-1.0,"""event"",""trial"",""time""
""fullscreenenter"",""1"",""7185""
","
","
","""event"",""trial"",""time""
""fullscreenenter"",""1"",""7185""
","
",,3188.5,"<p> After digging and traveling for a while, you’ll be able to take a break at home base. </p><p>The game will last 20 minutes no matter what.</p><p>You will visit home base every 5 minutes, so, you will visit home base three times during the game.</p><br><p><img src='run_exp/static/images/task_images/home_base.jpg' height='600' width='auto'></p>",,,,,,,1,,,,,,,,,,,,,,,,,,
html-keyboard-response,23,188551,0.0-9.0-2.0,"""event"",""trial"",""time""
""fullscreenenter"",""1"",""7185""
","
","
","""event"",""trial"",""time""
""fullscreenenter"",""1"",""7185""
","
",,1141.7,"<p> After digging and traveling for a while, you’ll be able to take a break at home base. </p><p>The game will last 20 minutes no matter what.</p><p>You will visit home base every 5 minutes, so, you will visit home base three times during the game.</p><br><p><img src='run_exp/static/images/task_images/home_base.jpg' height='600' width='auto'></p><button class=""jspsych-html-btn-unchosen""><img src=""run_exp/static/images/task_images/planet-01.jpg"" height=""50""></button><button class=""jspsych-html-btn-chosen""><img src=""run_exp/static/images/task_images/planet-02.jpg"" height=""50""></button><p><b>[press the space bar to lock in your answer]<b><br></p>",32,,,,,,,,,,,,,,,,,,,,,,,,
instruc_prac_game,24,198722,0.0-10.0-0.0,"""event"",""trial"",""time""
""fullscreenenter"",""1"",""7185""
","
","
","""event"",""trial"",""time""
""fullscreenenter"",""1"",""7185""
","
",,null,run_exp/static/audio/clip_9_practice.m4a,null,"<p> Are you ready to play a practice game? </p> <p>In this practice game, you'll be digging up barrels of gems. But, in the real game, you'll be digging up the gems themselves. </p>",,,,,,,,,,,,,,,,,,,,,,,
html-button-response,25,200841,0.0-10.0-1.0,"""event"",""trial"",""time""
""fullscreenenter"",""1"",""7185""
","
","
","""event"",""trial"",""time""
""fullscreenenter"",""1"",""7185""
","
",,2117.7,"<p> Are you ready to play a practice game? </p> <p>In this practice game, you'll be digging up barrels of gems. But, in the real game, you'll be digging up the gems themselves. </p>",,,,,,,0,,,,,,,,,,,,,,,,,,
alien_welcome_prac,26,205846,0.0-11.0-0.0,"""event"",""trial"",""time""
""fullscreenenter"",""1"",""7185""
","
","
","""event"",""trial"",""time""
""fullscreenenter"",""1"",""7185""
","
",,null,run_exp/static/images/task_images/aliens/practice_aliens/planet/alien_planet-5.jpg,null,,,,,,,,,,,,,,,,,,,,,,,,
land_prac,27,206349,0.0-11.0-1.0,"""event"",""trial"",""time""
""fullscreenenter"",""1"",""7185""
","
","
","""event"",""trial"",""time""
""fullscreenenter"",""1"",""7185""
","
",,null,run_exp/static/images/task_images/land.jpg,null,,,,,,,95,,,0,,,,,,,,,,,,,,
dig_prac,28,208354,0.0-11.0-2.0,"""event"",""trial"",""time""
""fullscreenenter"",""1"",""7185""
","
","
","""event"",""trial"",""time""
""fullscreenenter"",""1"",""7185""
","
",,,,,,,,,,,,"[{""stimulus"":""run_exp/static/images/task_images/dig.jpg"",""time"":0.5},{""stimulus"":""run_exp/static/images/task_images/land.jpg"",""time"":669.5},{""stimulus"":""run_exp/static/images/task_images/dig.jpg"",""time"":1336.5}]",[],,,,,,,,,,,,,,,
harvest_prac,29,209360,0.0-11.0-3.0,"""event"",""trial"",""time""
""fullscreenenter"",""1"",""7185""
","
","
","""event"",""trial"",""time""
""fullscreenenter"",""1"",""7185""
","
",,null,run_exp/static/images/task_images/barrel_text.jpg,null,,,,,,,,,,,,,,,,,,,,,,,,
decision_prac,30,211768,0.0-11.0-4.0,"""event"",""trial"",""time""
""fullscreenenter"",""1"",""7185""
","
","
","""event"",""trial"",""time""
""fullscreenenter"",""1"",""7185""
","
",,2406.7,run_exp/static/images/task_images/land.jpg,65,,,,,,,,,,,1,,,,,,,,,,,,,
dig_prac,31,213774,0.0-12.0-0.0,"""event"",""trial"",""time""
""fullscreenenter"",""1"",""7185""
","
","
","""event"",""trial"",""time""
""fullscreenenter"",""1"",""7185""
","
",,,,,,,,,,,,"[{""stimulus"":""run_exp/static/images/task_images/dig.jpg"",""time"":0.10000038146972656},{""stimulus"":""run_exp/static/images/task_images/land.jpg"",""time"":668.7000002861023},{""stimulus"":""run_exp/static/images/task_images/dig.jpg"",""time"":1338.1000003814697}]",[],,,,,,,,,,,,,,,
harvest_prac,32,214777,0.0-12.0-1.0,"""event"",""trial"",""time""
""fullscreenenter"",""1"",""7185""
","
","
","""event"",""trial"",""time""
""fullscreenenter"",""1"",""7185""
","
",,null,run_exp/static/images/task_images/barrel_text.jpg,null,,,,,,,,,,,,,,,,,,,,,,,,
decision_prac,33,215298,0.0-12.0-2.0,"""event"",""trial"",""time""
""fullscreenenter"",""1"",""7185""
","
","
","""event"",""trial"",""time""
""fullscreenenter"",""1"",""7185""
","
",,520.5,run_exp/static/images/task_images/land.jpg,65,,,,,,,,,,,2,,,,,,,,,,,,,
dig_prac,34,217308,0.0-13.0-0.0,"""event"",""trial"",""time""
""fullscreenenter"",""1"",""7185""
","
","
","""event"",""trial"",""time""
""fullscreenenter"",""1"",""7185""
","
",,,,,,,,,,,,"[{""stimulus"":""run_exp/static/images/task_images/dig.jpg"",""time"":0.20000028610229492},{""stimulus"":""run_exp/static/images/task_images/land.jpg"",""time"":668.7000002861023},{""stimulus"":""run_exp/static/images/task_images/dig.jpg"",""time"":1335.5999999046326}]",[],,,,,,,,,,,,,,,
harvest_prac,35,218311,0.0-13.0-1.0,"""event"",""trial"",""time""
""fullscreenenter"",""1"",""7185""
","
","
","""event"",""trial"",""time""
""fullscreenenter"",""1"",""7185""
","
",,null,run_exp/static/images/task_images/barrel_text.jpg,null,,,,,,,,,,,,,,,,,,,,,,,,
decision_prac,36,219323,0.0-13.0-2.0,"""event"",""trial"",""time""
""fullscreenenter"",""1"",""7185""
","
","
","""event"",""trial"",""time""
""fullscreenenter"",""1"",""7185""
","
",,1009,run_exp/static/images/task_images/land.jpg,65,,,,,,,,,,,3,,,,,,,,,,,,,
dig_prac,37,221329,0.0-14.0-0.0,"""event"",""trial"",""time""
""fullscreenenter"",""1"",""7185""
","
","
","""event"",""trial"",""time""
""fullscreenenter"",""1"",""7185""
","
",,,,,,,,,,,,"[{""stimulus"":""run_exp/static/images/task_images/dig.jpg"",""time"":0.19999980926513672},{""stimulus"":""run_exp/static/images/task_images/land.jpg"",""time"":668.8000001907349},{""stimulus"":""run_exp/static/images/task_images/dig.jpg"",""time"":1336.6999998092651}]",[],,,,,,,,,,,,,,,
harvest_prac,38,222331,0.0-14.0-1.0,"""event"",""trial"",""time""
""fullscreenenter"",""1"",""7185""
","
","
","""event"",""trial"",""time""
""fullscreenenter"",""1"",""7185""
","
",,null,run_exp/static/images/task_images/barrel_text.jpg,null,,,,,,,,,,,,,,,,,,,,,,,,
decision_prac,39,223396,0.0-14.0-2.0,"""event"",""trial"",""time""
""fullscreenenter"",""1"",""7185""
","
","
","""event"",""trial"",""time""
""fullscreenenter"",""1"",""7185""
","
",,1063.3,run_exp/static/images/task_images/land.jpg,65,,,,,,,,,,,4,,,,,,,,,,,,,
dig_prac,40,225400,0.0-15.0-0.0,"""event"",""trial"",""time""
""fullscreenenter"",""1"",""7185""
","
","
","""event"",""trial"",""time""
""fullscreenenter"",""1"",""7185""
","
",,,,,,,,,,,,"[{""stimulus"":""run_exp/static/images/task_images/dig.jpg"",""time"":0.09999990463256836},{""stimulus"":""run_exp/static/images/task_images/land.jpg"",""time"":669.1999998092651},{""stimulus"":""run_exp/static/images/task_images/dig.jpg"",""time"":1335.0999999046326}]",[],,,,,,,,,,,,,,,
harvest_prac,41,226402,0.0-15.0-1.0,"""event"",""trial"",""time""
""fullscreenenter"",""1"",""7185""
","
","
","""event"",""trial"",""time""
""fullscreenenter"",""1"",""7185""
","
",,null,run_exp/static/images/task_images/barrel_text.jpg,null,,,,,,,,,,,,,,,,,,,,,,,,
decision_prac,42,227155,0.0-15.0-2.0,"""event"",""trial"",""time""
""fullscreenenter"",""1"",""7185""
","
","
","""event"",""trial"",""time""
""fullscreenenter"",""1"",""7185""
","
",,751.1999998,run_exp/static/images/task_images/land.jpg,65,,,,,,,,,,,,1,,,,,,,,,,,,
quiz_instruc,43,239016,0.0-16.0-0.0,"""event"",""trial"",""time""
""fullscreenenter"",""1"",""7185""
","
","
","""event"",""trial"",""time""
""fullscreenenter"",""1"",""7185""
","
",,11857.1,run_exp/static/audio/clip_10_quiz.m4a,,,,,,,0,,,,,,,,,,,,,,,,,,
instruc_repeat,44,281817,0.0-16.0-1.0,"""event"",""trial"",""time""
""fullscreenenter"",""1"",""7185""
","
","
","""event"",""trial"",""time""
""fullscreenenter"",""1"",""7185""
","
",,null,"<p> Are you ready to play a practice game? </p> <p>In this practice game, you'll be digging up barrels of gems. But, in the real game, you'll be digging up the gems themselves. </p>",null,"<p>In this game, your goal is to collect as many gems as you can. That’s how you will win bonus money. </p> <p>The entire game will last 20 minutes no matter how many gems you collect or how many planets you visit. </p><p>To stay on a planet and dig again, press the letter A on your keyboard. To leave for a new planet, press the letter L.</p><p>The more you dig on a planet, the fewer gems you’ll get with each dig which is why you might consider leaving for a new planet. </p><p>When you arrive at a new planet, you’ll be greeted by an alien. What the alien looks like does not tell you anything about how much treasure is on the planet. </p>",,,,,,,,,,,,,,,,,,,,,,,
instruc_repeat_continue,45,283612,0.0-16.0-2.0,"""event"",""trial"",""time""
""fullscreenenter"",""1"",""7185""
","
","
","""event"",""trial"",""time""
""fullscreenenter"",""1"",""7185""
","
",,1785.8,"<p> Are you ready to play a practice game? </p> <p>In this practice game, you'll be digging up barrels of gems. But, in the real game, you'll be digging up the gems themselves. </p>",,,,,,,0,,,,,,,,,,,,,,,,,,
quiz_q_1_ask,46,287242,0.0-16.0-3.0,"""event"",""trial"",""time""
""fullscreenenter"",""1"",""7185""
","
","
","""event"",""trial"",""time""
""fullscreenenter"",""1"",""7185""
","
",,3629.3,run_exp/static/audio/clip_11_q1_ask.m4a,,,,,,,2,,,,,,,,,,,,,,,,,,
quiz_q_1_fb_correct,47,291072,0.0-17.0-0.0,"""event"",""trial"",""time""
""fullscreenenter"",""1"",""7185""
","
","
","""event"",""trial"",""time""
""fullscreenenter"",""1"",""7185""
","
",,null,run_exp/static/audio/clip_12_q1_correct.m4a,null,<p>That’s correct. You win extra money by collecting more gems.</p>,,,,,,,,,,,,,,,,,,,,,,,
quiz_q_2_ask,48,303606,0.0-17.0-1.0,"""event"",""trial"",""time""
""fullscreenenter"",""1"",""7185""
","
","
","""event"",""trial"",""time""
""fullscreenenter"",""1"",""7185""
","
",,12531.7,run_exp/static/audio/clip_14_q2_ask.m4a,,,,,,,1,,,,,,,,,,,,,,,,,,
quiz_q_2_fb_correct,49,307626,0.0-18.0-0.0,"""event"",""trial"",""time""
""fullscreenenter"",""1"",""7185""
","
","
","""event"",""trial"",""time""
""fullscreenenter"",""1"",""7185""
","
",,null,run_exp/static/audio/clip_15_q2_correct.m4a,null,<p>That’s correct. The experiment is 20 minutes no matter what.</p>,,,,,,,,,,,,,,,,,,,,,,,
quiz_q_3_ask,50,319524,0.0-18.0-1.0,"""event"",""trial"",""time""
""fullscreenenter"",""1"",""7185""
","
","
","""event"",""trial"",""time""
""fullscreenenter"",""1"",""7185""
","
",,11896.1,run_exp/static/audio/clip_17_q3_ask.m4a,,,,,,,1,,,,,,,,,,,,,,,,,,
quiz_q_3_fb_correct,51,323499,0.0-19.0-0.0,"""event"",""trial"",""time""
""fullscreenenter"",""1"",""7185""
","
","
","""event"",""trial"",""time""
""fullscreenenter"",""1"",""7185""
","
",,null,run_exp/static/audio/clip_18_q3_correct.m4a,null,<p> That’s correct. You press the letter L to travel to a new planet.</p>,,,,,,,,,,,,,,,,,,,,,,,
quiz_q_4_ask,52,333571,0.0-19.0-1.0,"""event"",""trial"",""time""
""fullscreenenter"",""1"",""7185""
","
","
","""event"",""trial"",""time""
""fullscreenenter"",""1"",""7185""
","
",,10071.8,run_exp/static/audio/clip_20_q4_ask.m4a,,,,,,,0,,,,,,,,,,,,,,,,,,
quiz_q_4_fb_correct,53,338879,0.0-20.0-0.0,"""event"",""trial"",""time""
""fullscreenenter"",""1"",""7185""
","
","
","""event"",""trial"",""time""
""fullscreenenter"",""1"",""7185""
","
",,null,run_exp/static/audio/clip_21_q4_correct.m4a,null,<p> That’s correct. The more you dig on a planet the fewer gems you’ll get with each dig. </p>,,,,,,,,,,,,,,,,,,,,,,,
quiz_q_5_ask,54,348789,0.0-20.0-1.0,"""event"",""trial"",""time""
""fullscreenenter"",""1"",""7185""
","
","
","""event"",""trial"",""time""
""fullscreenenter"",""1"",""7185""
","
",,9908.1,run_exp/static/audio/clip_23_q5_ask.m4a,,,,,,,1,,,,,,,,,,,,,,,,,,
quiz_q_5_fb_correct,55,353791,0.0-21.0-0.0,"""event"",""trial"",""time""
""fullscreenenter"",""1"",""7185""
","
","
","""event"",""trial"",""time""
""fullscreenenter"",""1"",""7185""
","
",,null,run_exp/static/audio/clip_24_q5_correct.m4a,null,<p> That’s correct. The alien tells you nothing about how much treasure is on the planet.</p>,,,,,,,,,,,,,,,,,,,,,,,
quiz_correct,56,357247,0.0-22.0-0.0,"""event"",""trial"",""time""
""fullscreenenter"",""1"",""7185""
","
","
","""event"",""trial"",""time""
""fullscreenenter"",""1"",""7185""
","
",,null,run_exp/static/audio/clip_26_correct_quiz.m4a,null,,,,,,,,,,,,,,,,,,,,,,,,
quiz_correct_continue,57,359142,0.0-22.0-1.0,"""event"",""trial"",""time""
""fullscreenenter"",""1"",""7185""
","
","
","""event"",""trial"",""time""
""fullscreenenter"",""1"",""7185""
","
",,1891.7,<p>Good job! You're now ready to move on to the real game!</p>,,,,,,,0,,,,,,,,,,,,,,,,,,
audio-keyboard-response,58,369258,0.0-22.0-2.0,"""event"",""trial"",""time""
""fullscreenenter"",""1"",""7185""
","
","
","""event"",""trial"",""time""
""fullscreenenter"",""1"",""7185""
","
",,null,run_exp/static/audio/clip_28_real_game.m4a,null,,,,,,,,,,,,,,,,,,,,,,,,
instruc_begin_exp_contine,59,370956,0.0-22.0-3.0,"""event"",""trial"",""time""
""fullscreenenter"",""1"",""7185""
","
","
","""event"",""trial"",""time""
""fullscreenenter"",""1"",""7185""
","
",,1696.2,"<p>Now that you know how  to dig for space treasure and travel to new planets,you can start exploring! </p><p>Do you want to go over the instructions again or get started with the real game?</p>",,,,,,,1,,,,,,1,,,,,,,,,,,,
alien_welcome,60,375959,0.0-23.0-0.0,"""event"",""trial"",""time""
""fullscreenenter"",""1"",""7185""
","
","
","""event"",""trial"",""time""
""fullscreenenter"",""1"",""7185""
","
",,null,run_exp/static/images/task_images/aliens/old_aliens/planet/alien_planet-43.jpg,null,,,,,,,,,,,,,43,"43,9,55,28,39,34,26,53,27,14,20,44,31,42,71,70,60,12,1,30,41,66,7,3,46,72,29,48,8,37,13,75,62,16,73,49",,,,,,,,,,
land,61,376465,0.0-23.0-1.0,"""event"",""trial"",""time""
""fullscreenenter"",""1"",""7185""
","
","
","""event"",""trial"",""time""
""fullscreenenter"",""1"",""7185""
","
",,null,run_exp/static/images/task_images/land.jpg,null,,,,,,,92,,,1,,,,,,,,,,,,,,
dig,62,378472,0.0-23.0-2.0,"""event"",""trial"",""time""
""fullscreenenter"",""1"",""7185""
","
","
","""event"",""trial"",""time""
""fullscreenenter"",""1"",""7185""
","
",,,,,,,,,,,,"[{""stimulus"":""run_exp/static/images/task_images/dig.jpg"",""time"":0.19999980926513672},{""stimulus"":""run_exp/static/images/task_images/land.jpg"",""time"":668.8000001907349},{""stimulus"":""run_exp/static/images/task_images/dig.jpg"",""time"":1335.1999998092651}]",[],1,,,,,,,,,,,,,,
harvest,63,379476,0.0-23.0-3.0,"""event"",""trial"",""time""
""fullscreenenter"",""1"",""7185""
","
","
","""event"",""trial"",""time""
""fullscreenenter"",""1"",""7185""
","
",,null,run_exp/static/images/task_images/gems/92.jpg,null,,,,,,,18,,,1,,,,,92,0.195066216,0.195652174,,,,,,,
decision,64,380764,0.0-23.0-4.0,"""event"",""trial"",""time""
""fullscreenenter"",""1"",""7185""
","
","
","""event"",""trial"",""time""
""fullscreenenter"",""1"",""7185""
","
",,1286.8,run_exp/static/images/task_images/land.jpg,65,,,,,,,18,,,1,,,,,,,,9808,1,0,FALSE,,,
dig,65,382482,0.0-24.0-0.0,"""event"",""trial"",""time""
""fullscreenenter"",""1"",""7185""
","
","
","""event"",""trial"",""time""
""fullscreenenter"",""1"",""7185""
","
",,,,,,,,,,,,"[{""stimulus"":""run_exp/static/images/task_images/dig.jpg"",""time"":0},{""stimulus"":""run_exp/static/images/task_images/land.jpg"",""time"":574.9000000953674},{""stimulus"":""run_exp/static/images/task_images/dig.jpg"",""time"":1143.9000000953674}]",[],1,,,,,,,,,,,,,,
harvest,66,383486,0.0-24.0-1.0,"""event"",""trial"",""time""
""fullscreenenter"",""1"",""7185""
","
","
","""event"",""trial"",""time""
""fullscreenenter"",""1"",""7185""
","
",,null,run_exp/static/images/task_images/gems/18.jpg,null,,,,,,,3,,,1,,,,,18,0.172393123,0.166666667,,,,,,,
decision,67,384774,0.0-24.0-2.0,"""event"",""trial"",""time""
""fullscreenenter"",""1"",""7185""
","
","
","""event"",""trial"",""time""
""fullscreenenter"",""1"",""7185""
","
",,1286.2,run_exp/static/images/task_images/land.jpg,65,,,,,,,3,,,1,,,,,,,,13817,1,1,FALSE,,,
dig,68,386490,0.0-25.0-0.0,"""event"",""trial"",""time""
""fullscreenenter"",""1"",""7185""
","
","
","""event"",""trial"",""time""
""fullscreenenter"",""1"",""7185""
","
",,,,,,,,,,,,"[{""stimulus"":""run_exp/static/images/task_images/dig.jpg"",""time"":0},{""stimulus"":""run_exp/static/images/task_images/land.jpg"",""time"":572.0999999046326},{""stimulus"":""run_exp/static/images/task_images/dig.jpg"",""time"":1143.1999998092651}]",[],1,,,,,,,,,,,,,,
harvest,69,387493,0.0-25.0-1.0,"""event"",""trial"",""time""
""fullscreenenter"",""1"",""7185""
","
","
","""event"",""trial"",""time""
""fullscreenenter"",""1"",""7185""
","
",,null,run_exp/static/images/task_images/gems/3.jpg,null,,,,,,,0,,,1,,,,,3,0.16372689,0,,,,,,,
decision,70,388367,0.0-25.0-2.0,"""event"",""trial"",""time""
""fullscreenenter"",""1"",""7185""
","
","
","""event"",""trial"",""time""
""fullscreenenter"",""1"",""7185""
","
",,871.5,run_exp/static/images/task_images/land.jpg,65,,,,,,,0,,,1,,,,,,,,17410,1,2,FALSE,,,
dig,71,390499,0.0-26.0-0.0,"""event"",""trial"",""time""
""fullscreenenter"",""1"",""7185""
","
","
","""event"",""trial"",""time""
""fullscreenenter"",""1"",""7185""
","
",,,,,,,,,,,,"[{""stimulus"":""run_exp/static/images/task_images/dig.jpg"",""time"":0.40000009536743164},{""stimulus"":""run_exp/static/images/task_images/land.jpg"",""time"":710.7999997138977},{""stimulus"":""run_exp/static/images/task_images/dig.jpg"",""time"":1419.9000000953674}]",[],1,,,,,,,,,,,,,,
harvest,72,391505,0.0-26.0-1.0,"""event"",""trial"",""time""
""fullscreenenter"",""1"",""7185""
","
","
","""event"",""trial"",""time""
""fullscreenenter"",""1"",""7185""
","
",,null,run_exp/static/images/task_images/gems/0.jpg,null,,,,,,,0,,,1,,,,,0,0.219028894,NaN,,,,,,,
decision,73,392048,0.0-26.0-2.0,"""event"",""trial"",""time""
""fullscreenenter"",""1"",""7185""
","
","
","""event"",""trial"",""time""
""fullscreenenter"",""1"",""7185""
","
",,541.5,run_exp/static/images/task_images/land.jpg,76,,,,,,,0,,,1,,,,,,,,21091,1,3,TRUE,,,
travel,74,401503,0.0-27.0-0.0,"""event"",""trial"",""time""
""fullscreenenter"",""1"",""7185""
","
","
","""event"",""trial"",""time""
""fullscreenenter"",""1"",""7185""
","
",,,,,,,,,,,,"[{""stimulus"":""run_exp/static/images/task_images/rocket-01.jpg"",""time"":0.20000028610229492},{""stimulus"":""run_exp/static/images/task_images/rocket-02.jpg"",""time"":1055.2000002861023},{""stimulus"":""run_exp/static/images/task_images/rocket-03.jpg"",""time"":2102},{""stimulus"":""run_exp/static/images/task_images/rocket-04.jpg"",""time"":3152.0999999046326},{""stimulus"":""run_exp/static/images/task_images/rocket-05.jpg"",""time"":4202.099999904633},{""stimulus"":""run_exp/static/images/task_images/rocket-06.jpg"",""time"":5251},{""stimulus"":""run_exp/static/images/task_images/rocket-07.jpg"",""time"":6302.099999904633},{""stimulus"":""run_exp/static/images/task_images/rocket-08.jpg"",""time"":7352.200000286102},{""stimulus"":""run_exp/static/images/task_images/rocket-09.jpg"",""time"":8401.800000190735}]",[],1,,,,,,,,,,,,,,
alien_welcome,75,406506,0.0-27.0-1.0,"""event"",""trial"",""time""
""fullscreenenter"",""1"",""7185""
","
","
","""event"",""trial"",""time""
""fullscreenenter"",""1"",""7185""
","
",,null,run_exp/static/images/task_images/aliens/old_aliens/planet/alien_planet-9.jpg,null,,,,,,,,,,,,,9,"43,9,55,28,39,34,26,53,27,14,20,44,31,42,71,70,60,12,1,30,41,66,7,3,46,72,29,48,8,37,13,75,62,16,73,49",,,,,,,,,,
land,76,407009,0.0-27.0-2.0,"""event"",""trial"",""time""
""fullscreenenter"",""1"",""7185""
","
","
","""event"",""trial"",""time""
""fullscreenenter"",""1"",""7185""
","
",,null,run_exp/static/images/task_images/land.jpg,null,,,,,,,89,,,2,,,,,,,,,,,,,,
dig,77,409014,0.0-27.0-3.0,"""event"",""trial"",""time""
""fullscreenenter"",""1"",""7185""
","
","
","""event"",""trial"",""time""
""fullscreenenter"",""1"",""7185""
","
",,,,,,,,,,,,"[{""stimulus"":""run_exp/static/images/task_images/dig.jpg"",""time"":0.6000003814697266},{""stimulus"":""run_exp/static/images/task_images/land.jpg"",""time"":669.1000003814697},{""stimulus"":""run_exp/static/images/task_images/dig.jpg"",""time"":1336.1000003814697}]",[],2,,,,,,,,,,,,,,
harvest,78,410017,0.0-27.0-4.0,"""event"",""trial"",""time""
""fullscreenenter"",""1"",""7185""
","
","
","""event"",""trial"",""time""
""fullscreenenter"",""1"",""7185""
","
",,null,run_exp/static/images/task_images/gems/89.jpg,null,,,,,,,22,,,2,,,,,89,0.248256162,0.247191011,,,,,,,
decision,79,411013,0.0-27.0-5.0,"""event"",""trial"",""time""
""fullscreenenter"",""1"",""7185""
","
","
","""event"",""trial"",""time""
""fullscreenenter"",""1"",""7185""
","
",,993.8000002,run_exp/static/images/task_images/land.jpg,65,,,,,,,22,,,2,,,,,,,,40056,1,0,FALSE,,,
dig,80,413022,0.0-28.0-0.0,"""event"",""trial"",""time""
""fullscreenenter"",""1"",""7185""
","
","
","""event"",""trial"",""time""
""fullscreenenter"",""1"",""7185""
","
",,,,,,,,,,,,"[{""stimulus"":""run_exp/static/images/task_images/dig.jpg"",""time"":0.09999990463256836},{""stimulus"":""run_exp/static/images/task_images/land.jpg"",""time"":669.5},{""stimulus"":""run_exp/static/images/task_images/dig.jpg"",""time"":1337.3999996185303}]",[],2,,,,,,,,,,,,,,
harvest,81,414024,0.0-28.0-1.0,"""event"",""trial"",""time""
""fullscreenenter"",""1"",""7185""
","
","
","""event"",""trial"",""time""
""fullscreenenter"",""1"",""7185""
","
",,null,run_exp/static/images/task_images/gems/22.jpg,null,,,,,,,3,,,2,,,,,22,0.153250398,0.136363636,,,,,,,
decision,82,414288,0.0-28.0-2.0,"""event"",""trial"",""time""
""fullscreenenter"",""1"",""7185""
","
","
","""event"",""trial"",""time""
""fullscreenenter"",""1"",""7185""
","
",,260.6999998,run_exp/static/images/task_images/land.jpg,65,,,,,,,3,,,2,,,,,,,,43331,1,1,FALSE,,,
dig,83,417031,0.0-29.0-0.0,"""event"",""trial"",""time""
""fullscreenenter"",""1"",""7185""
","
","
","""event"",""trial"",""time""
""fullscreenenter"",""1"",""7185""
","
",,,,,,,,,,,,"[{""stimulus"":""run_exp/static/images/task_images/dig.jpg"",""time"":0.09999990463256836},{""stimulus"":""run_exp/static/images/task_images/land.jpg"",""time"":914.9000000953674},{""stimulus"":""run_exp/static/images/task_images/dig.jpg"",""time"":1827.9000000953674}]",[],2,,,,,,,,,,,,,,
harvest,84,418034,0.0-29.0-1.0,"""event"",""trial"",""time""
""fullscreenenter"",""1"",""7185""
","
","
","""event"",""trial"",""time""
""fullscreenenter"",""1"",""7185""
","
",,null,run_exp/static/images/task_images/gems/3.jpg,null,,,,,,,0,,,2,,,,,3,0.134835689,0,,,,,,,
decision,85,418966,0.0-29.0-2.0,"""event"",""trial"",""time""
""fullscreenenter"",""1"",""7185""
","
","
","""event"",""trial"",""time""
""fullscreenenter"",""1"",""7185""
","
",,930.5999999,run_exp/static/images/task_images/land.jpg,65,,,,,,,0,,,2,,,,,,,,48009,1,2,FALSE,,,
dig,86,421038,0.0-30.0-0.0,"""event"",""trial"",""time""
""fullscreenenter"",""1"",""7185""
","
","
","""event"",""trial"",""time""
""fullscreenenter"",""1"",""7185""
","
",,,,,,,,,,,,"[{""stimulus"":""run_exp/static/images/task_images/dig.jpg"",""time"":0.3000001907348633},{""stimulus"":""run_exp/static/images/task_images/land.jpg"",""time"":691.3000001907349},{""stimulus"":""run_exp/static/images/task_images/dig.jpg"",""time"":1380}]",[],2,,,,,,,,,,,,,,
harvest,87,422040,0.0-30.0-1.0,"""event"",""trial"",""time""
""fullscreenenter"",""1"",""7185""
","
","
","""event"",""trial"",""time""
""fullscreenenter"",""1"",""7185""
","
",,null,run_exp/static/images/task_images/gems/0.jpg,null,,,,,,,0,,,2,,,,,0,0.263266129,NaN,,,,,,,
decision,88,422527,0.0-30.0-2.0,"""event"",""trial"",""time""
""fullscreenenter"",""1"",""7185""
","
","
","""event"",""trial"",""time""
""fullscreenenter"",""1"",""7185""
","
",,484.1999998,run_exp/static/images/task_images/land.jpg,65,,,,,,,0,,,2,,,,,,,,51570,1,3,FALSE,,,
dig,89,425048,0.0-31.0-0.0,"""event"",""trial"",""time""
""fullscreenenter"",""1"",""7185""
","
","
","""event"",""trial"",""time""
""fullscreenenter"",""1"",""7185""
","
",,,,,,,,,,,,"[{""stimulus"":""run_exp/static/images/task_images/dig.jpg"",""time"":0.3000001907348633},{""stimulus"":""run_exp/static/images/task_images/land.jpg"",""time"":840.1999998092651},{""stimulus"":""run_exp/static/images/task_images/dig.jpg"",""time"":1678.4000000953674}]",[],2,,,,,,,,,,,,,,
harvest,90,426053,0.0-31.0-1.0,"""event"",""trial"",""time""
""fullscreenenter"",""1"",""7185""
","
","
","""event"",""trial"",""time""
""fullscreenenter"",""1"",""7185""
","
",,null,run_exp/static/images/task_images/gems/0.jpg,null,,,,,,,0,,,2,,,,,0,0.328259311,NaN,,,,,,,
decision,91,426489,0.0-31.0-2.0,"""event"",""trial"",""time""
""fullscreenenter"",""1"",""7185""
","
","
","""event"",""trial"",""time""
""fullscreenenter"",""1"",""7185""
","
",,433.7999997,run_exp/static/images/task_images/land.jpg,76,,,,,,,0,,,2,,,,,,,,55532,1,4,TRUE,,,
travel,92,436050,0.0-32.0-0.0,"""event"",""trial"",""time""
""fullscreenenter"",""1"",""7185""
","
","
","""event"",""trial"",""time""
""fullscreenenter"",""1"",""7185""
","
",,,,,,,,,,,,"[{""stimulus"":""run_exp/static/images/task_images/rocket-01.jpg"",""time"":0.09999990463256836},{""stimulus"":""run_exp/static/images/task_images/rocket-02.jpg"",""time"":1063.0999999046326},{""stimulus"":""run_exp/static/images/task_images/rocket-03.jpg"",""time"":2125.199999809265},{""stimulus"":""run_exp/static/images/task_images/rocket-04.jpg"",""time"":3187.2999997138977},{""stimulus"":""run_exp/static/images/task_images/rocket-05.jpg"",""time"":4249.199999809265},{""stimulus"":""run_exp/static/images/task_images/rocket-06.jpg"",""time"":5311.299999713898},{""stimulus"":""run_exp/static/images/task_images/rocket-07.jpg"",""time"":6373.099999904633},{""stimulus"":""run_exp/static/images/task_images/rocket-08.jpg"",""time"":7435.199999809265},{""stimulus"":""run_exp/static/images/task_images/rocket-09.jpg"",""time"":8497.099999904633}]",[],2,,,,,,,,,,,,,,
alien_welcome,93,441056,0.0-32.0-1.0,"""event"",""trial"",""time""
""fullscreenenter"",""1"",""7185""
","
","
","""event"",""trial"",""time""
""fullscreenenter"",""1"",""7185""
","
",,null,run_exp/static/images/task_images/aliens/old_aliens/planet/alien_planet-55.jpg,null,,,,,,,,,,,,,55,"43,9,55,28,39,34,26,53,27,14,20,44,31,42,71,70,60,12,1,30,41,66,7,3,46,72,29,48,8,37,13,75,62,16,73,49",,,,,,,,,,
land,94,441563,0.0-32.0-2.0,"""event"",""trial"",""time""
""fullscreenenter"",""1"",""7185""
","
","
","""event"",""trial"",""time""
""fullscreenenter"",""1"",""7185""
","
",,null,run_exp/static/images/task_images/land.jpg,null,,,,,,,96,,,3,,,,,,,,,,,,,,
dig,95,443567,0.0-32.0-3.0,"""event"",""trial"",""time""
""fullscreenenter"",""1"",""7185""
","
","
","""event"",""trial"",""time""
""fullscreenenter"",""1"",""7185""
","
",,,,,,,,,,,,"[{""stimulus"":""run_exp/static/images/task_images/dig.jpg"",""time"":0.5},{""stimulus"":""run_exp/static/images/task_images/land.jpg"",""time"":669},{""stimulus"":""run_exp/static/images/task_images/dig.jpg"",""time"":1337.7000002861023}]",[],3,,,,,,,,,,,,,,
harvest,96,444575,0.0-32.0-4.0,"""event"",""trial"",""time""
""fullscreenenter"",""1"",""7185""
","
","
","""event"",""trial"",""time""
""fullscreenenter"",""1"",""7185""
","
",,null,run_exp/static/images/task_images/gems/96.jpg,null,,,,,,,45,,,3,,,,,96,0.465714706,0.46875,,,,,,,
decision,97,445480,0.0-32.0-5.0,"""event"",""trial"",""time""
""fullscreenenter"",""1"",""7185""
","
","
","""event"",""trial"",""time""
""fullscreenenter"",""1"",""7185""
","
",,902.7999997,run_exp/static/images/task_images/land.jpg,65,,,,,,,45,,,3,,,,,,,,74523,1,0,FALSE,,,
dig,98,447582,0.0-33.0-0.0,"""event"",""trial"",""time""
""fullscreenenter"",""1"",""7185""
","
","
","""event"",""trial"",""time""
""fullscreenenter"",""1"",""7185""
","
",,,,,,,,,,,,"[{""stimulus"":""run_exp/static/images/task_images/dig.jpg"",""time"":0.39999961853027344},{""stimulus"":""run_exp/static/images/task_images/land.jpg"",""time"":702},{""stimulus"":""run_exp/static/images/task_images/dig.jpg"",""time"":1400}]",[],3,,,,,,,,,,,,,,
harvest,99,448585,0.0-33.0-1.0,"""event"",""trial"",""time""
""fullscreenenter"",""1"",""7185""
","
","
","""event"",""trial"",""time""
""fullscreenenter"",""1"",""7185""
","
",,null,run_exp/static/images/task_images/gems/45.jpg,null,,,,,,,21,,,3,,,,,45,0.465429799,0.466666667,,,,,,,
decision,100,449165,0.0-33.0-2.0,"""event"",""trial"",""time""
""fullscreenenter"",""1"",""7185""
","
","
","""event"",""trial"",""time""
""fullscreenenter"",""1"",""7185""
","
",,577.6999998,run_exp/static/images/task_images/land.jpg,65,,,,,,,21,,,3,,,,,,,,78208,1,1,FALSE,,,
dig,101,451590,0.0-34.0-0.0,"""event"",""trial"",""time""
""fullscreenenter"",""1"",""7185""
","
","
","""event"",""trial"",""time""
""fullscreenenter"",""1"",""7185""
","
",,,,,,,,,,,,"[{""stimulus"":""run_exp/static/images/task_images/dig.jpg"",""time"":0},{""stimulus"":""run_exp/static/images/task_images/land.jpg"",""time"":808.3999996185303},{""stimulus"":""run_exp/static/images/task_images/dig.jpg"",""time"":1615.3999996185303}]",[],3,,,,,,,,,,,,,,
harvest,102,452592,0.0-34.0-1.0,"""event"",""trial"",""time""
""fullscreenenter"",""1"",""7185""
","
","
","""event"",""trial"",""time""
""fullscreenenter"",""1"",""7185""
","
",,null,run_exp/static/images/task_images/gems/21.jpg,null,,,,,,,7,,,3,,,,,21,0.340813659,0.333333333,,,,,,,
decision,103,452948,0.0-34.0-2.0,"""event"",""trial"",""time""
""fullscreenenter"",""1"",""7185""
","
","
","""event"",""trial"",""time""
""fullscreenenter"",""1"",""7185""
","
",,354.2000003,run_exp/static/images/task_images/land.jpg,65,,,,,,,7,,,3,,,,,,,,81991,1,2,FALSE,,,
dig,104,455597,0.0-35.0-0.0,"""event"",""trial"",""time""
""fullscreenenter"",""1"",""7185""
","
","
","""event"",""trial"",""time""
""fullscreenenter"",""1"",""7185""
","
",,,,,,,,,,,,"[{""stimulus"":""run_exp/static/images/task_images/dig.jpg"",""time"":0.10000038146972656},{""stimulus"":""run_exp/static/images/task_images/land.jpg"",""time"":882.8000001907349},{""stimulus"":""run_exp/static/images/task_images/dig.jpg"",""time"":1764.1000003814697}]",[],3,,,,,,,,,,,,,,
harvest,105,456599,0.0-35.0-1.0,"""event"",""trial"",""time""
""fullscreenenter"",""1"",""7185""
","
","
","""event"",""trial"",""time""
""fullscreenenter"",""1"",""7185""
","
",,null,run_exp/static/images/task_images/gems/7.jpg,null,,,,,,,3,,,3,,,,,7,0.483434717,0.428571429,,,,,,,
decision,106,456728,0.0-35.0-2.0,"""event"",""trial"",""time""
""fullscreenenter"",""1"",""7185""
","
","
","""event"",""trial"",""time""
""fullscreenenter"",""1"",""7185""
","
",,126.8000002,run_exp/static/images/task_images/land.jpg,65,,,,,,,3,,,3,,,,,,,,85771,1,3,FALSE,,,
dig,107,459604,0.0-36.0-0.0,"""event"",""trial"",""time""
""fullscreenenter"",""1"",""7185""
","
","
","""event"",""trial"",""time""
""fullscreenenter"",""1"",""7185""
","
",,,,,,,,,,,,"[{""stimulus"":""run_exp/static/images/task_images/dig.jpg"",""time"":0.19999980926513672},{""stimulus"":""run_exp/static/images/task_images/land.jpg"",""time"":958.4000000953674},{""stimulus"":""run_exp/static/images/task_images/dig.jpg"",""time"":1917.9000000953674}]",[],3,,,,,,,,,,,,,,
harvest,108,460607,0.0-36.0-1.0,"""event"",""trial"",""time""
""fullscreenenter"",""1"",""7185""
","
","
","""event"",""trial"",""time""
""fullscreenenter"",""1"",""7185""
","
",,null,run_exp/static/images/task_images/gems/3.jpg,null,,,,,,,1,,,3,,,,,3,0.448160153,0.333333333,,,,,,,
decision,109,460672,0.0-36.0-2.0,"""event"",""trial"",""time""
""fullscreenenter"",""1"",""7185""
","
","
","""event"",""trial"",""time""
""fullscreenenter"",""1"",""7185""
","
",,63.20000029,run_exp/static/images/task_images/land.jpg,65,,,,,,,1,,,3,,,,,,,,89715,1,4,FALSE,,,
dig,110,463611,0.0-37.0-0.0,"""event"",""trial"",""time""
""fullscreenenter"",""1"",""7185""
","
","
","""event"",""trial"",""time""
""fullscreenenter"",""1"",""7185""
","
",,,,,,,,,,,,"[{""stimulus"":""run_exp/static/images/task_images/dig.jpg"",""time"":0.3000001907348633},{""stimulus"":""run_exp/static/images/task_images/land.jpg"",""time"":979.6000003814697},{""stimulus"":""run_exp/static/images/task_images/dig.jpg"",""time"":1958.5}]",[],3,,,,,,,,,,,,,,
harvest,111,464616,0.0-37.0-1.0,"""event"",""trial"",""time""
""fullscreenenter"",""1"",""7185""
","
","
","""event"",""trial"",""time""
""fullscreenenter"",""1"",""7185""
","
",,null,run_exp/static/images/task_images/gems/1.jpg,null,,,,,,,0,,,3,,,,,1,0.483964806,0,,,,,,,
decision,112,464753,0.0-37.0-2.0,"""event"",""trial"",""time""
""fullscreenenter"",""1"",""7185""
","
","
","""event"",""trial"",""time""
""fullscreenenter"",""1"",""7185""
","
",,135.2999997,run_exp/static/images/task_images/land.jpg,65,,,,,,,0,,,3,,,,,,,,93796,1,5,FALSE,,,
dig,113,467618,0.0-38.0-0.0,"""event"",""trial"",""time""
""fullscreenenter"",""1"",""7185""
","
","
","""event"",""trial"",""time""
""fullscreenenter"",""1"",""7185""
","
",,,,,,,,,,,,"[{""stimulus"":""run_exp/static/images/task_images/dig.jpg"",""time"":0.09999990463256836},{""stimulus"":""run_exp/static/images/task_images/land.jpg"",""time"":957},{""stimulus"":""run_exp/static/images/task_images/dig.jpg"",""time"":1910.7000002861023}]",[],3,,,,,,,,,,,,,,
harvest,114,468621,0.0-38.0-1.0,"""event"",""trial"",""time""
""fullscreenenter"",""1"",""7185""
","
","
","""event"",""trial"",""time""
""fullscreenenter"",""1"",""7185""
","
",,null,run_exp/static/images/task_images/gems/0.jpg,null,,,,,,,0,,,3,,,,,0,0.532846408,NaN,,,,,,,
decision,115,468752,0.0-38.0-2.0,"""event"",""trial"",""time""
""fullscreenenter"",""1"",""7185""
","
","
","""event"",""trial"",""time""
""fullscreenenter"",""1"",""7185""
","
",,128,run_exp/static/images/task_images/land.jpg,65,,,,,,,0,,,3,,,,,,,,97795,1,6,FALSE,,,
dig,116,471627,0.0-39.0-0.0,"""event"",""trial"",""time""
""fullscreenenter"",""1"",""7185""
","
","
","""event"",""trial"",""time""
""fullscreenenter"",""1"",""7185""
","
",,,,,,,,,,,,"[{""stimulus"":""run_exp/static/images/task_images/dig.jpg"",""time"":0.09999990463256836},{""stimulus"":""run_exp/static/images/task_images/land.jpg"",""time"":958.7000002861023},{""stimulus"":""run_exp/static/images/task_images/dig.jpg"",""time"":1919.7000002861023}]",[],3,,,,,,,,,,,,,,
harvest,117,472631,0.0-39.0-1.0,"""event"",""trial"",""time""
""fullscreenenter"",""1"",""7185""
","
","
","""event"",""trial"",""time""
""fullscreenenter"",""1"",""7185""
","
",,null,run_exp/static/images/task_images/gems/0.jpg,null,,,,,,,0,,,3,,,,,0,0.448305523,NaN,,,,,,,
decision,118,472663,0.0-39.0-2.0,"""event"",""trial"",""time""
""fullscreenenter"",""1"",""7185""
","
","
","""event"",""trial"",""time""
""fullscreenenter"",""1"",""7185""
","
",,30.5999999,run_exp/static/images/task_images/land.jpg,65,,,,,,,0,,,3,,,,,,,,101706,1,7,FALSE,,,
dig,119,475634,0.0-40.0-0.0,"""event"",""trial"",""time""
""fullscreenenter"",""1"",""7185""
","
","
","""event"",""trial"",""time""
""fullscreenenter"",""1"",""7185""
","
",,,,,,,,,,,,"[{""stimulus"":""run_exp/static/images/task_images/dig.jpg"",""time"":0.09999990463256836},{""stimulus"":""run_exp/static/images/task_images/land.jpg"",""time"":990.9000000953674},{""stimulus"":""run_exp/static/images/task_images/dig.jpg"",""time"":1979.7999997138977}]",[],3,,,,,,,,,,,,,,
harvest,120,476637,0.0-40.0-1.0,"""event"",""trial"",""time""
""fullscreenenter"",""1"",""7185""
","
","
","""event"",""trial"",""time""
""fullscreenenter"",""1"",""7185""
","
",,null,run_exp/static/images/task_images/gems/0.jpg,null,,,,,,,0,,,3,,,,,0,0.447076196,NaN,,,,,,,
decision,121,476680,0.0-40.0-2.0,"""event"",""trial"",""time""
""fullscreenenter"",""1"",""7185""
","
","
","""event"",""trial"",""time""
""fullscreenenter"",""1"",""7185""
","
",,42.30000019,run_exp/static/images/task_images/land.jpg,76,,,,,,,0,,,3,,,,,,,,105723,1,8,TRUE,,,
travel,122,486636,0.0-41.0-0.0,"""event"",""trial"",""time""
""fullscreenenter"",""1"",""7185""
","
","
","""event"",""trial"",""time""
""fullscreenenter"",""1"",""7185""
","
",,,,,,,,,,,,"[{""stimulus"":""run_exp/static/images/task_images/rocket-01.jpg"",""time"":0.09999990463256836},{""stimulus"":""run_exp/static/images/task_images/rocket-02.jpg"",""time"":1106.9000000953674},{""stimulus"":""run_exp/static/images/task_images/rocket-03.jpg"",""time"":2213.300000190735},{""stimulus"":""run_exp/static/images/task_images/rocket-04.jpg"",""time"":3319.300000190735},{""stimulus"":""run_exp/static/images/task_images/rocket-05.jpg"",""time"":4425.199999809265},{""stimulus"":""run_exp/static/images/task_images/rocket-06.jpg"",""time"":5531.099999904633},{""stimulus"":""run_exp/static/images/task_images/rocket-07.jpg"",""time"":6637.199999809265},{""stimulus"":""run_exp/static/images/task_images/rocket-08.jpg"",""time"":7743.199999809265},{""stimulus"":""run_exp/static/images/task_images/rocket-09.jpg"",""time"":8849.199999809265}]",[],3,,,,,,,,,,,,,,
alien_welcome,123,491640,0.0-41.0-1.0,"""event"",""trial"",""time""
""fullscreenenter"",""1"",""7185""
","
","
","""event"",""trial"",""time""
""fullscreenenter"",""1"",""7185""
","
",,null,run_exp/static/images/task_images/aliens/old_aliens/planet/alien_planet-28.jpg,null,,,,,,,,,,,,,28,"43,9,55,28,39,34,26,53,27,14,20,44,31,42,71,70,60,12,1,30,41,66,7,3,46,72,29,48,8,37,13,75,62,16,73,49",,,,,,,,,,
land,124,492144,0.0-41.0-2.0,"""event"",""trial"",""time""
""fullscreenenter"",""1"",""7185""
","
","
","""event"",""trial"",""time""
""fullscreenenter"",""1"",""7185""
","
",,null,run_exp/static/images/task_images/land.jpg,null,,,,,,,96,,,4,,,,,,,,,,,,,,
dig,125,494148,0.0-41.0-3.0,"""event"",""trial"",""time""
""fullscreenenter"",""1"",""7185""
","
","
","""event"",""trial"",""time""
""fullscreenenter"",""1"",""7185""
","
",,,,,,,,,,,,"[{""stimulus"":""run_exp/static/images/task_images/dig.jpg"",""time"":0.40000009536743164},{""stimulus"":""run_exp/static/images/task_images/land.jpg"",""time"":668.5999999046326},{""stimulus"":""run_exp/static/images/task_images/dig.jpg"",""time"":1337.8000001907349}]",[],4,,,,,,,,,,,,,,
harvest,126,495150,0.0-41.0-4.0,"""event"",""trial"",""time""
""fullscreenenter"",""1"",""7185""
","
","
","""event"",""trial"",""time""
""fullscreenenter"",""1"",""7185""
","
",,null,run_exp/static/images/task_images/gems/96.jpg,null,,,,,,,39,,,4,,,,,96,0.406836694,0.40625,,,,,,,
decision,127,495745,0.0-41.0-5.0,"""event"",""trial"",""time""
""fullscreenenter"",""1"",""7185""
","
","
","""event"",""trial"",""time""
""fullscreenenter"",""1"",""7185""
","
",,592.3000002,run_exp/static/images/task_images/land.jpg,65,,,,,,,39,,,4,,,,,,,,124788,1,0,FALSE,,,
dig,128,498156,0.0-42.0-0.0,"""event"",""trial"",""time""
""fullscreenenter"",""1"",""7185""
","
","
","""event"",""trial"",""time""
""fullscreenenter"",""1"",""7185""
","
",,,,,,,,,,,,"[{""stimulus"":""run_exp/static/images/task_images/dig.jpg"",""time"":0.09999990463256836},{""stimulus"":""run_exp/static/images/task_images/land.jpg"",""time"":803.7999997138977},{""stimulus"":""run_exp/static/images/task_images/dig.jpg"",""time"":1605.8999996185303}]",[],4,,,,,,,,,,,,,,
harvest,129,499161,0.0-42.0-1.0,"""event"",""trial"",""time""
""fullscreenenter"",""1"",""7185""
","
","
","""event"",""trial"",""time""
""fullscreenenter"",""1"",""7185""
","
",,null,run_exp/static/images/task_images/gems/39.jpg,null,,,,,,,21,,,4,,,,,39,0.544239551,0.538461538,,,,,,,
decision,130,500161,0.0-42.0-2.0,"""event"",""trial"",""time""
""fullscreenenter"",""1"",""7185""
","
","
","""event"",""trial"",""time""
""fullscreenenter"",""1"",""7185""
","
",,997.8000002,run_exp/static/images/task_images/land.jpg,65,,,,,,,21,,,4,,,,,,,,129205,1,1,FALSE,,,
dig,131,502166,0.0-43.0-0.0,"""event"",""trial"",""time""
""fullscreenenter"",""1"",""7185""
","
","
","""event"",""trial"",""time""
""fullscreenenter"",""1"",""7185""
","
",,,,,,,,,,,,"[{""stimulus"":""run_exp/static/images/task_images/dig.jpg"",""time"":0.09999990463256836},{""stimulus"":""run_exp/static/images/task_images/land.jpg"",""time"":668.0999999046326},{""stimulus"":""run_exp/static/images/task_images/dig.jpg"",""time"":1335.0999999046326}]",[],4,,,,,,,,,,,,,,
harvest,132,503169,0.0-43.0-1.0,"""event"",""trial"",""time""
""fullscreenenter"",""1"",""7185""
","
","
","""event"",""trial"",""time""
""fullscreenenter"",""1"",""7185""
","
",,null,run_exp/static/images/task_images/gems/21.jpg,null,,,,,,,9,,,4,,,,,21,0.420180573,0.428571429,,,,,,,
decision,133,503666,0.0-43.0-2.0,"""event"",""trial"",""time""
""fullscreenenter"",""1"",""7185""
","
","
","""event"",""trial"",""time""
""fullscreenenter"",""1"",""7185""
","
",,494,run_exp/static/images/task_images/land.jpg,65,,,,,,,9,,,4,,,,,,,,132709,1,2,FALSE,,,
dig,134,506176,0.0-44.0-0.0,"""event"",""trial"",""time""
""fullscreenenter"",""1"",""7185""
","
","
","""event"",""trial"",""time""
""fullscreenenter"",""1"",""7185""
","
",,,,,,,,,,,,"[{""stimulus"":""run_exp/static/images/task_images/dig.jpg"",""time"":0.19999980926513672},{""stimulus"":""run_exp/static/images/task_images/land.jpg"",""time"":836.8000001907349},{""stimulus"":""run_exp/static/images/task_images/dig.jpg"",""time"":1671.5}]",[],4,,,,,,,,,,,,,,
harvest,135,507179,0.0-44.0-1.0,"""event"",""trial"",""time""
""fullscreenenter"",""1"",""7185""
","
","
","""event"",""trial"",""time""
""fullscreenenter"",""1"",""7185""
","
",,null,run_exp/static/images/task_images/gems/9.jpg,null,,,,,,,4,,,4,,,,,9,0.472743114,0.444444444,,,,,,,
decision,136,507271,0.0-44.0-2.0,"""event"",""trial"",""time""
""fullscreenenter"",""1"",""7185""
","
","
","""event"",""trial"",""time""
""fullscreenenter"",""1"",""7185""
","
",,89.79999971,run_exp/static/images/task_images/land.jpg,65,,,,,,,4,,,4,,,,,,,,136314,1,3,FALSE,,,
dig,137,510187,0.0-45.0-0.0,"""event"",""trial"",""time""
""fullscreenenter"",""1"",""7185""
","
","
","""event"",""trial"",""time""
""fullscreenenter"",""1"",""7185""
","
",,,,,,,,,,,,"[{""stimulus"":""run_exp/static/images/task_images/dig.jpg"",""time"":0.3000001907348633},{""stimulus"":""run_exp/static/images/task_images/land.jpg"",""time"":971.8000001907349},{""stimulus"":""run_exp/static/images/task_images/dig.jpg"",""time"":1941.8000001907349}]",[],4,,,,,,,,,,,,,,
harvest,138,511190,0.0-45.0-1.0,"""event"",""trial"",""time""
""fullscreenenter"",""1"",""7185""
","
","
","""event"",""trial"",""time""
""fullscreenenter"",""1"",""7185""
","
",,null,run_exp/static/images/task_images/gems/4.jpg,null,,,,,,,2,,,4,,,,,4,0.507567527,0.5,,,,,,,
decision,139,511359,0.0-45.0-2.0,"""event"",""trial"",""time""
""fullscreenenter"",""1"",""7185""
","
","
","""event"",""trial"",""time""
""fullscreenenter"",""1"",""7185""
","
",,166.9000001,run_exp/static/images/task_images/land.jpg,65,,,,,,,2,,,4,,,,,,,,140402,1,4,FALSE,,,
dig,140,514196,0.0-46.0-0.0,"""event"",""trial"",""time""
""fullscreenenter"",""1"",""7185""
","
","
","""event"",""trial"",""time""
""fullscreenenter"",""1"",""7185""
","
",,,,,,,,,,,,"[{""stimulus"":""run_exp/static/images/task_images/dig.jpg"",""time"":0.2999997138977051},{""stimulus"":""run_exp/static/images/task_images/land.jpg"",""time"":945.9000000953674},{""stimulus"":""run_exp/static/images/task_images/dig.jpg"",""time"":1889.7999997138977}]",[],4,,,,,,,,,,,,,,
harvest,141,515200,0.0-46.0-1.0,"""event"",""trial"",""time""
""fullscreenenter"",""1"",""7185""
","
","
","""event"",""trial"",""time""
""fullscreenenter"",""1"",""7185""
","
",,null,run_exp/static/images/task_images/gems/2.jpg,null,,,,,,,1,,,4,,,,,2,0.387679481,0.5,,,,,,,
decision,142,515506,0.0-46.0-2.0,"""event"",""trial"",""time""
""fullscreenenter"",""1"",""7185""
","
","
","""event"",""trial"",""time""
""fullscreenenter"",""1"",""7185""
","
",,303,run_exp/static/images/task_images/land.jpg,65,,,,,,,1,,,4,,,,,,,,144549,1,5,FALSE,,,
dig,143,518207,0.0-47.0-0.0,"""event"",""trial"",""time""
""fullscreenenter"",""1"",""7185""
","
","
","""event"",""trial"",""time""
""fullscreenenter"",""1"",""7185""
","
",,,,,,,,,,,,"[{""stimulus"":""run_exp/static/images/task_images/dig.jpg"",""time"":0.09999990463256836},{""stimulus"":""run_exp/static/images/task_images/land.jpg"",""time"":904.0999999046326},{""stimulus"":""run_exp/static/images/task_images/dig.jpg"",""time"":1799.1999998092651}]",[],4,,,,,,,,,,,,,,
harvest,144,519211,0.0-47.0-1.0,"""event"",""trial"",""time""
""fullscreenenter"",""1"",""7185""
","
","
","""event"",""trial"",""time""
""fullscreenenter"",""1"",""7185""
","
",,null,run_exp/static/images/task_images/gems/1.jpg,null,,,,,,,0,,,4,,,,,1,0.439481266,0,,,,,,,
decision,145,519448,0.0-47.0-2.0,"""event"",""trial"",""time""
""fullscreenenter"",""1"",""7185""
","
","
","""event"",""trial"",""time""
""fullscreenenter"",""1"",""7185""
","
",,234.7999997,run_exp/static/images/task_images/land.jpg,65,,,,,,,0,,,4,,,,,,,,148491,1,6,FALSE,,,
dig,146,522216,0.0-48.0-0.0,"""event"",""trial"",""time""
""fullscreenenter"",""1"",""7185""
","
","
","""event"",""trial"",""time""
""fullscreenenter"",""1"",""7185""
","
",,,,,,,,,,,,"[{""stimulus"":""run_exp/static/images/task_images/dig.jpg"",""time"":0.09999990463256836},{""stimulus"":""run_exp/static/images/task_images/land.jpg"",""time"":924.2999997138977},{""stimulus"":""run_exp/static/images/task_images/dig.jpg"",""time"":1846.2999997138977}]",[],4,,,,,,,,,,,,,,
harvest,147,523218,0.0-48.0-1.0,"""event"",""trial"",""time""
""fullscreenenter"",""1"",""7185""
","
","
","""event"",""trial"",""time""
""fullscreenenter"",""1"",""7185""
","
",,null,run_exp/static/images/task_images/gems/0.jpg,null,,,,,,,0,,,4,,,,,0,0.532391903,NaN,,,,,,,
decision,148,523373,0.0-48.0-2.0,"""event"",""trial"",""time""
""fullscreenenter"",""1"",""7185""
","
","
","""event"",""trial"",""time""
""fullscreenenter"",""1"",""7185""
","
",,152.4000001,run_exp/static/images/task_images/land.jpg,76,,,,,,,0,,,4,,,,,,,,152416,1,7,TRUE,,,
travel,149,533224,0.0-49.0-0.0,"""event"",""trial"",""time""
""fullscreenenter"",""1"",""7185""
","
","
","""event"",""trial"",""time""
""fullscreenenter"",""1"",""7185""
","
",,,,,,,,,,,,"[{""stimulus"":""run_exp/static/images/task_images/rocket-01.jpg"",""time"":0.40000009536743164},{""stimulus"":""run_exp/static/images/task_images/rocket-02.jpg"",""time"":1095.5999999046326},{""stimulus"":""run_exp/static/images/task_images/rocket-03.jpg"",""time"":2189.699999809265},{""stimulus"":""run_exp/static/images/task_images/rocket-04.jpg"",""time"":3284.699999809265},{""stimulus"":""run_exp/static/images/task_images/rocket-05.jpg"",""time"":4377.599999904633},{""stimulus"":""run_exp/static/images/task_images/rocket-06.jpg"",""time"":5471.699999809265},{""stimulus"":""run_exp/static/images/task_images/rocket-07.jpg"",""time"":6565.699999809265},{""stimulus"":""run_exp/static/images/task_images/rocket-08.jpg"",""time"":7659.300000190735},{""stimulus"":""run_exp/static/images/task_images/rocket-09.jpg"",""time"":8761.800000190735}]",[],4,,,,,,,,,,,,,,
alien_welcome,150,538229,0.0-49.0-1.0,"""event"",""trial"",""time""
""fullscreenenter"",""1"",""7185""
","
","
","""event"",""trial"",""time""
""fullscreenenter"",""1"",""7185""
","
",,null,run_exp/static/images/task_images/aliens/old_aliens/planet/alien_planet-39.jpg,null,,,,,,,,,,,,,39,"43,9,55,28,39,34,26,53,27,14,20,44,31,42,71,70,60,12,1,30,41,66,7,3,46,72,29,48,8,37,13,75,62,16,73,49",,,,,,,,,,
land,151,538731,0.0-49.0-2.0,"""event"",""trial"",""time""
""fullscreenenter"",""1"",""7185""
","
","
","""event"",""trial"",""time""
""fullscreenenter"",""1"",""7185""
","
",,null,run_exp/static/images/task_images/land.jpg,null,,,,,,,92,,,5,,,,,,,,,,,,,,
dig,152,540738,0.0-49.0-3.0,"""event"",""trial"",""time""
""fullscreenenter"",""1"",""7185""
","
","
","""event"",""trial"",""time""
""fullscreenenter"",""1"",""7185""
","
",,,,,,,,,,,,"[{""stimulus"":""run_exp/static/images/task_images/dig.jpg"",""time"":0.5999999046325684},{""stimulus"":""run_exp/static/images/task_images/land.jpg"",""time"":669.5},{""stimulus"":""run_exp/static/images/task_images/dig.jpg"",""time"":1336.2999997138977}]",[],5,,,,,,,,,,,,,,
harvest,153,541742,0.0-49.0-4.0,"""event"",""trial"",""time""
""fullscreenenter"",""1"",""7185""
","
","
","""event"",""trial"",""time""
""fullscreenenter"",""1"",""7185""
","
",,null,run_exp/static/images/task_images/gems/92.jpg,null,,,,,,,48,,,5,,,,,92,0.518034967,0.52173913,,,,,,,
decision,154,542118,0.0-49.0-5.0,"""event"",""trial"",""time""
""fullscreenenter"",""1"",""7185""
","
","
","""event"",""trial"",""time""
""fullscreenenter"",""1"",""7185""
","
",,372.3999996,run_exp/static/images/task_images/land.jpg,65,,,,,,,48,,,5,,,,,,,,171161,1,0,FALSE,,,
dig,155,544748,0.0-50.0-0.0,"""event"",""trial"",""time""
""fullscreenenter"",""1"",""7185""
","
","
","""event"",""trial"",""time""
""fullscreenenter"",""1"",""7185""
","
",,,,,,,,,,,,"[{""stimulus"":""run_exp/static/images/task_images/dig.jpg"",""time"":0.20000028610229492},{""stimulus"":""run_exp/static/images/task_images/land.jpg"",""time"":877.0999999046326},{""stimulus"":""run_exp/static/images/task_images/dig.jpg"",""time"":1752.0999999046326}]",[],5,,,,,,,,,,,,,,
harvest,156,545751,0.0-50.0-1.0,"""event"",""trial"",""time""
""fullscreenenter"",""1"",""7185""
","
","
","""event"",""trial"",""time""
""fullscreenenter"",""1"",""7185""
","
",,null,run_exp/static/images/task_images/gems/48.jpg,null,,,,,,,20,,,5,,,,,48,0.41956087,0.416666667,,,,,,,
decision,157,545858,0.0-50.0-2.0,"""event"",""trial"",""time""
""fullscreenenter"",""1"",""7185""
","
","
","""event"",""trial"",""time""
""fullscreenenter"",""1"",""7185""
","
",,104.1000004,run_exp/static/images/task_images/land.jpg,65,,,,,,,20,,,5,,,,,,,,174901,1,1,FALSE,,,
dig,158,548759,0.0-51.0-0.0,"""event"",""trial"",""time""
""fullscreenenter"",""1"",""7185""
","
","
","""event"",""trial"",""time""
""fullscreenenter"",""1"",""7185""
","
",,,,,,,,,,,,"[{""stimulus"":""run_exp/static/images/task_images/dig.jpg"",""time"":0.19999980926513672},{""stimulus"":""run_exp/static/images/task_images/land.jpg"",""time"":970.3000001907349},{""stimulus"":""run_exp/static/images/task_images/dig.jpg"",""time"":1932.0999999046326}]",[],5,,,,,,,,,,,,,,
harvest,159,549764,0.0-51.0-1.0,"""event"",""trial"",""time""
""fullscreenenter"",""1"",""7185""
","
","
","""event"",""trial"",""time""
""fullscreenenter"",""1"",""7185""
","
",,null,run_exp/static/images/task_images/gems/20.jpg,null,,,,,,,10,,,5,,,,,20,0.52283942,0.5,,,,,,,
decision,160,551135,0.0-51.0-2.0,"""event"",""trial"",""time""
""fullscreenenter"",""1"",""7185""
","
","
","""event"",""trial"",""time""
""fullscreenenter"",""1"",""7185""
","
",,1369.4,run_exp/static/images/task_images/land.jpg,65,,,,,,,10,,,5,,,,,,,,180179,1,2,FALSE,,,
dig,161,552768,0.0-52.0-0.0,"""event"",""trial"",""time""
""fullscreenenter"",""1"",""7185""
","
","
","""event"",""trial"",""time""
""fullscreenenter"",""1"",""7185""
","
",,,,,,,,,,,,"[{""stimulus"":""run_exp/static/images/task_images/dig.jpg"",""time"":0},{""stimulus"":""run_exp/static/images/task_images/land.jpg"",""time"":543.9000000953674},{""stimulus"":""run_exp/static/images/task_images/dig.jpg"",""time"":1087}]",[],5,,,,,,,,,,,,,,
harvest,162,553770,0.0-52.0-1.0,"""event"",""trial"",""time""
""fullscreenenter"",""1"",""7185""
","
","
","""event"",""trial"",""time""
""fullscreenenter"",""1"",""7185""
","
",,null,run_exp/static/images/task_images/gems/10.jpg,null,,,,,,,5,,,5,,,,,10,0.463945031,0.5,,,,,,,
decision,163,554250,0.0-52.0-2.0,"""event"",""trial"",""time""
""fullscreenenter"",""1"",""7185""
","
","
","""event"",""trial"",""time""
""fullscreenenter"",""1"",""7185""
","
",,477.6999998,run_exp/static/images/task_images/land.jpg,65,,,,,,,5,,,5,,,,,,,,183293,1,3,FALSE,,,
dig,164,556775,0.0-53.0-0.0,"""event"",""trial"",""time""
""fullscreenenter"",""1"",""7185""
","
","
","""event"",""trial"",""time""
""fullscreenenter"",""1"",""7185""
","
",,,,,,,,,,,,"[{""stimulus"":""run_exp/static/images/task_images/dig.jpg"",""time"":0.3000001907348633},{""stimulus"":""run_exp/static/images/task_images/land.jpg"",""time"":841.5999999046326},{""stimulus"":""run_exp/static/images/task_images/dig.jpg"",""time"":1681.5999999046326}]",[],5,,,,,,,,,,,,,,
harvest,165,557778,0.0-53.0-1.0,"""event"",""trial"",""time""
""fullscreenenter"",""1"",""7185""
","
","
","""event"",""trial"",""time""
""fullscreenenter"",""1"",""7185""
","
",,null,run_exp/static/images/task_images/gems/5.jpg,null,,,,,,,2,,,5,,,,,5,0.462213221,0.4,,,,,,,
decision,166,557858,0.0-53.0-2.0,"""event"",""trial"",""time""
""fullscreenenter"",""1"",""7185""
","
","
","""event"",""trial"",""time""
""fullscreenenter"",""1"",""7185""
","
",,77.80000019,run_exp/static/images/task_images/land.jpg,65,,,,,,,2,,,5,,,,,,,,186901,1,4,FALSE,,,
dig,167,560785,0.0-54.0-0.0,"""event"",""trial"",""time""
""fullscreenenter"",""1"",""7185""
","
","
","""event"",""trial"",""time""
""fullscreenenter"",""1"",""7185""
","
",,,,,,,,,,,,"[{""stimulus"":""run_exp/static/images/task_images/dig.jpg"",""time"":0.20000028610229492},{""stimulus"":""run_exp/static/images/task_images/land.jpg"",""time"":975.8000001907349},{""stimulus"":""run_exp/static/images/task_images/dig.jpg"",""time"":1949.9000000953674}]",[],5,,,,,,,,,,,,,,
harvest,168,561788,0.0-54.0-1.0,"""event"",""trial"",""time""
""fullscreenenter"",""1"",""7185""
","
","
","""event"",""trial"",""time""
""fullscreenenter"",""1"",""7185""
","
",,null,run_exp/static/images/task_images/gems/2.jpg,null,,,,,,,1,,,5,,,,,2,0.476342273,0.5,,,,,,,
decision,169,561845,0.0-54.0-2.0,"""event"",""trial"",""time""
""fullscreenenter"",""1"",""7185""
","
","
","""event"",""trial"",""time""
""fullscreenenter"",""1"",""7185""
","
",,54.5,run_exp/static/images/task_images/land.jpg,65,,,,,,,1,,,5,,,,,,,,190888,1,5,FALSE,,,
dig,170,564795,0.0-55.0-0.0,"""event"",""trial"",""time""
""fullscreenenter"",""1"",""7185""
","
","
","""event"",""trial"",""time""
""fullscreenenter"",""1"",""7185""
","
",,,,,,,,,,,,"[{""stimulus"":""run_exp/static/images/task_images/dig.jpg"",""time"":0.20000028610229492},{""stimulus"":""run_exp/static/images/task_images/land.jpg"",""time"":983.0999999046326},{""stimulus"":""run_exp/static/images/task_images/dig.jpg"",""time"":1964.2000002861023}]",[],5,,,,,,,,,,,,,,
harvest,171,565799,0.0-55.0-1.0,"""event"",""trial"",""time""
""fullscreenenter"",""1"",""7185""
","
","
","""event"",""trial"",""time""
""fullscreenenter"",""1"",""7185""
","
",,null,run_exp/static/images/task_images/gems/1.jpg,null,,,,,,,1,,,5,,,,,1,0.50609269,1,,,,,,,
decision,172,567501,0.0-55.0-2.0,"""event"",""trial"",""time""
""fullscreenenter"",""1"",""7185""
","
","
","""event"",""trial"",""time""
""fullscreenenter"",""1"",""7185""
","
",,1699.3,run_exp/static/images/task_images/land.jpg,65,,,,,,,1,,,5,,,,,,,,196544,1,6,FALSE,,,
dig,173,568804,0.0-56.0-0.0,"""event"",""trial"",""time""
""fullscreenenter"",""1"",""7185""
","
","
","""event"",""trial"",""time""
""fullscreenenter"",""1"",""7185""
","
",,,,,,,,,,,,"[{""stimulus"":""run_exp/static/images/task_images/dig.jpg"",""time"":0.19999980926513672},{""stimulus"":""run_exp/static/images/task_images/land.jpg"",""time"":434.19999980926514},{""stimulus"":""run_exp/static/images/task_images/dig.jpg"",""time"":867.0999999046326}]",[],5,,,,,,,,,,,,,,
harvest,174,569810,0.0-56.0-1.0,"""event"",""trial"",""time""
""fullscreenenter"",""1"",""7185""
","
","
","""event"",""trial"",""time""
""fullscreenenter"",""1"",""7185""
","
",,null,run_exp/static/images/task_images/gems/1.jpg,null,,,,,,,1,,,5,,,,,1,0.639385632,1,,,,,,,
decision,175,570116,0.0-56.0-2.0,"""event"",""trial"",""time""
""fullscreenenter"",""1"",""7185""
","
","
","""event"",""trial"",""time""
""fullscreenenter"",""1"",""7185""
","
",,304,run_exp/static/images/task_images/land.jpg,65,,,,,,,0,,,5,,,,,,,,199159,1,7,FALSE,,,
dig,176,572815,0.0-57.0-0.0,"""event"",""trial"",""time""
""fullscreenenter"",""1"",""7185""
","
","
","""event"",""trial"",""time""
""fullscreenenter"",""1"",""7185""
","
",,,,,,,,,,,,"[{""stimulus"":""run_exp/static/images/task_images/dig.jpg"",""time"":0.3000001907348633},{""stimulus"":""run_exp/static/images/task_images/land.jpg"",""time"":900.0999999046326},{""stimulus"":""run_exp/static/images/task_images/dig.jpg"",""time"":1798.4000000953674}]",[],5,,,,,,,,,,,,,,
harvest,177,573818,0.0-57.0-1.0,"""event"",""trial"",""time""
""fullscreenenter"",""1"",""7185""
","
","
","""event"",""trial"",""time""
""fullscreenenter"",""1"",""7185""
","
",,null,run_exp/static/images/task_images/gems/0.jpg,null,,,,,,,0,,,5,,,,,0,0.512462793,NaN,,,,,,,
decision,178,574393,0.0-57.0-2.0,"""event"",""trial"",""time""
""fullscreenenter"",""1"",""7185""
","
","
","""event"",""trial"",""time""
""fullscreenenter"",""1"",""7185""
","
",,573.0999999,run_exp/static/images/task_images/land.jpg,65,,,,,,,0,,,5,,,,,,,,203436,1,8,FALSE,,,
dig,179,576821,0.0-58.0-0.0,"""event"",""trial"",""time""
""fullscreenenter"",""1"",""7185""
","
","
","""event"",""trial"",""time""
""fullscreenenter"",""1"",""7185""
","
",,,,,,,,,,,,"[{""stimulus"":""run_exp/static/images/task_images/dig.jpg"",""time"":0.19999980926513672},{""stimulus"":""run_exp/static/images/task_images/land.jpg"",""time"":811.5999999046326},{""stimulus"":""run_exp/static/images/task_images/dig.jpg"",""time"":1617.7999997138977}]",[],5,,,,,,,,,,,,,,
harvest,180,577824,0.0-58.0-1.0,"""event"",""trial"",""time""
""fullscreenenter"",""1"",""7185""
","
","
","""event"",""trial"",""time""
""fullscreenenter"",""1"",""7185""
","
",,null,run_exp/static/images/task_images/gems/0.jpg,null,,,,,,,0,,,5,,,,,0,0.44376446,NaN,,,,,,,
decision,181,578871,0.0-58.0-2.0,"""event"",""trial"",""time""
""fullscreenenter"",""1"",""7185""
","
","
","""event"",""trial"",""time""
""fullscreenenter"",""1"",""7185""
","
",,1045.6,run_exp/static/images/task_images/land.jpg,76,,,,,,,0,,,5,,,,,,,,207915,1,9,TRUE,,,
travel,182,587823,0.0-59.0-0.0,"""event"",""trial"",""time""
""fullscreenenter"",""1"",""7185""
","
","
","""event"",""trial"",""time""
""fullscreenenter"",""1"",""7185""
","
",,,,,,,,,,,,"[{""stimulus"":""run_exp/static/images/task_images/rocket-01.jpg"",""time"":0.10000038146972656},{""stimulus"":""run_exp/static/images/task_images/rocket-02.jpg"",""time"":996},{""stimulus"":""run_exp/static/images/task_images/rocket-03.jpg"",""time"":1990},{""stimulus"":""run_exp/static/images/task_images/rocket-04.jpg"",""time"":2984.300000190735},{""stimulus"":""run_exp/static/images/task_images/rocket-05.jpg"",""time"":3981.1000003814697},{""stimulus"":""run_exp/static/images/task_images/rocket-06.jpg"",""time"":4972.10000038147},{""stimulus"":""run_exp/static/images/task_images/rocket-07.jpg"",""time"":5966.10000038147},{""stimulus"":""run_exp/static/images/task_images/rocket-08.jpg"",""time"":6959.60000038147},{""stimulus"":""run_exp/static/images/task_images/rocket-09.jpg"",""time"":7954}]",[],5,,,,,,,,,,,,,,
alien_welcome,183,592826,0.0-59.0-1.0,"""event"",""trial"",""time""
""fullscreenenter"",""1"",""7185""
","
","
","""event"",""trial"",""time""
""fullscreenenter"",""1"",""7185""
","
",,null,run_exp/static/images/task_images/aliens/old_aliens/planet/alien_planet-34.jpg,null,,,,,,,,,,,,,34,"43,9,55,28,39,34,26,53,27,14,20,44,31,42,71,70,60,12,1,30,41,66,7,3,46,72,29,48,8,37,13,75,62,16,73,49",,,,,,,,,,
land,184,593329,0.0-59.0-2.0,"""event"",""trial"",""time""
""fullscreenenter"",""1"",""7185""
","
","
","""event"",""trial"",""time""
""fullscreenenter"",""1"",""7185""
","
",,null,run_exp/static/images/task_images/land.jpg,null,,,,,,,93,,,6,,,,,,,,,,,,,,
dig,185,595335,0.0-59.0-3.0,"""event"",""trial"",""time""
""fullscreenenter"",""1"",""7185""
","
","
","""event"",""trial"",""time""
""fullscreenenter"",""1"",""7185""
","
",,,,,,,,,,,,"[{""stimulus"":""run_exp/static/images/task_images/dig.jpg"",""time"":0.40000009536743164},{""stimulus"":""run_exp/static/images/task_images/land.jpg"",""time"":669.2999997138977},{""stimulus"":""run_exp/static/images/task_images/dig.jpg"",""time"":1337.2999997138977}]",[],6,,,,,,,,,,,,,,
harvest,186,596340,0.0-59.0-4.0,"""event"",""trial"",""time""
""fullscreenenter"",""1"",""7185""
","
","
","""event"",""trial"",""time""
""fullscreenenter"",""1"",""7185""
","
",,null,run_exp/static/images/task_images/gems/93.jpg,null,,,,,,,80,,,6,,,,,93,0.861273349,0.860215054,,,,,,,
decision,187,597045,0.0-59.0-5.0,"""event"",""trial"",""time""
""fullscreenenter"",""1"",""7185""
","
","
","""event"",""trial"",""time""
""fullscreenenter"",""1"",""7185""
","
",,703,run_exp/static/images/task_images/land.jpg,65,,,,,,,80,,,6,,,,,,,,226088,1,0,FALSE,,,
dig,188,599346,0.0-60.0-0.0,"""event"",""trial"",""time""
""fullscreenenter"",""1"",""7185""
","
","
","""event"",""trial"",""time""
""fullscreenenter"",""1"",""7185""
","
",,,,,,,,,,,,"[{""stimulus"":""run_exp/static/images/task_images/dig.jpg"",""time"":0.09999990463256836},{""stimulus"":""run_exp/static/images/task_images/land.jpg"",""time"":765.8999996185303},{""stimulus"":""run_exp/static/images/task_images/dig.jpg"",""time"":1530.8999996185303}]",[],6,,,,,,,,,,,,,,
harvest,189,600349,0.0-60.0-1.0,"""event"",""trial"",""time""
""fullscreenenter"",""1"",""7185""
","
","
","""event"",""trial"",""time""
""fullscreenenter"",""1"",""7185""
","
",,null,run_exp/static/images/task_images/gems/80.jpg,null,,,,,,,64,,,6,,,,,80,0.801732291,0.8,,,,,,,
decision,190,601836,0.0-60.0-2.0,"""event"",""trial"",""time""
""fullscreenenter"",""1"",""7185""
","
","
","""event"",""trial"",""time""
""fullscreenenter"",""1"",""7185""
","
",,1483.8,run_exp/static/images/task_images/land.jpg,65,,,,,,,64,,,6,,,,,,,,230880,1,1,FALSE,,,
dig,191,603358,0.0-61.0-0.0,"""event"",""trial"",""time""
""fullscreenenter"",""1"",""7185""
","
","
","""event"",""trial"",""time""
""fullscreenenter"",""1"",""7185""
","
",,,,,,,,,,,,"[{""stimulus"":""run_exp/static/images/task_images/dig.jpg"",""time"":0.20000028610229492},{""stimulus"":""run_exp/static/images/task_images/land.jpg"",""time"":507},{""stimulus"":""run_exp/static/images/task_images/dig.jpg"",""time"":1011.6000003814697}]",[],6,,,,,,,,,,,,,,
harvest,192,604361,0.0-61.0-1.0,"""event"",""trial"",""time""
""fullscreenenter"",""1"",""7185""
","
","
","""event"",""trial"",""time""
""fullscreenenter"",""1"",""7185""
","
",,null,run_exp/static/images/task_images/gems/64.jpg,null,,,,,,,51,,,6,,,,,64,0.802038123,0.796875,,,,,,,
decision,193,605077,0.0-61.0-2.0,"""event"",""trial"",""time""
""fullscreenenter"",""1"",""7185""
","
","
","""event"",""trial"",""time""
""fullscreenenter"",""1"",""7185""
","
",,713.7000003,run_exp/static/images/task_images/land.jpg,65,,,,,,,51,,,6,,,,,,,,234120,1,2,FALSE,,,
dig,194,607367,0.0-62.0-0.0,"""event"",""trial"",""time""
""fullscreenenter"",""1"",""7185""
","
","
","""event"",""trial"",""time""
""fullscreenenter"",""1"",""7185""
","
",,,,,,,,,,,,"[{""stimulus"":""run_exp/static/images/task_images/dig.jpg"",""time"":0.09999990463256836},{""stimulus"":""run_exp/static/images/task_images/land.jpg"",""time"":763.0999999046326},{""stimulus"":""run_exp/static/images/task_images/dig.jpg"",""time"":1525.3000001907349}]",[],6,,,,,,,,,,,,,,
harvest,195,608372,0.0-62.0-1.0,"""event"",""trial"",""time""
""fullscreenenter"",""1"",""7185""
","
","
","""event"",""trial"",""time""
""fullscreenenter"",""1"",""7185""
","
",,null,run_exp/static/images/task_images/gems/51.jpg,null,,,,,,,41,,,6,,,,,51,0.809432478,0.803921569,,,,,,,
decision,196,608958,0.0-62.0-2.0,"""event"",""trial"",""time""
""fullscreenenter"",""1"",""7185""
","
","
","""event"",""trial"",""time""
""fullscreenenter"",""1"",""7185""
","
",,583.8000002,run_exp/static/images/task_images/land.jpg,65,,,,,,,41,,,6,,,,,,,,238001,1,3,FALSE,,,
dig,197,611378,0.0-63.0-0.0,"""event"",""trial"",""time""
""fullscreenenter"",""1"",""7185""
","
","
","""event"",""trial"",""time""
""fullscreenenter"",""1"",""7185""
","
",,,,,,,,,,,,"[{""stimulus"":""run_exp/static/images/task_images/dig.jpg"",""time"":0.09999990463256836},{""stimulus"":""run_exp/static/images/task_images/land.jpg"",""time"":806.7999997138977},{""stimulus"":""run_exp/static/images/task_images/dig.jpg"",""time"":1612.2999997138977}]",[],6,,,,,,,,,,,,,,
harvest,198,612386,0.0-63.0-1.0,"""event"",""trial"",""time""
""fullscreenenter"",""1"",""7185""
","
","
","""event"",""trial"",""time""
""fullscreenenter"",""1"",""7185""
","
",,null,run_exp/static/images/task_images/gems/41.jpg,null,,,,,,,35,,,6,,,,,41,0.848708927,0.853658537,,,,,,,
decision,199,612425,0.0-63.0-2.0,"""event"",""trial"",""time""
""fullscreenenter"",""1"",""7185""
","
","
","""event"",""trial"",""time""
""fullscreenenter"",""1"",""7185""
","
",,36.80000019,run_exp/static/images/task_images/land.jpg,65,,,,,,,35,,,6,,,,,,,,241468,1,4,FALSE,,,
dig,200,615390,0.0-64.0-0.0,"""event"",""trial"",""time""
""fullscreenenter"",""1"",""7185""
","
","
","""event"",""trial"",""time""
""fullscreenenter"",""1"",""7185""
","
",,,,,,,,,,,,"[{""stimulus"":""run_exp/static/images/task_images/dig.jpg"",""time"":0.09999990463256836},{""stimulus"":""run_exp/static/images/task_images/land.jpg"",""time"":988.2000002861023},{""stimulus"":""run_exp/static/images/task_images/dig.jpg"",""time"":1974.8000001907349}]",[],6,,,,,,,,,,,,,,
harvest,201,616394,0.0-64.0-1.0,"""event"",""trial"",""time""
""fullscreenenter"",""1"",""7185""
","
","
","""event"",""trial"",""time""
""fullscreenenter"",""1"",""7185""
","
",,null,run_exp/static/images/task_images/gems/35.jpg,null,,,,,,,29,,,6,,,,,35,0.835584561,0.828571429,,,,,,,
decision,202,616406,0.0-64.0-2.0,"""event"",""trial"",""time""
""fullscreenenter"",""1"",""7185""
","
","
","""event"",""trial"",""time""
""fullscreenenter"",""1"",""7185""
","
",,9.5,run_exp/static/images/task_images/land.jpg,65,,,,,,,29,,,6,,,,,,,,245449,1,5,FALSE,,,
dig,203,619397,0.0-65.0-0.0,"""event"",""trial"",""time""
""fullscreenenter"",""1"",""7185""
","
","
","""event"",""trial"",""time""
""fullscreenenter"",""1"",""7185""
","
",,,,,,,,,,,,"[{""stimulus"":""run_exp/static/images/task_images/dig.jpg"",""time"":0.10000038146972656},{""stimulus"":""run_exp/static/images/task_images/land.jpg"",""time"":998.2000002861023},{""stimulus"":""run_exp/static/images/task_images/dig.jpg"",""time"":1996.2000002861023}]",[],6,,,,,,,,,,,,,,
harvest,204,620400,0.0-65.0-1.0,"""event"",""trial"",""time""
""fullscreenenter"",""1"",""7185""
","
","
","""event"",""trial"",""time""
""fullscreenenter"",""1"",""7185""
","
",,null,run_exp/static/images/task_images/gems/29.jpg,null,,,,,,,25,,,6,,,,,29,0.855352027,0.862068966,,,,,,,
decision,205,622294,0.0-65.0-2.0,"""event"",""trial"",""time""
""fullscreenenter"",""1"",""7185""
","
","
","""event"",""trial"",""time""
""fullscreenenter"",""1"",""7185""
","
",,1891.5,run_exp/static/images/task_images/land.jpg,65,,,,,,,25,,,6,,,,,,,,251337,1,6,FALSE,,,
dig,206,623406,0.0-66.0-0.0,"""event"",""trial"",""time""
""fullscreenenter"",""1"",""7185""
","
","
","""event"",""trial"",""time""
""fullscreenenter"",""1"",""7185""
","
",,,,,,,,,,,,"[{""stimulus"":""run_exp/static/images/task_images/dig.jpg"",""time"":0.09999990463256836},{""stimulus"":""run_exp/static/images/task_images/land.jpg"",""time"":369.90000009536743},{""stimulus"":""run_exp/static/images/task_images/dig.jpg"",""time"":739.2999997138977}]",[],6,,,,,,,,,,,,,,
harvest,207,624409,0.0-66.0-1.0,"""event"",""trial"",""time""
""fullscreenenter"",""1"",""7185""
","
","
","""event"",""trial"",""time""
""fullscreenenter"",""1"",""7185""
","
",,null,run_exp/static/images/task_images/gems/25.jpg,null,,,,,,,20,,,6,,,,,25,0.781742953,0.8,,,,,,,
decision,208,625287,0.0-66.0-2.0,"""event"",""trial"",""time""
""fullscreenenter"",""1"",""7185""
","
","
","""event"",""trial"",""time""
""fullscreenenter"",""1"",""7185""
","
",,876.0999999,run_exp/static/images/task_images/land.jpg,65,,,,,,,20,,,6,,,,,,,,254330,1,7,FALSE,,,
dig,209,627413,0.0-67.0-0.0,"""event"",""trial"",""time""
""fullscreenenter"",""1"",""7185""
","
","
","""event"",""trial"",""time""
""fullscreenenter"",""1"",""7185""
","
",,,,,,,,,,,,"[{""stimulus"":""run_exp/static/images/task_images/dig.jpg"",""time"":0.09999990463256836},{""stimulus"":""run_exp/static/images/task_images/land.jpg"",""time"":709.0999999046326},{""stimulus"":""run_exp/static/images/task_images/dig.jpg"",""time"":1416}]",[],6,,,,,,,,,,,,,,
harvest,210,628416,0.0-67.0-1.0,"""event"",""trial"",""time""
""fullscreenenter"",""1"",""7185""
","
","
","""event"",""trial"",""time""
""fullscreenenter"",""1"",""7185""
","
",,null,run_exp/static/images/task_images/gems/20.jpg,null,,,,,,,17,,,6,,,,,20,0.835991765,0.85,,,,,,,
decision,211,628994,0.0-67.0-2.0,"""event"",""trial"",""time""
""fullscreenenter"",""1"",""7185""
","
","
","""event"",""trial"",""time""
""fullscreenenter"",""1"",""7185""
","
",,575.7999997,run_exp/static/images/task_images/land.jpg,65,,,,,,,17,,,6,,,,,,,,258037,1,8,FALSE,,,
dig,212,631423,0.0-68.0-0.0,"""event"",""trial"",""time""
""fullscreenenter"",""1"",""7185""
","
","
","""event"",""trial"",""time""
""fullscreenenter"",""1"",""7185""
","
",,,,,,,,,,,,"[{""stimulus"":""run_exp/static/images/task_images/dig.jpg"",""time"":0.19999980926513672},{""stimulus"":""run_exp/static/images/task_images/land.jpg"",""time"":810.2999997138977},{""stimulus"":""run_exp/static/images/task_images/dig.jpg"",""time"":1620.3999996185303}]",[],6,,,,,,,,,,,,,,
harvest,213,632426,0.0-68.0-1.0,"""event"",""trial"",""time""
""fullscreenenter"",""1"",""7185""
","
","
","""event"",""trial"",""time""
""fullscreenenter"",""1"",""7185""
","
",,null,run_exp/static/images/task_images/gems/17.jpg,null,,,,,,,14,,,6,,,,,17,0.80613044,0.823529412,,,,,,,
decision,214,633016,0.0-68.0-2.0,"""event"",""trial"",""time""
""fullscreenenter"",""1"",""7185""
","
","
","""event"",""trial"",""time""
""fullscreenenter"",""1"",""7185""
","
",,587.5999999,run_exp/static/images/task_images/land.jpg,65,,,,,,,14,,,6,,,,,,,,262059,1,9,FALSE,,,
dig,215,635432,0.0-69.0-0.0,"""event"",""trial"",""time""
""fullscreenenter"",""1"",""7185""
","
","
","""event"",""trial"",""time""
""fullscreenenter"",""1"",""7185""
","
",,,,,,,,,,,,"[{""stimulus"":""run_exp/static/images/task_images/dig.jpg"",""time"":0.09999990463256836},{""stimulus"":""run_exp/static/images/task_images/land.jpg"",""time"":805.1999998092651},{""stimulus"":""run_exp/static/images/task_images/dig.jpg"",""time"":1609.2999997138977}]",[],6,,,,,,,,,,,,,,
harvest,216,636435,0.0-69.0-1.0,"""event"",""trial"",""time""
""fullscreenenter"",""1"",""7185""
","
","
","""event"",""trial"",""time""
""fullscreenenter"",""1"",""7185""
","
",,null,run_exp/static/images/task_images/gems/14.jpg,null,,,,,,,10,,,6,,,,,14,0.746109682,0.714285714,,,,,,,
decision,217,638369,0.0-69.0-2.0,"""event"",""trial"",""time""
""fullscreenenter"",""1"",""7185""
","
","
","""event"",""trial"",""time""
""fullscreenenter"",""1"",""7185""
","
",,1931.7,run_exp/static/images/task_images/land.jpg,65,,,,,,,10,,,6,,,,,,,,267412,1,10,FALSE,,,
dig,218,639442,0.0-70.0-0.0,"""event"",""trial"",""time""
""fullscreenenter"",""1"",""7185""
","
","
","""event"",""trial"",""time""
""fullscreenenter"",""1"",""7185""
","
",,,,,,,,,,,,"[{""stimulus"":""run_exp/static/images/task_images/dig.jpg"",""time"":0.3000001907348633},{""stimulus"":""run_exp/static/images/task_images/land.jpg"",""time"":357.5},{""stimulus"":""run_exp/static/images/task_images/dig.jpg"",""time"":713.5}]",[],6,,,,,,,,,,,,,,
harvest,219,640448,0.0-70.0-1.0,"""event"",""trial"",""time""
""fullscreenenter"",""1"",""7185""
","
","
","""event"",""trial"",""time""
""fullscreenenter"",""1"",""7185""
","
",,null,run_exp/static/images/task_images/gems/10.jpg,null,,,,,,,8,,,6,,,,,10,0.831733275,0.8,,,,,,,
decision,220,642119,0.0-70.0-2.0,"""event"",""trial"",""time""
""fullscreenenter"",""1"",""7185""
","
","
","""event"",""trial"",""time""
""fullscreenenter"",""1"",""7185""
","
",,1668.3,run_exp/static/images/task_images/land.jpg,65,,,,,,,8,,,6,,,,,,,,271162,1,11,FALSE,,,
dig,221,643454,0.0-71.0-0.0,"""event"",""trial"",""time""
""fullscreenenter"",""1"",""7185""
","
","
","""event"",""trial"",""time""
""fullscreenenter"",""1"",""7185""
","
",,,,,,,,,,,,"[{""stimulus"":""run_exp/static/images/task_images/dig.jpg"",""time"":0.09999990463256836},{""stimulus"":""run_exp/static/images/task_images/land.jpg"",""time"":445.09999990463257},{""stimulus"":""run_exp/static/images/task_images/dig.jpg"",""time"":887.7999997138977}]",[],6,,,,,,,,,,,,,,
harvest,222,644457,0.0-71.0-1.0,"""event"",""trial"",""time""
""fullscreenenter"",""1"",""7185""
","
","
","""event"",""trial"",""time""
""fullscreenenter"",""1"",""7185""
","
",,null,run_exp/static/images/task_images/gems/8.jpg,null,,,,,,,7,,,6,,,,,8,0.813985817,0.875,,,,,,,
decision,223,645678,0.0-71.0-2.0,"""event"",""trial"",""time""
""fullscreenenter"",""1"",""7185""
","
","
","""event"",""trial"",""time""
""fullscreenenter"",""1"",""7185""
","
",,1218.5,run_exp/static/images/task_images/land.jpg,65,,,,,,,7,,,6,,,,,,,,274721,1,12,FALSE,,,
dig,224,647461,0.0-72.0-0.0,"""event"",""trial"",""time""
""fullscreenenter"",""1"",""7185""
","
","
","""event"",""trial"",""time""
""fullscreenenter"",""1"",""7185""
","
",,,,,,,,,,,,"[{""stimulus"":""run_exp/static/images/task_images/dig.jpg"",""time"":0.09999990463256836},{""stimulus"":""run_exp/static/images/task_images/land.jpg"",""time"":594.7999997138977},{""stimulus"":""run_exp/static/images/task_images/dig.jpg"",""time"":1187.7999997138977}]",[],6,,,,,,,,,,,,,,
harvest,225,648464,0.0-72.0-1.0,"""event"",""trial"",""time""
""fullscreenenter"",""1"",""7185""
","
","
","""event"",""trial"",""time""
""fullscreenenter"",""1"",""7185""
","
",,null,run_exp/static/images/task_images/gems/7.jpg,null,,,,,,,6,,,6,,,,,7,0.838642328,0.857142857,,,,,,,
decision,226,649140,0.0-72.0-2.0,"""event"",""trial"",""time""
""fullscreenenter"",""1"",""7185""
","
","
","""event"",""trial"",""time""
""fullscreenenter"",""1"",""7185""
","
",,673.5999999,run_exp/static/images/task_images/land.jpg,65,,,,,,,6,,,6,,,,,,,,278183,1,13,FALSE,,,
dig,227,651471,0.0-73.0-0.0,"""event"",""trial"",""time""
""fullscreenenter"",""1"",""7185""
","
","
","""event"",""trial"",""time""
""fullscreenenter"",""1"",""7185""
","
",,,,,,,,,,,,"[{""stimulus"":""run_exp/static/images/task_images/dig.jpg"",""time"":0.3000001907348633},{""stimulus"":""run_exp/static/images/task_images/land.jpg"",""time"":776.5},{""stimulus"":""run_exp/static/images/task_images/dig.jpg"",""time"":1551.5}]",[],6,,,,,,,,,,,,,,
harvest,228,652475,0.0-73.0-1.0,"""event"",""trial"",""time""
""fullscreenenter"",""1"",""7185""
","
","
","""event"",""trial"",""time""
""fullscreenenter"",""1"",""7185""
","
",,null,run_exp/static/images/task_images/gems/6.jpg,null,,,,,,,5,,,6,,,,,6,0.83492508,0.833333333,,,,,,,
decision,229,652846,0.0-73.0-2.0,"""event"",""trial"",""time""
""fullscreenenter"",""1"",""7185""
","
","
","""event"",""trial"",""time""
""fullscreenenter"",""1"",""7185""
","
",,368.6999998,run_exp/static/images/task_images/land.jpg,65,,,,,,,5,,,6,,,,,,,,281889,1,14,FALSE,,,
dig,230,655484,0.0-74.0-0.0,"""event"",""trial"",""time""
""fullscreenenter"",""1"",""7185""
","
","
","""event"",""trial"",""time""
""fullscreenenter"",""1"",""7185""
","
",,,,,,,,,,,,"[{""stimulus"":""run_exp/static/images/task_images/dig.jpg"",""time"":0.5999999046325684},{""stimulus"":""run_exp/static/images/task_images/land.jpg"",""time"":879.2000002861023},{""stimulus"":""run_exp/static/images/task_images/dig.jpg"",""time"":1756}]",[],6,,,,,,,,,,,,,,
harvest,231,656490,0.0-74.0-1.0,"""event"",""trial"",""time""
""fullscreenenter"",""1"",""7185""
","
","
","""event"",""trial"",""time""
""fullscreenenter"",""1"",""7185""
","
",,null,run_exp/static/images/task_images/gems/5.jpg,null,,,,,,,4,,,6,,,,,5,0.815270725,0.8,,,,,,,
decision,232,659044,0.0-74.0-2.0,"""event"",""trial"",""time""
""fullscreenenter"",""1"",""7185""
","
","
","""event"",""trial"",""time""
""fullscreenenter"",""1"",""7185""
","
",,2552.3,run_exp/static/images/task_images/land.jpg,65,,,,,,,4,,,6,,,,,,,,288087,1,15,FALSE,,,
dig,233,659495,0.0-75.0-0.0,"""event"",""trial"",""time""
""fullscreenenter"",""1"",""7185""
","
","
","""event"",""trial"",""time""
""fullscreenenter"",""1"",""7185""
","
",,,,,,,,,,,,"[{""stimulus"":""run_exp/static/images/task_images/dig.jpg"",""time"":0.20000028610229492},{""stimulus"":""run_exp/static/images/task_images/land.jpg"",""time"":150.59999990463257},{""stimulus"":""run_exp/static/images/task_images/dig.jpg"",""time"":299.5}]",[],6,,,,,,,,,,,,,,
harvest,234,660498,0.0-75.0-1.0,"""event"",""trial"",""time""
""fullscreenenter"",""1"",""7185""
","
","
","""event"",""trial"",""time""
""fullscreenenter"",""1"",""7185""
","
",,null,run_exp/static/images/task_images/gems/4.jpg,null,,,,,,,3,,,6,,,,,4,0.866832074,0.75,,,,,,,
decision,235,662665,0.0-75.0-2.0,"""event"",""trial"",""time""
""fullscreenenter"",""1"",""7185""
","
","
","""event"",""trial"",""time""
""fullscreenenter"",""1"",""7185""
","
",,2164.5,run_exp/static/images/task_images/land.jpg,65,,,,,,,3,,,6,,,,,,,,291709,1,16,FALSE,,,
dig,236,663505,0.0-76.0-0.0,"""event"",""trial"",""time""
""fullscreenenter"",""1"",""7185""
","
","
","""event"",""trial"",""time""
""fullscreenenter"",""1"",""7185""
","
",,,,,,,,,,,,"[{""stimulus"":""run_exp/static/images/task_images/dig.jpg"",""time"":0.40000009536743164},{""stimulus"":""run_exp/static/images/task_images/land.jpg"",""time"":280.19999980926514},{""stimulus"":""run_exp/static/images/task_images/dig.jpg"",""time"":558.0999999046326}]",[],6,,,,,,,,,,,,,,
harvest,237,664508,0.0-76.0-1.0,"""event"",""trial"",""time""
""fullscreenenter"",""1"",""7185""
","
","
","""event"",""trial"",""time""
""fullscreenenter"",""1"",""7185""
","
",,null,run_exp/static/images/task_images/gems/3.jpg,null,,,,,,,2,,,6,,,,,3,0.829921664,0.666666667,,,,,,,
decision,238,665143,0.0-76.0-2.0,"""event"",""trial"",""time""
""fullscreenenter"",""1"",""7185""
","
","
","""event"",""trial"",""time""
""fullscreenenter"",""1"",""7185""
","
",,632.1999998,run_exp/static/images/task_images/land.jpg,65,,,,,,,2,,,6,,,,,,,,294187,1,17,FALSE,,,
dig,239,667516,0.0-77.0-0.0,"""event"",""trial"",""time""
""fullscreenenter"",""1"",""7185""
","
","
","""event"",""trial"",""time""
""fullscreenenter"",""1"",""7185""
","
",,,,,,,,,,,,"[{""stimulus"":""run_exp/static/images/task_images/dig.jpg"",""time"":0.19999980926513672},{""stimulus"":""run_exp/static/images/task_images/land.jpg"",""time"":797},{""stimulus"":""run_exp/static/images/task_images/dig.jpg"",""time"":1580.4000000953674}]",[],6,,,,,,,,,,,,,,
harvest,240,668521,0.0-77.0-1.0,"""event"",""trial"",""time""
""fullscreenenter"",""1"",""7185""
","
","
","""event"",""trial"",""time""
""fullscreenenter"",""1"",""7185""
","
",,null,run_exp/static/images/task_images/gems/2.jpg,null,,,,,,,2,,,6,,,,,2,0.770482602,1,,,,,,,
decision,241,671524,0.0-77.0-2.0,"""event"",""trial"",""time""
""fullscreenenter"",""1"",""7185""
","
","
","""event"",""trial"",""time""
""fullscreenenter"",""1"",""7185""
","
",,null,run_exp/static/images/task_images/land.jpg,null,,,,,,,2,,,6,,,,,,,,300567,1,18,TRUE,,,
end_of_block_continue,242,680398,0.0-78.0-0.0,"""event"",""trial"",""time""
""fullscreenenter"",""1"",""7185""
","
","
","""event"",""trial"",""time""
""fullscreenenter"",""1"",""7185""
","
",,null,run_exp/static/audio/clip_32_block_end.m4a,,,,,,,null,,,,,,,,,,,,,,,,,,
alien_welcome,243,685400,0.0-79.0-0.0,"""event"",""trial"",""time""
""fullscreenenter"",""1"",""7185""
","
","
","""event"",""trial"",""time""
""fullscreenenter"",""1"",""7185""
","
",,null,run_exp/static/images/task_images/aliens/old_aliens/planet/alien_planet-26.jpg,null,,,,,,,,,,,,,26,"43,9,55,28,39,34,26,53,27,14,20,44,31,42,71,70,60,12,1,30,41,66,7,3,46,72,29,48,8,37,13,75,62,16,73,49",,,,,,,,,,
land,244,685905,0.0-79.0-1.0,"""event"",""trial"",""time""
""fullscreenenter"",""1"",""7185""
","
","
","""event"",""trial"",""time""
""fullscreenenter"",""1"",""7185""
","
",,null,run_exp/static/images/task_images/land.jpg,null,,,,,,,94,,,7,,,,,,,,,,,,,,
dig,245,687909,0.0-79.0-2.0,"""event"",""trial"",""time""
""fullscreenenter"",""1"",""7185""
","
","
","""event"",""trial"",""time""
""fullscreenenter"",""1"",""7185""
","
",,,,,,,,,,,,"[{""stimulus"":""run_exp/static/images/task_images/dig.jpg"",""time"":0.19999980926513672},{""stimulus"":""run_exp/static/images/task_images/land.jpg"",""time"":669.3000001907349},{""stimulus"":""run_exp/static/images/task_images/dig.jpg"",""time"":1338.1999998092651}]",[],7,,,,,,,,,,,,,,
harvest,246,688913,0.0-79.0-3.0,"""event"",""trial"",""time""
""fullscreenenter"",""1"",""7185""
","
","
","""event"",""trial"",""time""
""fullscreenenter"",""1"",""7185""
","
",,null,run_exp/static/images/task_images/gems/94.jpg,null,,,,,,,18,,,7,,,,,94,0.190404938,0.191489362,,,,,,,
decision,247,689272,0.0-79.0-4.0,"""event"",""trial"",""time""
""fullscreenenter"",""1"",""7185""
","
","
","""event"",""trial"",""time""
""fullscreenenter"",""1"",""7185""
","
",,355.6999998,run_exp/static/images/task_images/land.jpg,65,,,,,,,18,,,7,,,,,,,,8873,2,0,FALSE,,,
dig,248,691920,0.0-80.0-0.0,"""event"",""trial"",""time""
""fullscreenenter"",""1"",""7185""
","
","
","""event"",""trial"",""time""
""fullscreenenter"",""1"",""7185""
","
",,,,,,,,,,,,"[{""stimulus"":""run_exp/static/images/task_images/dig.jpg"",""time"":0.2999997138977051},{""stimulus"":""run_exp/static/images/task_images/land.jpg"",""time"":882.5},{""stimulus"":""run_exp/static/images/task_images/dig.jpg"",""time"":1764}]",[],7,,,,,,,,,,,,,,
harvest,249,692923,0.0-80.0-1.0,"""event"",""trial"",""time""
""fullscreenenter"",""1"",""7185""
","
","
","""event"",""trial"",""time""
""fullscreenenter"",""1"",""7185""
","
",,null,run_exp/static/images/task_images/gems/18.jpg,null,,,,,,,2,,,7,,,,,18,0.121545551,0.111111111,,,,,,,
decision,250,695926,0.0-80.0-2.0,"""event"",""trial"",""time""
""fullscreenenter"",""1"",""7185""
","
","
","""event"",""trial"",""time""
""fullscreenenter"",""1"",""7185""
","
",,null,run_exp/static/images/task_images/land.jpg,null,,,,,,,2,,,7,,,,,,,,15527,2,1,FALSE,,,
time_out,251,697933,0.0-81.0-0.0,"""event"",""trial"",""time""
""fullscreenenter"",""1"",""7185""
","
","
","""event"",""trial"",""time""
""fullscreenenter"",""1"",""7185""
","
",,null,run_exp/static/images/task_images/time_out.jpg,null,,,,,,,2,,,,,,,,,,,,,,,,,
decision,252,698612,0.0-81.0-1.0,"""event"",""trial"",""time""
""fullscreenenter"",""1"",""7185""
","
","
","""event"",""trial"",""time""
""fullscreenenter"",""1"",""7185""
","
",,676.4000001,run_exp/static/images/task_images/land.jpg,65,,,,,,,2,,,7,,,,,,,,18213,2,1,FALSE,,,
dig,253,700939,0.0-82.0-0.0,"""event"",""trial"",""time""
""fullscreenenter"",""1"",""7185""
","
","
","""event"",""trial"",""time""
""fullscreenenter"",""1"",""7185""
","
",,,,,,,,,,,,"[{""stimulus"":""run_exp/static/images/task_images/dig.jpg"",""time"":0.2999997138977051},{""stimulus"":""run_exp/static/images/task_images/land.jpg"",""time"":776},{""stimulus"":""run_exp/static/images/task_images/dig.jpg"",""time"":1549.8999996185303}]",[],7,,,,,,,,,,,,,,
harvest,254,701942,0.0-82.0-1.0,"""event"",""trial"",""time""
""fullscreenenter"",""1"",""7185""
","
","
","""event"",""trial"",""time""
""fullscreenenter"",""1"",""7185""
","
",,null,run_exp/static/images/task_images/gems/2.jpg,null,,,,,,,0,,,7,,,,,2,0.162211509,0,,,,,,,
decision,255,702353,0.0-82.0-2.0,"""event"",""trial"",""time""
""fullscreenenter"",""1"",""7185""
","
","
","""event"",""trial"",""time""
""fullscreenenter"",""1"",""7185""
","
",,408.9000001,run_exp/static/images/task_images/land.jpg,65,,,,,,,0,,,7,,,,,,,,21954,2,2,FALSE,,,
dig,256,704948,0.0-83.0-0.0,"""event"",""trial"",""time""
""fullscreenenter"",""1"",""7185""
","
","
","""event"",""trial"",""time""
""fullscreenenter"",""1"",""7185""
","
",,,,,,,,,,,,"[{""stimulus"":""run_exp/static/images/task_images/dig.jpg"",""time"":0.20000028610229492},{""stimulus"":""run_exp/static/images/task_images/land.jpg"",""time"":864.7000002861023},{""stimulus"":""run_exp/static/images/task_images/dig.jpg"",""time"":1727.5999999046326}]",[],7,,,,,,,,,,,,,,
harvest,257,705952,0.0-83.0-1.0,"""event"",""trial"",""time""
""fullscreenenter"",""1"",""7185""
","
","
","""event"",""trial"",""time""
""fullscreenenter"",""1"",""7185""
","
",,null,run_exp/static/images/task_images/gems/0.jpg,null,,,,,,,0,,,7,,,,,0,0.170349138,NaN,,,,,,,
decision,258,708893,0.0-83.0-2.0,"""event"",""trial"",""time""
""fullscreenenter"",""1"",""7185""
","
","
