trial_type,trial_index,time_elapsed,internal_node_id,success,rt,stimulus,key_press,prompt,subject_id,age,gender,button_pressed,next_reward,animation_sequence,responses,planet,curr_prac_trial,n_prac_rounds,alien,aliens,reward_received,decay_rate_actual,decay_rate_exp,time_in_block,block_num,prt,last_trial_on_planet,button_html,bonus,num_failures
pavlovia,0,6,0.0-0.0,,,,,,,,,,,,,,,,,,,,,,,,,,,
fullscreen,1,22138,0.0-1.0,TRUE,,,,,,,,,,,,,,,,,,,,,,,,,,
instruc_welcome,2,32675,0.0-2.0,,null,run_exp/static/audio/clip_1_welcome.m4a,null,"<p>Howdy! In this experiment, you’ll be an explorer traveling through space to collect space treasure.</p><p>Your mission is to collect as much treasure as possible.</p><br><br><p><img src='run_exp/static/images/task_images/opening_img-01.jpg' height='300' width='auto'></p>",qg0xa3LZw5abJIK_1Y3uCvx5VSxv8Zo_MLRP_0NV0cjY4ix7DQrA,13.31,female,,,,,,,,,,,,,,,,,,,
audio-keyboard-response,3,49274,0.0-3.0,,null,run_exp/static/audio/clip_2_move.m4a,null,,,,,,,,,,,,,,,,,,,,,,,
welcome_dec,4,55979,0.0-4.0,,6699,"<p>Howdy! In this experiment, you’ll be an explorer traveling through space to collect space treasure.</p><p>Your mission is to collect as much treasure as possible.</p><br><br><p><img src='run_exp/static/images/task_images/opening_img-01.jpg' height='300' width='auto'></p>",,,,,,1,,,,,,,,,,,,,,,,,,
html-keyboard-response,5,57237,0.0-5.0,,1255.4,"<p>Howdy! In this experiment, you’ll be an explorer traveling through space to collect space treasure.</p><p>Your mission is to collect as much treasure as possible.</p><br><br><p><img src='run_exp/static/images/task_images/opening_img-01.jpg' height='300' width='auto'></p><button class=""jspsych-html-btn-unchosen""><img src=""run_exp/static/images/task_images/planet-01.jpg"" height=""50""></button><button class=""jspsych-html-btn-chosen""><img src=""run_exp/static/images/task_images/planet-02.jpg"" height=""50""></button><p><b>[press the space bar to lock in your answer]<b><br></p>",32,,,,,,,,,,,,,,,,,,,,,,,
instruc_goal,6,67292,0.0-6.0-0.0,,null,run_exp/static/audio/clip_3_goal.m4a,null,"<p> As a space explorer, you’ll visit different planets to dig for space treasure, these pink gems.</p> <p> The more treasure you dig up, the more bonus money you’ll win! </p><br><br><p><img src='run_exp/static/images/task_images/pink_gem.jpg' height='300' width='auto'></p>",,,,,,,,,,,,,,,,,,,,,,
instruc_goal,7,69234,0.0-6.0-1.0,,1938.8,"<p> As a space explorer, you’ll visit different planets to dig for space treasure, these pink gems.</p> <p> The more treasure you dig up, the more bonus money you’ll win! </p><br><br><p><img src='run_exp/static/images/task_images/pink_gem.jpg' height='300' width='auto'></p>",,,,,,1,,,,,,,,,,,,,,,,,,
html-keyboard-response,8,69753,0.0-6.0-2.0,,517.7,"<p> As a space explorer, you’ll visit different planets to dig for space treasure, these pink gems.</p> <p> The more treasure you dig up, the more bonus money you’ll win! </p><br><br><p><img src='run_exp/static/images/task_images/pink_gem.jpg' height='300' width='auto'></p><button class=""jspsych-html-btn-unchosen""><img src=""run_exp/static/images/task_images/planet-01.jpg"" height=""50""></button><button class=""jspsych-html-btn-chosen""><img src=""run_exp/static/images/task_images/planet-02.jpg"" height=""50""></button><p><b>[press the space bar to lock in your answer]<b><br></p>",32,,,,,,,,,,,,,,,,,,,,,,,
instruc_dig,9,85753,0.0-7.0-0.0,,null,run_exp/static/audio/clip_4_dig.m4a,null,,,,,,100,,,,,,,,,,,,,,,,,
instruc_dig_try,10,86682,0.0-7.0-1.0,,927.7,"<p> When you’ve arrived at a new planet, you will dig once. </p> <p>Then, you get to decide if you want to stay on the planet and dig again or travel to a new planet and dig there.</p> <p> To stay and dig, press the letter <strong>‘A’</strong> on your keyboard. Try pressing it now! </p><p><img src='run_exp/static/images/task_images/land.jpg'  height='700' width='auto'></p>",65,"<p> When you’ve arrived at a new planet, you will dig once. </p> <p>Then, you get to decide if you want to stay on the planet and dig again or travel to a new planet and dig there.</p> <p> To stay and dig, press the letter <strong>‘A’</strong> on your keyboard. Try pressing it now! </p><p><img src='run_exp/static/images/task_images/land.jpg'  height='700' width='auto'></p>",,,,,100,,,,,,,,,,,,,,,,,
dig_prac,11,88732,0.0-7.0-2.0,,,,,,,,,,,"[{""stimulus"":""run_exp/static/images/task_images/dig.jpg"",""time"":0.29999999701976776},{""stimulus"":""run_exp/static/images/task_images/land.jpg"",""time"":669.7999999970198},{""stimulus"":""run_exp/static/images/task_images/dig.jpg"",""time"":1336}]",[],,,,,,,,,,,,,,,
instruc_travel,12,124972,0.0-7.0-3.0,,null,run_exp/static/audio/clip_5_travel.m4a,null,"<p>Every time you dig up gems, there are less gems on the planet, so the more you dig on a planet the fewer gems you’ll get with each dig.</p><p>When gems are running low, you may want to travel to a new planet. </p> <p>  Planets are very far apart in this galaxy, so it will take some time to travel between them. </p> <br><p>There are lots and lots of planets for you to visit, so you won’t be able to return to any planets you’ve seen before. </p><br><p>To leave this planet and travel to a new one, press the letter <strong>‘L’</strong> on your keyboard. Try pressing it now! </p><p><img src='run_exp/static/images/task_images/rocket-01.jpg'  height='600' width='auto'></p>",,,,,,,,,,,,,,,,,,,,,,
instruc_travel_try,13,125873,0.0-7.0-4.0,,899,"<p>Every time you dig up gems, there are less gems on the planet, so the more you dig on a planet the fewer gems you’ll get with each dig.</p><p>When gems are running low, you may want to travel to a new planet. </p> <p>  Planets are very far apart in this galaxy, so it will take some time to travel between them. </p> <br><p>There are lots and lots of planets for you to visit, so you won’t be able to return to any planets you’ve seen before. </p><br><p>To leave this planet and travel to a new one, press the letter <strong>‘L’</strong> on your keyboard. Try pressing it now! </p><p><img src='run_exp/static/images/task_images/rocket-01.jpg'  height='600' width='auto'></p>",76,"<p>Every time you dig up gems, there are less gems on the planet, so the more you dig on a planet the fewer gems you’ll get with each dig.</p><p>When gems are running low, you may want to travel to a new planet. </p> <p>  Planets are very far apart in this galaxy, so it will take some time to travel between them. </p> <br><p>There are lots and lots of planets for you to visit, so you won’t be able to return to any planets you’ve seen before. </p><br><p>To leave this planet and travel to a new one, press the letter <strong>‘L’</strong> on your keyboard. Try pressing it now! </p><p><img src='run_exp/static/images/task_images/rocket-01.jpg'  height='600' width='auto'></p>",,,,,,,,,,,,,,,,,,,,,,
travel_prac,14,135891,0.0-7.0-5.0,,,,,,,,,,,"[{""stimulus"":""run_exp/static/images/task_images/rocket-01.jpg"",""time"":0.5},{""stimulus"":""run_exp/static/images/task_images/rocket-02.jpg"",""time"":1112.4000000059605},{""stimulus"":""run_exp/static/images/task_images/rocket-03.jpg"",""time"":2223.1000000089407},{""stimulus"":""run_exp/static/images/task_images/rocket-04.jpg"",""time"":3335.5},{""stimulus"":""run_exp/static/images/task_images/rocket-05.jpg"",""time"":4454},{""stimulus"":""run_exp/static/images/task_images/rocket-06.jpg"",""time"":5565.20000000298},{""stimulus"":""run_exp/static/images/task_images/rocket-07.jpg"",""time"":6675},{""stimulus"":""run_exp/static/images/task_images/rocket-08.jpg"",""time"":7795.20000000298},{""stimulus"":""run_exp/static/images/task_images/rocket-09.jpg"",""time"":8904.20000000298}]",[],0,,,,,,,,,,,,,,
instruc_alien_greet,15,163074,0.0-7.0-6.0,,null,run_exp/static/audio/clip_6_alien.m4a,null,"<p>When you arrive at a new planet, the alien who owns the treasure mine on that planet will greet you!</p><p>The better an alien takes care of their mine the easier it is to dig for gems. Some aliens take better care of their mine than others. So, you won’t get exactly the same amount of gems on each planet.</p><p>What the alien looks like does not tell you anything about how many gems there are on the planet.</p><br><p><img src=""run_exp/static/images/task_images/aliens/instructions_aliens/planet/alien_planet-1.jpg""  height=""600"" width=""auto""></p>",,,,,,,,,,,,,,,,,,,,,,
instruc_alien_greet,16,166914,0.0-7.0-7.0,,3834.7,"<p>When you arrive at a new planet, the alien who owns the treasure mine on that planet will greet you!</p><p>The better an alien takes care of their mine the easier it is to dig for gems. Some aliens take better care of their mine than others. So, you won’t get exactly the same amount of gems on each planet.</p><p>What the alien looks like does not tell you anything about how many gems there are on the planet.</p><br><p><img src=""run_exp/static/images/task_images/aliens/instructions_aliens/planet/alien_planet-1.jpg""  height=""600"" width=""auto""></p>",,,,,,1,,,,,,,,,,,,,,,,,,
html-keyboard-response,17,167885,0.0-7.0-8.0,,969.1,"<p>When you arrive at a new planet, the alien who owns the treasure mine on that planet will greet you!</p><p>The better an alien takes care of their mine the easier it is to dig for gems. Some aliens take better care of their mine than others. So, you won’t get exactly the same amount of gems on each planet.</p><p>What the alien looks like does not tell you anything about how many gems there are on the planet.</p><br><p><img src=""run_exp/static/images/task_images/aliens/instructions_aliens/planet/alien_planet-1.jpg""  height=""600"" width=""auto""></p><button class=""jspsych-html-btn-unchosen""><img src=""run_exp/static/images/task_images/planet-01.jpg"" height=""50""></button><button class=""jspsych-html-btn-chosen""><img src=""run_exp/static/images/task_images/planet-02.jpg"" height=""50""></button><p><b>[press the space bar to lock in your answer]<b><br></p>",32,,,,,,,,,,,,,,,,,,,,,,,
time_out,18,178974,0.0-8.0-0.0,,null,run_exp/static/audio/clip_7_timeout.m4a,null,"<p>If you don't make your choice fast enough, you’ll have to wait a few seconds before you can make another one.</p><p>You can’t dig for more gems or travel to new planets. You just have to sit and wait.</p><br><p><img src='run_exp/static/images/task_images/time_out.jpg'  height='600' width='auto'></p>",,,,,,,,,,,,,,,,,,,,,,
time_out,19,181690,0.0-8.0-1.0,,2711.5,"<p>If you don't make your choice fast enough, you’ll have to wait a few seconds before you can make another one.</p><p>You can’t dig for more gems or travel to new planets. You just have to sit and wait.</p><br><p><img src='run_exp/static/images/task_images/time_out.jpg'  height='600' width='auto'></p>",,,,,,1,,,,,,,,,,,,,,,,,,
html-keyboard-response,20,182677,0.0-8.0-2.0,,984.5,"<p>If you don't make your choice fast enough, you’ll have to wait a few seconds before you can make another one.</p><p>You can’t dig for more gems or travel to new planets. You just have to sit and wait.</p><br><p><img src='run_exp/static/images/task_images/time_out.jpg'  height='600' width='auto'></p><button class=""jspsych-html-btn-unchosen""><img src=""run_exp/static/images/task_images/planet-01.jpg"" height=""50""></button><button class=""jspsych-html-btn-chosen""><img src=""run_exp/static/images/task_images/planet-02.jpg"" height=""50""></button><p><b>[press the space bar to lock in your answer]<b><br></p>",32,,,,,,,,,,,,,,,,,,,,,,,
instruc_break,21,198331,0.0-9.0-0.0,,null,run_exp/static/audio/clip_8_break.m4a,null,"<p> After digging and traveling for a while, you’ll be able to take a break at home base. </p><p>The game will last 20 minutes no matter what.</p><p>You will visit home base every 5 minutes, so, you will visit home base three times during the game.</p><br><p><img src='run_exp/static/images/task_images/home_base.jpg' height='600' width='auto'></p>",,,,,,,,,,,,,,,,,,,,,,
instruc_break,22,200616,0.0-9.0-1.0,,2282.9,"<p> After digging and traveling for a while, you’ll be able to take a break at home base. </p><p>The game will last 20 minutes no matter what.</p><p>You will visit home base every 5 minutes, so, you will visit home base three times during the game.</p><br><p><img src='run_exp/static/images/task_images/home_base.jpg' height='600' width='auto'></p>",,,,,,1,,,,,,,,,,,,,,,,,,
html-keyboard-response,23,202070,0.0-9.0-2.0,,1451.9,"<p> After digging and traveling for a while, you’ll be able to take a break at home base. </p><p>The game will last 20 minutes no matter what.</p><p>You will visit home base every 5 minutes, so, you will visit home base three times during the game.</p><br><p><img src='run_exp/static/images/task_images/home_base.jpg' height='600' width='auto'></p><button class=""jspsych-html-btn-unchosen""><img src=""run_exp/static/images/task_images/planet-01.jpg"" height=""50""></button><button class=""jspsych-html-btn-chosen""><img src=""run_exp/static/images/task_images/planet-02.jpg"" height=""50""></button><p><b>[press the space bar to lock in your answer]<b><br></p>",32,,,,,,,,,,,,,,,,,,,,,,,
instruc_prac_game,24,212192,0.0-10.0-0.0,,null,run_exp/static/audio/clip_9_practice.m4a,null,"<p> Are you ready to play a practice game? </p> <p>In this practice game, you'll be digging up barrels of gems. But, in the real game, you'll be digging up the gems themselves. </p>",,,,,,,,,,,,,,,,,,,,,,
html-button-response,25,213592,0.0-10.0-1.0,,1396.6,"<p> Are you ready to play a practice game? </p> <p>In this practice game, you'll be digging up barrels of gems. But, in the real game, you'll be digging up the gems themselves. </p>",,,,,,0,,,,,,,,,,,,,,,,,,
alien_welcome_prac,26,218620,0.0-11.0-0.0,,null,run_exp/static/images/task_images/aliens/practice_aliens/planet/alien_planet-5.jpg,null,,,,,,,,,,,,,,,,,,,,,,,
land_prac,27,219123,0.0-11.0-1.0,,null,run_exp/static/images/task_images/land.jpg,null,,,,,,102,,,0,,,,,,,,,,,,,,
dig_prac,28,221150,0.0-11.0-2.0,,,,,,,,,,,"[{""stimulus"":""run_exp/static/images/task_images/dig.jpg"",""time"":0.7000000029802322},{""stimulus"":""run_exp/static/images/task_images/land.jpg"",""time"":679.5},{""stimulus"":""run_exp/static/images/task_images/dig.jpg"",""time"":1346.4000000059605}]",[],,,,,,,,,,,,,,,
harvest_prac,29,222170,0.0-11.0-3.0,,null,run_exp/static/images/task_images/barrel_text.jpg,null,,,,,,,,,,,,,,,,,,,,,,,
decision_prac,30,223842,0.0-11.0-4.0,,1669.2,run_exp/static/images/task_images/land.jpg,65,,,,,,,,,,1,,,,,,,,,,,,,
dig_prac,31,225859,0.0-12.0-0.0,,,,,,,,,,,"[{""stimulus"":""run_exp/static/images/task_images/dig.jpg"",""time"":0.6000000089406967},{""stimulus"":""run_exp/static/images/task_images/land.jpg"",""time"":677.5},{""stimulus"":""run_exp/static/images/task_images/dig.jpg"",""time"":1340.4000000059605}]",[],,,,,,,,,,,,,,,
harvest_prac,32,226880,0.0-12.0-1.0,,null,run_exp/static/images/task_images/barrel_text.jpg,null,,,,,,,,,,,,,,,,,,,,,,,
decision_prac,33,227319,0.0-12.0-2.0,,435.7,run_exp/static/images/task_images/land.jpg,65,,,,,,,,,,2,,,,,,,,,,,,,
dig_prac,34,229329,0.0-13.0-0.0,,,,,,,,,,,"[{""stimulus"":""run_exp/static/images/task_images/dig.jpg"",""time"":0.10000000894069672},{""stimulus"":""run_exp/static/images/task_images/land.jpg"",""time"":684.8000000119209},{""stimulus"":""run_exp/static/images/task_images/dig.jpg"",""time"":1344.2000000029802}]",[],,,,,,,,,,,,,,,
harvest_prac,35,230339,0.0-13.0-1.0,,null,run_exp/static/images/task_images/barrel_text.jpg,null,,,,,,,,,,,,,,,,,,,,,,,
decision_prac,36,230894,0.0-13.0-2.0,,550.9,run_exp/static/images/task_images/land.jpg,65,,,,,,,,,,3,,,,,,,,,,,,,
dig_prac,37,232909,0.0-14.0-0.0,,,,,,,,,,,"[{""stimulus"":""run_exp/static/images/task_images/dig.jpg"",""time"":0.20000000298023224},{""stimulus"":""run_exp/static/images/task_images/land.jpg"",""time"":669.4000000059605},{""stimulus"":""run_exp/static/images/task_images/dig.jpg"",""time"":1360.4000000059605}]",[],,,,,,,,,,,,,,,
harvest_prac,38,233919,0.0-14.0-1.0,,null,run_exp/static/images/task_images/barrel_text.jpg,null,,,,,,,,,,,,,,,,,,,,,,,
decision_prac,39,234587,0.0-14.0-2.0,,667.6,run_exp/static/images/task_images/land.jpg,65,,,,,,,,,,4,,,,,,,,,,,,,
dig_prac,40,236609,0.0-15.0-0.0,,,,,,,,,,,"[{""stimulus"":""run_exp/static/images/task_images/dig.jpg"",""time"":0.09999999403953552},{""stimulus"":""run_exp/static/images/task_images/land.jpg"",""time"":686.9000000059605},{""stimulus"":""run_exp/static/images/task_images/dig.jpg"",""time"":1346.9000000059605}]",[],,,,,,,,,,,,,,,
harvest_prac,41,237619,0.0-15.0-1.0,,null,run_exp/static/images/task_images/barrel_text.jpg,null,,,,,,,,,,,,,,,,,,,,,,,
decision_prac,42,238045,0.0-15.0-2.0,,424.8,run_exp/static/images/task_images/land.jpg,65,,,,,,,,,,,1,,,,,,,,,,,,
quiz_instruc,43,244041,0.0-16.0-0.0,,5990.1,run_exp/static/audio/clip_10_quiz.m4a,,,,,,0,,,,,,,,,,,,,,,,,,
instruc_repeat,44,286803,0.0-16.0-1.0,,null,"<p> Are you ready to play a practice game? </p> <p>In this practice game, you'll be digging up barrels of gems. But, in the real game, you'll be digging up the gems themselves. </p>",null,"<p>In this game, your goal is to collect as many gems as you can. That’s how you will win bonus money. </p> <p>The entire game will last 20 minutes no matter how many gems you collect or how many planets you visit. </p><p>To stay on a planet and dig again, press the letter A on your keyboard. To leave for a new planet, press the letter L.</p><p>The more you dig on a planet, the fewer gems you’ll get with each dig which is why you might consider leaving for a new planet. </p><p>When you arrive at a new planet, you’ll be greeted by an alien. What the alien looks like does not tell you anything about how much treasure is on the planet. </p>",,,,,,,,,,,,,,,,,,,,,,
instruc_repeat_continue,45,287834,0.0-16.0-2.0,,1030.1,"<p> Are you ready to play a practice game? </p> <p>In this practice game, you'll be digging up barrels of gems. But, in the real game, you'll be digging up the gems themselves. </p>",,,,,,0,,,,,,,,,,,,,,,,,,
quiz_q_1_ask,46,292043,0.0-16.0-3.0,,4206.7,run_exp/static/audio/clip_11_q1_ask.m4a,,,,,,2,,,,,,,,,,,,,,,,,,
quiz_q_1_fb_correct,47,295885,0.0-17.0-0.0,,null,run_exp/static/audio/clip_12_q1_corrrect.m4a,null,<p>That’s correct. You win extra money by collecting more gems.</p>,,,,,,,,,,,,,,,,,,,,,,
quiz_q_2_ask,48,298586,0.0-17.0-1.0,,2699.1,run_exp/static/audio/clip_14_q2_ask.m4a,,,,,,1,,,,,,,,,,,,,,,,,,
quiz_q_2_fb_correct,49,302585,0.0-18.0-0.0,,null,run_exp/static/audio/clip_15_q2_correct.m4a,null,<p>That’s correct. The experiment is 20 minutes no matter what.</p>,,,,,,,,,,,,,,,,,,,,,,
quiz_q_3_ask,50,305602,0.0-18.0-1.0,,3015,run_exp/static/audio/clip_17_q3_ask.m4a,,,,,,1,,,,,,,,,,,,,,,,,,
quiz_q_3_fb_correct,51,309584,0.0-19.0-0.0,,null,run_exp/static/audio/clip_18_q3_correct.m4a,null,<p> That’s correct. You press the letter L to travel to a new planet.</p>,,,,,,,,,,,,,,,,,,,,,,
quiz_q_4_ask,52,313450,0.0-19.0-1.0,,3863.3,run_exp/static/audio/clip_20_q4_ask.m4a,,,,,,0,,,,,,,,,,,,,,,,,,
quiz_q_4_fb_correct,53,318761,0.0-20.0-0.0,,null,run_exp/static/audio/clip_21_q4_correct.m4a,null,<p> That’s correct. The more you dig on a planet the fewer gems you’ll get with each dig. </p>,,,,,,,,,,,,,,,,,,,,,,
quiz_q_5_ask,54,322391,0.0-20.0-1.0,,3627.1,run_exp/static/audio/clip_23_q5_ask.m4a,,,,,,1,,,,,,,,,,,,,,,,,,
quiz_q_5_fb_correct,55,327399,0.0-21.0-0.0,,null,run_exp/static/audio/clip_24_q5_correct.m4a,null,<p> That’s correct. The alien tells you nothing about how much treasure is on the planet.</p>,,,,,,,,,,,,,,,,,,,,,,
quiz_correct,56,330861,0.0-22.0-0.0,,null,run_exp/static/audio/clip_26_correct_quiz.m4a,null,,,,,,,,,,,,,,,,,,,,,,,
quiz_correct_continue,57,331896,0.0-22.0-1.0,,1031.9,<p>Good job! You're now ready to move on to the real game!</p>,,,,,,0,,,,,,,,,,,,,,,,,,
audio-keyboard-response,58,342019,0.0-22.0-2.0,,null,run_exp/static/audio/clip_28_real_game.m4a,null,,,,,,,,,,,,,,,,,,,,,,,
instruc_begin_exp_contine,59,343695,0.0-22.0-3.0,,1674.7,"<p>Now that you know how  to dig for space treasure and travel to new planets,you can start exploring! </p><p>Do you want to go over the instructions again or get started with the real game?</p>",,,,,,1,,,,,,1,,,,,,,,,,,,
alien_welcome,60,348718,0.0-23.0-0.0,,null,run_exp/static/images/task_images/aliens/old_aliens/planet/alien_planet-25.jpg,null,,,,,,,,,,,,25,"25,32,18,39,22,73,13,67,75,45,42,71,74,55,78,64,24,72,19,38,30,37,50,49,79,2,51,58,27,9,34,21,36,80,23,43,1,15",,,,,,,,,,
land,61,349238,0.0-23.0-1.0,,null,run_exp/static/images/task_images/land.jpg,null,,,,,,92,,,1,,,,,,,,,,,,,,
dig,62,351257,0.0-23.0-2.0,,,,,,,,,,,"[{""stimulus"":""run_exp/static/images/task_images/dig.jpg"",""time"":0.20000000298023224},{""stimulus"":""run_exp/static/images/task_images/land.jpg"",""time"":676.7999999970198},{""stimulus"":""run_exp/static/images/task_images/dig.jpg"",""time"":1346.7000000029802}]",[],1,,,,,,,,,,,,,,
harvest,63,352263,0.0-23.0-3.0,,null,run_exp/static/images/task_images/gems/92.jpg,null,,,,,,22,,,1,,,,,92,0.235130263,0.239130435,,,,,,,
decision,64,352866,0.0-23.0-4.0,,599.2,run_exp/static/images/task_images/land.jpg,65,,,,,,22,,,1,,,,,,,,9169,1,0,FALSE,,,
dig,65,355278,0.0-24.0-0.0,,,,,,,,,,,"[{""stimulus"":""run_exp/static/images/task_images/dig.jpg"",""time"":0.09999999403953552},{""stimulus"":""run_exp/static/images/task_images/land.jpg"",""time"":806},{""stimulus"":""run_exp/static/images/task_images/dig.jpg"",""time"":1615.5999999940395}]",[],1,,,,,,,,,,,,,,
harvest,66,356288,0.0-24.0-1.0,,null,run_exp/static/images/task_images/gems/22.jpg,null,,,,,,5,,,1,,,,,22,0.240817643,0.227272727,,,,,,,
decision,67,357063,0.0-24.0-2.0,,773.1,run_exp/static/images/task_images/land.jpg,76,,,,,,5,,,1,,,,,,,,13367,1,1,TRUE,,,
travel,68,366308,0.0-25.0-0.0,,,,,,,,,,,"[{""stimulus"":""run_exp/static/images/task_images/rocket-01.jpg"",""time"":0.20000000298023224},{""stimulus"":""run_exp/static/images/task_images/rocket-02.jpg"",""time"":1039.2999999970198},{""stimulus"":""run_exp/static/images/task_images/rocket-03.jpg"",""time"":2059.5},{""stimulus"":""run_exp/static/images/task_images/rocket-04.jpg"",""time"":3079},{""stimulus"":""run_exp/static/images/task_images/rocket-05.jpg"",""time"":4119.20000000298},{""stimulus"":""run_exp/static/images/task_images/rocket-06.jpg"",""time"":5128.9000000059605},{""stimulus"":""run_exp/static/images/task_images/rocket-07.jpg"",""time"":6169.29999999702},{""stimulus"":""run_exp/static/images/task_images/rocket-08.jpg"",""time"":7189.29999999702},{""stimulus"":""run_exp/static/images/task_images/rocket-09.jpg"",""time"":8219.29999999702}]",[],1,,,,,,,,,,,,,,
alien_welcome,69,371328,0.0-25.0-1.0,,null,run_exp/static/images/task_images/aliens/old_aliens/planet/alien_planet-32.jpg,null,,,,,,,,,,,,32,"25,32,18,39,22,73,13,67,75,45,42,71,74,55,78,64,24,72,19,38,30,37,50,49,79,2,51,58,27,9,34,21,36,80,23,43,1,15",,,,,,,,,,
land,70,371847,0.0-25.0-2.0,,null,run_exp/static/images/task_images/land.jpg,null,,,,,,102,,,2,,,,,,,,,,,,,,
dig,71,373858,0.0-25.0-3.0,,,,,,,,,,,"[{""stimulus"":""run_exp/static/images/task_images/dig.jpg"",""time"":0.20000000298023224},{""stimulus"":""run_exp/static/images/task_images/land.jpg"",""time"":669.1000000089407},{""stimulus"":""run_exp/static/images/task_images/dig.jpg"",""time"":1339.7000000029802}]",[],2,,,,,,,,,,,,,,
harvest,72,374878,0.0-25.0-4.0,,null,run_exp/static/images/task_images/gems/102.jpg,null,,,,,,22,,,2,,,,,102,0.211848065,0.215686275,,,,,,,
decision,73,375397,0.0-25.0-5.0,,516.7,run_exp/static/images/task_images/land.jpg,65,,,,,,22,,,2,,,,,,,,31700,1,0,FALSE,,,
dig,74,377898,0.0-26.0-0.0,,,,,,,,,,,"[{""stimulus"":""run_exp/static/images/task_images/dig.jpg"",""time"":0.09999999403953552},{""stimulus"":""run_exp/static/images/task_images/land.jpg"",""time"":835.5999999940395},{""stimulus"":""run_exp/static/images/task_images/dig.jpg"",""time"":1675.7999999970198}]",[],2,,,,,,,,,,,,,,
harvest,75,378921,0.0-26.0-1.0,,null,run_exp/static/images/task_images/gems/22.jpg,null,,,,,,3,,,2,,,,,22,0.148507608,0.136363636,,,,,,,
decision,76,379309,0.0-26.0-2.0,,387,run_exp/static/images/task_images/land.jpg,65,,,,,,3,,,2,,,,,,,,35612,1,1,FALSE,,,
dig,77,381941,0.0-27.0-0.0,,,,,,,,,,,"[{""stimulus"":""run_exp/static/images/task_images/dig.jpg"",""time"":0.20000000298023224},{""stimulus"":""run_exp/static/images/task_images/land.jpg"",""time"":889.2000000029802},{""stimulus"":""run_exp/static/images/task_images/dig.jpg"",""time"":1759.800000011921}]",[],2,,,,,,,,,,,,,,
harvest,78,382945,0.0-27.0-1.0,,null,run_exp/static/images/task_images/gems/3.jpg,null,,,,,,0,,,2,,,,,3,0.164100522,0,,,,,,,
decision,79,383919,0.0-27.0-2.0,,971.8,run_exp/static/images/task_images/land.jpg,76,,,,,,0,,,2,,,,,,,,40222,1,2,TRUE,,,
travel,80,392971,0.0-28.0-0.0,,,,,,,,,,,"[{""stimulus"":""run_exp/static/images/task_images/rocket-01.jpg"",""time"":0.09999999403953552},{""stimulus"":""run_exp/static/images/task_images/rocket-02.jpg"",""time"":1017.5999999940395},{""stimulus"":""run_exp/static/images/task_images/rocket-03.jpg"",""time"":2016},{""stimulus"":""run_exp/static/images/task_images/rocket-04.jpg"",""time"":3027},{""stimulus"":""run_exp/static/images/task_images/rocket-05.jpg"",""time"":4036.8999999910593},{""stimulus"":""run_exp/static/images/task_images/rocket-06.jpg"",""time"":5037.0999999940395},{""stimulus"":""run_exp/static/images/task_images/rocket-07.jpg"",""time"":6027},{""stimulus"":""run_exp/static/images/task_images/rocket-08.jpg"",""time"":7037.0999999940395},{""stimulus"":""run_exp/static/images/task_images/rocket-09.jpg"",""time"":8037}]",[],2,,,,,,,,,,,,,,
alien_welcome,81,397991,0.0-28.0-1.0,,null,run_exp/static/images/task_images/aliens/old_aliens/planet/alien_planet-18.jpg,null,,,,,,,,,,,,18,"25,32,18,39,22,73,13,67,75,45,42,71,74,55,78,64,24,72,19,38,30,37,50,49,79,2,51,58,27,9,34,21,36,80,23,43,1,15",,,,,,,,,,
land,82,398501,0.0-28.0-2.0,,null,run_exp/static/images/task_images/land.jpg,null,,,,,,105,,,3,,,,,,,,,,,,,,
dig,83,400521,0.0-28.0-3.0,,,,,,,,,,,"[{""stimulus"":""run_exp/static/images/task_images/dig.jpg"",""time"":0.20000000298023224},{""stimulus"":""run_exp/static/images/task_images/land.jpg"",""time"":676.5},{""stimulus"":""run_exp/static/images/task_images/dig.jpg"",""time"":1346.5999999940395}]",[],3,,,,,,,,,,,,,,
harvest,84,401541,0.0-28.0-4.0,,null,run_exp/static/images/task_images/gems/105.jpg,null,,,,,,66,,,3,,,,,105,0.629044571,0.628571429,,,,,,,
decision,85,402102,0.0-28.0-5.0,,558,run_exp/static/images/task_images/land.jpg,65,,,,,,66,,,3,,,,,,,,58405,1,0,FALSE,,,
dig,86,404560,0.0-29.0-0.0,,,,,,,,,,,"[{""stimulus"":""run_exp/static/images/task_images/dig.jpg"",""time"":0.09999999403953552},{""stimulus"":""run_exp/static/images/task_images/land.jpg"",""time"":824.5999999940395},{""stimulus"":""run_exp/static/images/task_images/dig.jpg"",""time"":1634.3999999910593}]",[],3,,,,,,,,,,,,,,
harvest,87,405571,0.0-29.0-1.0,,null,run_exp/static/images/task_images/gems/66.jpg,null,,,,,,31,,,3,,,,,66,0.466755361,0.46969697,,,,,,,
decision,88,406066,0.0-29.0-2.0,,492.7,run_exp/static/images/task_images/land.jpg,65,,,,,,31,,,3,,,,,,,,62370,1,1,FALSE,,,
dig,89,408591,0.0-30.0-0.0,,,,,,,,,,,"[{""stimulus"":""run_exp/static/images/task_images/dig.jpg"",""time"":0},{""stimulus"":""run_exp/static/images/task_images/land.jpg"",""time"":839.6000000089407},{""stimulus"":""run_exp/static/images/task_images/dig.jpg"",""time"":1689.2000000029802}]",[],3,,,,,,,,,,,,,,
harvest,90,409601,0.0-30.0-1.0,,null,run_exp/static/images/task_images/gems/31.jpg,null,,,,,,14,,,3,,,,,31,0.45214806,0.451612903,,,,,,,
decision,91,409941,0.0-30.0-2.0,,337.1,run_exp/static/images/task_images/land.jpg,65,,,,,,14,,,3,,,,,,,,66244,1,2,FALSE,,,
dig,92,412611,0.0-31.0-0.0,,,,,,,,,,,"[{""stimulus"":""run_exp/static/images/task_images/dig.jpg"",""time"":0.09999999403953552},{""stimulus"":""run_exp/static/images/task_images/land.jpg"",""time"":894.3999999910593},{""stimulus"":""run_exp/static/images/task_images/dig.jpg"",""time"":1784.5}]",[],3,,,,,,,,,,,,,,
harvest,93,413621,0.0-31.0-1.0,,null,run_exp/static/images/task_images/gems/14.jpg,null,,,,,,7,,,3,,,,,14,0.47987552,0.5,,,,,,,
decision,94,414427,0.0-31.0-2.0,,804.1,run_exp/static/images/task_images/land.jpg,76,,,,,,7,,,3,,,,,,,,70731,1,3,TRUE,,,
travel,95,423640,0.0-32.0-0.0,,,,,,,,,,,"[{""stimulus"":""run_exp/static/images/task_images/rocket-01.jpg"",""time"":0.5},{""stimulus"":""run_exp/static/images/task_images/rocket-02.jpg"",""time"":1025.8999999910593},{""stimulus"":""run_exp/static/images/task_images/rocket-03.jpg"",""time"":2045.7999999970198},{""stimulus"":""run_exp/static/images/task_images/rocket-04.jpg"",""time"":3075.7000000029802},{""stimulus"":""run_exp/static/images/task_images/rocket-05.jpg"",""time"":4105.5999999940395},{""stimulus"":""run_exp/static/images/task_images/rocket-06.jpg"",""time"":5115.29999999702},{""stimulus"":""run_exp/static/images/task_images/rocket-07.jpg"",""time"":6135.5999999940395},{""stimulus"":""run_exp/static/images/task_images/rocket-08.jpg"",""time"":7156},{""stimulus"":""run_exp/static/images/task_images/rocket-09.jpg"",""time"":8184.399999991059}]",[],3,,,,,,,,,,,,,,
alien_welcome,96,428651,0.0-32.0-1.0,,null,run_exp/static/images/task_images/aliens/old_aliens/planet/alien_planet-39.jpg,null,,,,,,,,,,,,39,"25,32,18,39,22,73,13,67,75,45,42,71,74,55,78,64,24,72,19,38,30,37,50,49,79,2,51,58,27,9,34,21,36,80,23,43,1,15",,,,,,,,,,
land,97,429171,0.0-32.0-2.0,,null,run_exp/static/images/task_images/land.jpg,null,,,,,,96,,,4,,,,,,,,,,,,,,
dig,98,431181,0.0-32.0-3.0,,,,,,,,,,,"[{""stimulus"":""run_exp/static/images/task_images/dig.jpg"",""time"":0.29999999701976776},{""stimulus"":""run_exp/static/images/task_images/land.jpg"",""time"":675.2999999970198},{""stimulus"":""run_exp/static/images/task_images/dig.jpg"",""time"":1352.199999988079}]",[],4,,,,,,,,,,,,,,
harvest,99,432191,0.0-32.0-4.0,,null,run_exp/static/images/task_images/gems/96.jpg,null,,,,,,42,,,4,,,,,96,0.43987001,0.4375,,,,,,,
decision,100,432567,0.0-32.0-5.0,,372.8,run_exp/static/images/task_images/land.jpg,65,,,,,,42,,,4,,,,,,,,88870,1,0,FALSE,,,
dig,101,435211,0.0-33.0-0.0,,,,,,,,,,,"[{""stimulus"":""run_exp/static/images/task_images/dig.jpg"",""time"":0.09999999403953552},{""stimulus"":""run_exp/static/images/task_images/land.jpg"",""time"":879.2000000029802},{""stimulus"":""run_exp/static/images/task_images/dig.jpg"",""time"":1770}]",[],4,,,,,,,,,,,,,,
harvest,102,436231,0.0-33.0-1.0,,null,run_exp/static/images/task_images/gems/42.jpg,null,,,,,,19,,,4,,,,,42,0.446038752,0.452380952,,,,,,,
decision,103,438030,0.0-33.0-2.0,,1796.2,run_exp/static/images/task_images/land.jpg,65,,,,,,19,,,4,,,,,,,,94333,1,1,FALSE,,,
dig,104,439251,0.0-34.0-0.0,,,,,,,,,,,"[{""stimulus"":""run_exp/static/images/task_images/dig.jpg"",""time"":0.10000000894069672},{""stimulus"":""run_exp/static/images/task_images/land.jpg"",""time"":417.1000000089407},{""stimulus"":""run_exp/static/images/task_images/dig.jpg"",""time"":816.1000000089407}]",[],4,,,,,,,,,,,,,,
harvest,105,440261,0.0-34.0-1.0,,null,run_exp/static/images/task_images/gems/19.jpg,null,,,,,,9,,,4,,,,,19,0.469867314,0.473684211,,,,,,,
decision,106,441255,0.0-34.0-2.0,,992.4,run_exp/static/images/task_images/land.jpg,76,,,,,,9,,,4,,,,,,,,97558,1,2,TRUE,,,
travel,107,450261,0.0-35.0-0.0,,,,,,,,,,,"[{""stimulus"":""run_exp/static/images/task_images/rocket-01.jpg"",""time"":0.20000000298023224},{""stimulus"":""run_exp/static/images/task_images/rocket-02.jpg"",""time"":1003.5},{""stimulus"":""run_exp/static/images/task_images/rocket-03.jpg"",""time"":2003.8999999910593},{""stimulus"":""run_exp/static/images/task_images/rocket-04.jpg"",""time"":3012.5999999940395},{""stimulus"":""run_exp/static/images/task_images/rocket-05.jpg"",""time"":4003.0999999940395},{""stimulus"":""run_exp/static/images/task_images/rocket-06.jpg"",""time"":5013.5999999940395},{""stimulus"":""run_exp/static/images/task_images/rocket-07.jpg"",""time"":6013.20000000298},{""stimulus"":""run_exp/static/images/task_images/rocket-08.jpg"",""time"":7002.5999999940395},{""stimulus"":""run_exp/static/images/task_images/rocket-09.jpg"",""time"":8013.5999999940395}]",[],4,,,,,,,,,,,,,,
alien_welcome,108,455281,0.0-35.0-1.0,,null,run_exp/static/images/task_images/aliens/old_aliens/planet/alien_planet-22.jpg,null,,,,,,,,,,,,22,"25,32,18,39,22,73,13,67,75,45,42,71,74,55,78,64,24,72,19,38,30,37,50,49,79,2,51,58,27,9,34,21,36,80,23,43,1,15",,,,,,,,,,
land,109,455801,0.0-35.0-2.0,,null,run_exp/static/images/task_images/land.jpg,null,,,,,,95,,,5,,,,,,,,,,,,,,
dig,110,457811,0.0-35.0-3.0,,,,,,,,,,,"[{""stimulus"":""run_exp/static/images/task_images/dig.jpg"",""time"":0.5},{""stimulus"":""run_exp/static/images/task_images/land.jpg"",""time"":687.7999999970198},{""stimulus"":""run_exp/static/images/task_images/dig.jpg"",""time"":1337.5}]",[],5,,,,,,,,,,,,,,
harvest,111,458821,0.0-35.0-4.0,,null,run_exp/static/images/task_images/gems/95.jpg,null,,,,,,52,,,5,,,,,95,0.549177865,0.547368421,,,,,,,
decision,112,459354,0.0-35.0-5.0,,531,run_exp/static/images/task_images/land.jpg,65,,,,,,52,,,5,,,,,,,,115657,1,0,FALSE,,,
dig,113,461831,0.0-36.0-0.0,,,,,,,,,,,"[{""stimulus"":""run_exp/static/images/task_images/dig.jpg"",""time"":0.09999999403953552},{""stimulus"":""run_exp/static/images/task_images/land.jpg"",""time"":833.8999999910593},{""stimulus"":""run_exp/static/images/task_images/dig.jpg"",""time"":1655.2000000029802}]",[],5,,,,,,,,,,,,,,
harvest,114,462841,0.0-36.0-1.0,,null,run_exp/static/images/task_images/gems/52.jpg,null,,,,,,24,,,5,,,,,52,0.467852302,0.461538462,,,,,,,
decision,115,463305,0.0-36.0-2.0,,462.4,run_exp/static/images/task_images/land.jpg,65,,,,,,24,,,5,,,,,,,,119609,1,1,FALSE,,,
dig,116,465851,0.0-37.0-0.0,,,,,,,,,,,"[{""stimulus"":""run_exp/static/images/task_images/dig.jpg"",""time"":0},{""stimulus"":""run_exp/static/images/task_images/land.jpg"",""time"":850.7000000029802},{""stimulus"":""run_exp/static/images/task_images/dig.jpg"",""time"":1700.4000000059605}]",[],5,,,,,,,,,,,,,,
harvest,117,466871,0.0-37.0-1.0,,null,run_exp/static/images/task_images/gems/24.jpg,null,,,,,,12,,,5,,,,,24,0.480810768,0.5,,,,,,,
decision,118,467418,0.0-37.0-2.0,,545.2,run_exp/static/images/task_images/land.jpg,65,,,,,,12,,,5,,,,,,,,123721,1,2,FALSE,,,
dig,119,469880,0.0-38.0-0.0,,,,,,,,,,,"[{""stimulus"":""run_exp/static/images/task_images/dig.jpg"",""time"":0.29999999701976776},{""stimulus"":""run_exp/static/images/task_images/land.jpg"",""time"":838.6999999880791},{""stimulus"":""run_exp/static/images/task_images/dig.jpg"",""time"":1648.3999999910593}]",[],5,,,,,,,,,,,,,,
harvest,120,470901,0.0-38.0-1.0,,null,run_exp/static/images/task_images/gems/12.jpg,null,,,,,,5,,,5,,,,,12,0.391395338,0.416666667,,,,,,,
decision,121,470927,0.0-38.0-2.0,,23.3,run_exp/static/images/task_images/land.jpg,76,,,,,,5,,,5,,,,,,,,127230,1,3,TRUE,,,
travel,122,480911,0.0-39.0-0.0,,,,,,,,,,,"[{""stimulus"":""run_exp/static/images/task_images/rocket-01.jpg"",""time"":0.3999999910593033},{""stimulus"":""run_exp/static/images/task_images/rocket-02.jpg"",""time"":1126.7000000029802},{""stimulus"":""run_exp/static/images/task_images/rocket-03.jpg"",""time"":2236.3999999910593},{""stimulus"":""run_exp/static/images/task_images/rocket-04.jpg"",""time"":3336.5},{""stimulus"":""run_exp/static/images/task_images/rocket-05.jpg"",""time"":4447.79999999702},{""stimulus"":""run_exp/static/images/task_images/rocket-06.jpg"",""time"":5556.29999999702},{""stimulus"":""run_exp/static/images/task_images/rocket-07.jpg"",""time"":6667.20000000298},{""stimulus"":""run_exp/static/images/task_images/rocket-08.jpg"",""time"":7776.79999999702},{""stimulus"":""run_exp/static/images/task_images/rocket-09.jpg"",""time"":8876.5}]",[],5,,,,,,,,,,,,,,
alien_welcome,123,485930,0.0-39.0-1.0,,null,run_exp/static/images/task_images/aliens/old_aliens/planet/alien_planet-73.jpg,null,,,,,,,,,,,,73,"25,32,18,39,22,73,13,67,75,45,42,71,74,55,78,64,24,72,19,38,30,37,50,49,79,2,51,58,27,9,34,21,36,80,23,43,1,15",,,,,,,,,,
land,124,486450,0.0-39.0-2.0,,null,run_exp/static/images/task_images/land.jpg,null,,,,,,92,,,6,,,,,,,,,,,,,,
dig,125,488468,0.0-39.0-3.0,,,,,,,,,,,"[{""stimulus"":""run_exp/static/images/task_images/dig.jpg"",""time"":0.20000000298023224},{""stimulus"":""run_exp/static/images/task_images/land.jpg"",""time"":669.6000000089407},{""stimulus"":""run_exp/static/images/task_images/dig.jpg"",""time"":1340.1000000089407}]",[],6,,,,,,,,,,,,,,
harvest,126,489481,0.0-39.0-4.0,,null,run_exp/static/images/task_images/gems/92.jpg,null,,,,,,76,,,6,,,,,92,0.82863209,0.826086957,,,,,,,
decision,127,489855,0.0-39.0-5.0,,371.5,run_exp/static/images/task_images/land.jpg,65,,,,,,76,,,6,,,,,,,,146158,1,0,FALSE,,,
dig,128,492501,0.0-40.0-0.0,,,,,,,,,,,"[{""stimulus"":""run_exp/static/images/task_images/dig.jpg"",""time"":0.10000000894069672},{""stimulus"":""run_exp/static/images/task_images/land.jpg"",""time"":880.9000000059605},{""stimulus"":""run_exp/static/images/task_images/dig.jpg"",""time"":1771.2000000029802}]",[],6,,,,,,,,,,,,,,
harvest,129,493511,0.0-40.0-1.0,,null,run_exp/static/images/task_images/gems/76.jpg,null,,,,,,61,,,6,,,,,76,0.806924574,0.802631579,,,,,,,
decision,130,493933,0.0-40.0-2.0,,419.5,run_exp/static/images/task_images/land.jpg,65,,,,,,61,,,6,,,,,,,,150236,1,1,FALSE,,,
dig,131,496520,0.0-41.0-0.0,,,,,,,,,,,"[{""stimulus"":""run_exp/static/images/task_images/dig.jpg"",""time"":0.10000000894069672},{""stimulus"":""run_exp/static/images/task_images/land.jpg"",""time"":863.2999999970198},{""stimulus"":""run_exp/static/images/task_images/dig.jpg"",""time"":1733.9000000059605}]",[],6,,,,,,,,,,,,,,
harvest,132,497531,0.0-41.0-1.0,,null,run_exp/static/images/task_images/gems/61.jpg,null,,,,,,44,,,6,,,,,61,0.719093374,0.721311475,,,,,,,
decision,133,497960,0.0-41.0-2.0,,427.8,run_exp/static/images/task_images/land.jpg,65,,,,,,44,,,6,,,,,,,,154263,1,2,FALSE,,,
dig,134,500540,0.0-42.0-0.0,,,,,,,,,,,"[{""stimulus"":""run_exp/static/images/task_images/dig.jpg"",""time"":0.09999999403953552},{""stimulus"":""run_exp/static/images/task_images/land.jpg"",""time"":867.2000000029802},{""stimulus"":""run_exp/static/images/task_images/dig.jpg"",""time"":1717.5999999940395}]",[],6,,,,,,,,,,,,,,
harvest,135,501545,0.0-42.0-1.0,,null,run_exp/static/images/task_images/gems/44.jpg,null,,,,,,33,,,6,,,,,44,0.759269703,0.75,,,,,,,
decision,136,501923,0.0-42.0-2.0,,377.4,run_exp/static/images/task_images/land.jpg,65,,,,,,33,,,6,,,,,,,,158226,1,3,FALSE,,,
dig,137,504570,0.0-43.0-0.0,,,,,,,,,,,"[{""stimulus"":""run_exp/static/images/task_images/dig.jpg"",""time"":0.4000000059604645},{""stimulus"":""run_exp/static/images/task_images/land.jpg"",""time"":880.8000000119209},{""stimulus"":""run_exp/static/images/task_images/dig.jpg"",""time"":1751.300000011921}]",[],6,,,,,,,,,,,,,,
harvest,138,505580,0.0-43.0-1.0,,null,run_exp/static/images/task_images/gems/33.jpg,null,,,,,,28,,,6,,,,,33,0.860895698,0.848484848,,,,,,,
decision,139,505988,0.0-43.0-2.0,,405.3,run_exp/static/images/task_images/land.jpg,65,,,,,,28,,,6,,,,,,,,162291,1,4,FALSE,,,
dig,140,508601,0.0-44.0-0.0,,,,,,,,,,,"[{""stimulus"":""run_exp/static/images/task_images/dig.jpg"",""time"":0},{""stimulus"":""run_exp/static/images/task_images/land.jpg"",""time"":881},{""stimulus"":""run_exp/static/images/task_images/dig.jpg"",""time"":1730.300000011921}]",[],6,,,,,,,,,,,,,,
harvest,141,509620,0.0-44.0-1.0,,null,run_exp/static/images/task_images/gems/28.jpg,null,,,,,,21,,,6,,,,,28,0.744985706,0.75,,,,,,,
decision,142,510033,0.0-44.0-2.0,,410.8,run_exp/static/images/task_images/land.jpg,65,,,,,,21,,,6,,,,,,,,166336,1,5,FALSE,,,
dig,143,512630,0.0-45.0-0.0,,,,,,,,,,,"[{""stimulus"":""run_exp/static/images/task_images/dig.jpg"",""time"":0.10000000894069672},{""stimulus"":""run_exp/static/images/task_images/land.jpg"",""time"":882.8000000119209},{""stimulus"":""run_exp/static/images/task_images/dig.jpg"",""time"":1732.4000000059605}]",[],6,,,,,,,,,,,,,,
harvest,144,513650,0.0-45.0-1.0,,null,run_exp/static/images/task_images/gems/21.jpg,null,,,,,,17,,,6,,,,,21,0.809659019,0.80952381,,,,,,,
decision,145,514476,0.0-45.0-2.0,,824,run_exp/static/images/task_images/land.jpg,76,,,,,,17,,,6,,,,,,,,170779,1,6,TRUE,,,
travel,146,523660,0.0-46.0-0.0,,,,,,,,,,,"[{""stimulus"":""run_exp/static/images/task_images/rocket-01.jpg"",""time"":0.10000000894069672},{""stimulus"":""run_exp/static/images/task_images/rocket-02.jpg"",""time"":1031.800000011921},{""stimulus"":""run_exp/static/images/task_images/rocket-03.jpg"",""time"":2041.2000000029802},{""stimulus"":""run_exp/static/images/task_images/rocket-04.jpg"",""time"":3062.300000011921},{""stimulus"":""run_exp/static/images/task_images/rocket-05.jpg"",""time"":4082.300000011921},{""stimulus"":""run_exp/static/images/task_images/rocket-06.jpg"",""time"":5111.800000011921},{""stimulus"":""run_exp/static/images/task_images/rocket-07.jpg"",""time"":6131},{""stimulus"":""run_exp/static/images/task_images/rocket-08.jpg"",""time"":7142},{""stimulus"":""run_exp/static/images/task_images/rocket-09.jpg"",""time"":8161.70000000298}]",[],6,,,,,,,,,,,,,,
alien_welcome,147,528670,0.0-46.0-1.0,,null,run_exp/static/images/task_images/aliens/old_aliens/planet/alien_planet-13.jpg,null,,,,,,,,,,,,13,"25,32,18,39,22,73,13,67,75,45,42,71,74,55,78,64,24,72,19,38,30,37,50,49,79,2,51,58,27,9,34,21,36,80,23,43,1,15",,,,,,,,,,
land,148,529190,0.0-46.0-2.0,,null,run_exp/static/images/task_images/land.jpg,null,,,,,,99,,,7,,,,,,,,,,,,,,
dig,149,531200,0.0-46.0-3.0,,,,,,,,,,,"[{""stimulus"":""run_exp/static/images/task_images/dig.jpg"",""time"":0.5},{""stimulus"":""run_exp/static/images/task_images/land.jpg"",""time"":687.7999999970198},{""stimulus"":""run_exp/static/images/task_images/dig.jpg"",""time"":1350.2999999970198}]",[],7,,,,,,,,,,,,,,
harvest,150,532220,0.0-46.0-4.0,,null,run_exp/static/images/task_images/gems/99.jpg,null,,,,,,75,,,7,,,,,99,0.756725352,0.757575758,,,,,,,
decision,151,532494,0.0-46.0-5.0,,271.4,run_exp/static/images/task_images/land.jpg,65,,,,,,75,,,7,,,,,,,,188797,1,0,FALSE,,,
dig,152,535240,0.0-47.0-0.0,,,,,,,,,,,"[{""stimulus"":""run_exp/static/images/task_images/dig.jpg"",""time"":0.10000000894069672},{""stimulus"":""run_exp/static/images/task_images/land.jpg"",""time"":921.1000000089407},{""stimulus"":""run_exp/static/images/task_images/dig.jpg"",""time"":1821.1000000089407}]",[],7,,,,,,,,,,,,,,
harvest,153,536260,0.0-47.0-1.0,,null,run_exp/static/images/task_images/gems/75.jpg,null,,,,,,58,,,7,,,,,75,0.777396269,0.773333333,,,,,,,
decision,154,536555,0.0-47.0-2.0,,293.1,run_exp/static/images/task_images/land.jpg,65,,,,,,58,,,7,,,,,,,,192858,1,1,FALSE,,,
dig,155,539281,0.0-48.0-0.0,,,,,,,,,,,"[{""stimulus"":""run_exp/static/images/task_images/dig.jpg"",""time"":0.20000000298023224},{""stimulus"":""run_exp/static/images/task_images/land.jpg"",""time"":919.5},{""stimulus"":""run_exp/static/images/task_images/dig.jpg"",""time"":1818.8999999910593}]",[],7,,,,,,,,,,,,,,
harvest,156,540300,0.0-48.0-1.0,,null,run_exp/static/images/task_images/gems/58.jpg,null,,,,,,43,,,7,,,,,58,0.740244305,0.74137931,,,,,,,
decision,157,540611,0.0-48.0-2.0,,308.8,run_exp/static/images/task_images/land.jpg,65,,,,,,43,,,7,,,,,,,,196914,1,2,FALSE,,,
dig,158,543320,0.0-49.0-0.0,,,,,,,,,,,"[{""stimulus"":""run_exp/static/images/task_images/dig.jpg"",""time"":0.3999999910593033},{""stimulus"":""run_exp/static/images/task_images/land.jpg"",""time"":902.7999999970198},{""stimulus"":""run_exp/static/images/task_images/dig.jpg"",""time"":1812.0999999940395}]",[],7,,,,,,,,,,,,,,
harvest,159,544330,0.0-49.0-1.0,,null,run_exp/static/images/task_images/gems/43.jpg,null,,,,,,35,,,7,,,,,43,0.823445965,0.813953488,,,,,,,
decision,160,545034,0.0-49.0-2.0,,701.8,run_exp/static/images/task_images/land.jpg,65,,,,,,35,,,7,,,,,,,,201337,1,3,FALSE,,,
dig,161,547350,0.0-50.0-0.0,,,,,,,,,,,"[{""stimulus"":""run_exp/static/images/task_images/dig.jpg"",""time"":0.10000000894069672},{""stimulus"":""run_exp/static/images/task_images/land.jpg"",""time"":769.9000000059605},{""stimulus"":""run_exp/static/images/task_images/dig.jpg"",""time"":1540.9000000059605}]",[],7,,,,,,,,,,,,,,
harvest,162,548365,0.0-50.0-1.0,,null,run_exp/static/images/task_images/gems/35.jpg,null,,,,,,31,,,7,,,,,35,0.887096881,0.885714286,,,,,,,
decision,163,548790,0.0-50.0-2.0,,424.2,run_exp/static/images/task_images/land.jpg,65,,,,,,31,,,7,,,,,,,,205093,1,4,FALSE,,,
dig,164,551390,0.0-51.0-0.0,,,,,,,,,,,"[{""stimulus"":""run_exp/static/images/task_images/dig.jpg"",""time"":0.10000000894069672},{""stimulus"":""run_exp/static/images/task_images/land.jpg"",""time"":875.2000000029802},{""stimulus"":""run_exp/static/images/task_images/dig.jpg"",""time"":1734.9000000059605}]",[],7,,,,,,,,,,,,,,
harvest,165,552400,0.0-51.0-1.0,,null,run_exp/static/images/task_images/gems/31.jpg,null,,,,,,24,,,7,,,,,31,0.762603952,0.774193548,,,,,,,
decision,166,552678,0.0-51.0-2.0,,277.4,run_exp/static/images/task_images/land.jpg,65,,,,,,24,,,7,,,,,,,,208982,1,5,FALSE,,,
dig,167,555410,0.0-52.0-0.0,,,,,,,,,,,"[{""stimulus"":""run_exp/static/images/task_images/dig.jpg"",""time"":0.10000000894069672},{""stimulus"":""run_exp/static/images/task_images/land.jpg"",""time"":914.6000000089407},{""stimulus"":""run_exp/static/images/task_images/dig.jpg"",""time"":1834.5}]",[],7,,,,,,,,,,,,,,
harvest,168,556420,0.0-52.0-1.0,,null,run_exp/static/images/task_images/gems/24.jpg,null,,,,,,21,,,7,,,,,24,0.886202568,0.875,,,,,,,
decision,169,556759,0.0-52.0-2.0,,336.9,run_exp/static/images/task_images/land.jpg,76,,,,,,21,,,7,,,,,,,,213062,1,6,TRUE,,,
travel,170,566423,0.0-53.0-0.0,,,,,,,,,,,"[{""stimulus"":""run_exp/static/images/task_images/rocket-01.jpg"",""time"":0.09999999403953552},{""stimulus"":""run_exp/static/images/task_images/rocket-02.jpg"",""time"":1078.7999999970198},{""stimulus"":""run_exp/static/images/task_images/rocket-03.jpg"",""time"":2148.7000000029802},{""stimulus"":""run_exp/static/images/task_images/rocket-04.jpg"",""time"":3229.2000000029802},{""stimulus"":""run_exp/static/images/task_images/rocket-05.jpg"",""time"":4298.29999999702},{""stimulus"":""run_exp/static/images/task_images/rocket-06.jpg"",""time"":5369.20000000298},{""stimulus"":""run_exp/static/images/task_images/rocket-07.jpg"",""time"":6448.9000000059605},{""stimulus"":""run_exp/static/images/task_images/rocket-08.jpg"",""time"":7518.5999999940395},{""stimulus"":""run_exp/static/images/task_images/rocket-09.jpg"",""time"":8597.09999999404}]",[],7,,,,,,,,,,,,,,
alien_welcome,171,571441,0.0-53.0-1.0,,null,run_exp/static/images/task_images/aliens/old_aliens/planet/alien_planet-67.jpg,null,,,,,,,,,,,,67,"25,32,18,39,22,73,13,67,75,45,42,71,74,55,78,64,24,72,19,38,30,37,50,49,79,2,51,58,27,9,34,21,36,80,23,43,1,15",,,,,,,,,,
land,172,571951,0.0-53.0-2.0,,null,run_exp/static/images/task_images/land.jpg,null,,,,,,93,,,8,,,,,,,,,,,,,,
dig,173,573966,0.0-53.0-3.0,,,,,,,,,,,"[{""stimulus"":""run_exp/static/images/task_images/dig.jpg"",""time"":0.5},{""stimulus"":""run_exp/static/images/task_images/land.jpg"",""time"":687.5},{""stimulus"":""run_exp/static/images/task_images/dig.jpg"",""time"":1342.3999999910593}]",[],8,,,,,,,,,,,,,,
harvest,174,574975,0.0-53.0-4.0,,null,run_exp/static/images/task_images/gems/93.jpg,null,,,,,,76,,,8,,,,,93,0.820197833,0.817204301,,,,,,,
decision,175,575467,0.0-53.0-5.0,,490.4,run_exp/static/images/task_images/land.jpg,65,,,,,,76,,,8,,,,,,,,231770,1,0,FALSE,,,
dig,176,577981,0.0-54.0-0.0,,,,,,,,,,,"[{""stimulus"":""run_exp/static/images/task_images/dig.jpg"",""time"":0.20000000298023224},{""stimulus"":""run_exp/static/images/task_images/land.jpg"",""time"":851.9000000059605},{""stimulus"":""run_exp/static/images/task_images/dig.jpg"",""time"":1692.5}]",[],8,,,,,,,,,,,,,,
harvest,177,579001,0.0-54.0-1.0,,null,run_exp/static/images/task_images/gems/76.jpg,null,,,,,,60,,,8,,,,,76,0.785262866,0.789473684,,,,,,,
decision,178,579294,0.0-54.0-2.0,,290.6,run_exp/static/images/task_images/land.jpg,65,,,,,,60,,,8,,,,,,,,235597,1,1,FALSE,,,
dig,179,582010,0.0-55.0-0.0,,,,,,,,,,,"[{""stimulus"":""run_exp/static/images/task_images/dig.jpg"",""time"":0.10000000894069672},{""stimulus"":""run_exp/static/images/task_images/land.jpg"",""time"":914.9000000059605},{""stimulus"":""run_exp/static/images/task_images/dig.jpg"",""time"":1814}]",[],8,,,,,,,,,,,,,,
harvest,180,583021,0.0-55.0-1.0,,null,run_exp/static/images/task_images/gems/60.jpg,null,,,,,,46,,,8,,,,,60,0.762003763,0.766666667,,,,,,,
decision,181,583592,0.0-55.0-2.0,,568.4,run_exp/static/images/task_images/land.jpg,65,,,,,,46,,,8,,,,,,,,239895,1,2,FALSE,,,
dig,182,586041,0.0-56.0-0.0,,,,,,,,,,,"[{""stimulus"":""run_exp/static/images/task_images/dig.jpg"",""time"":0.10000000894069672},{""stimulus"":""run_exp/static/images/task_images/land.jpg"",""time"":814.3000000119209},{""stimulus"":""run_exp/static/images/task_images/dig.jpg"",""time"":1624.300000011921}]",[],8,,,,,,,,,,,,,,
harvest,183,587051,0.0-56.0-1.0,,null,run_exp/static/images/task_images/gems/46.jpg,null,,,,,,34,,,8,,,,,46,0.738478735,0.739130435,,,,,,,
decision,184,587402,0.0-56.0-2.0,,349,run_exp/static/images/task_images/land.jpg,65,,,,,,34,,,8,,,,,,,,243705,1,3,FALSE,,,
dig,185,590071,0.0-57.0-0.0,,,,,,,,,,,"[{""stimulus"":""run_exp/static/images/task_images/dig.jpg"",""time"":0.10000000894069672},{""stimulus"":""run_exp/static/images/task_images/land.jpg"",""time"":896.7000000029802},{""stimulus"":""run_exp/static/images/task_images/dig.jpg"",""time"":1776.4000000059605}]",[],8,,,,,,,,,,,,,,
harvest,186,591091,0.0-57.0-1.0,,null,run_exp/static/images/task_images/gems/34.jpg,null,,,,,,26,,,8,,,,,34,0.778381381,0.764705882,,,,,,,
decision,187,591445,0.0-57.0-2.0,,350,run_exp/static/images/task_images/land.jpg,65,,,,,,26,,,8,,,,,,,,247748,1,4,FALSE,,,
dig,188,594121,0.0-58.0-0.0,,,,,,,,,,,"[{""stimulus"":""run_exp/static/images/task_images/dig.jpg"",""time"":0.09999999403953552},{""stimulus"":""run_exp/static/images/task_images/land.jpg"",""time"":900.5},{""stimulus"":""run_exp/static/images/task_images/dig.jpg"",""time"":1780.8999999910593}]",[],8,,,,,,,,,,,,,,
harvest,189,595131,0.0-58.0-1.0,,null,run_exp/static/images/task_images/gems/26.jpg,null,,,,,,22,,,8,,,,,26,0.858316357,0.846153846,,,,,,,
decision,190,595213,0.0-58.0-2.0,,79.5,run_exp/static/images/task_images/land.jpg,76,,,,,,22,,,8,,,,,,,,251516,1,5,TRUE,,,
travel,191,605141,0.0-59.0-0.0,,,,,,,,,,,"[{""stimulus"":""run_exp/static/images/task_images/rocket-01.jpg"",""time"":0.4000000059604645},{""stimulus"":""run_exp/static/images/task_images/rocket-02.jpg"",""time"":1120.9000000059605},{""stimulus"":""run_exp/static/images/task_images/rocket-03.jpg"",""time"":2210.2999999970198},{""stimulus"":""run_exp/static/images/task_images/rocket-04.jpg"",""time"":3308.4000000059605},{""stimulus"":""run_exp/static/images/task_images/rocket-05.jpg"",""time"":4420.0999999940395},{""stimulus"":""run_exp/static/images/task_images/rocket-06.jpg"",""time"":5530},{""stimulus"":""run_exp/static/images/task_images/rocket-07.jpg"",""time"":6631.5999999940395},{""stimulus"":""run_exp/static/images/task_images/rocket-08.jpg"",""time"":7721.4000000059605},{""stimulus"":""run_exp/static/images/task_images/rocket-09.jpg"",""time"":8821.29999999702}]",[],8,,,,,,,,,,,,,,
alien_welcome,192,610151,0.0-59.0-1.0,,null,run_exp/static/images/task_images/aliens/old_aliens/planet/alien_planet-75.jpg,null,,,,,,,,,,,,75,"25,32,18,39,22,73,13,67,75,45,42,71,74,55,78,64,24,72,19,38,30,37,50,49,79,2,51,58,27,9,34,21,36,80,23,43,1,15",,,,,,,,,,
land,193,610661,0.0-59.0-2.0,,null,run_exp/static/images/task_images/land.jpg,null,,,,,,98,,,9,,,,,,,,,,,,,,
dig,194,612670,0.0-59.0-3.0,,,,,,,,,,,"[{""stimulus"":""run_exp/static/images/task_images/dig.jpg"",""time"":0.5},{""stimulus"":""run_exp/static/images/task_images/land.jpg"",""time"":677},{""stimulus"":""run_exp/static/images/task_images/dig.jpg"",""time"":1356.5}]",[],9,,,,,,,,,,,,,,
harvest,195,613680,0.0-59.0-4.0,,null,run_exp/static/images/task_images/gems/98.jpg,null,,,,,,18,,,9,,,,,98,0.178702164,0.183673469,,,,,,,
decision,196,614016,0.0-59.0-5.0,,334.6,run_exp/static/images/task_images/land.jpg,65,,,,,,18,,,9,,,,,,,,270319,1,0,FALSE,,,
dig,197,616700,0.0-60.0-0.0,,,,,,,,,,,"[{""stimulus"":""run_exp/static/images/task_images/dig.jpg"",""time"":0},{""stimulus"":""run_exp/static/images/task_images/land.jpg"",""time"":903.4000000059605},{""stimulus"":""run_exp/static/images/task_images/dig.jpg"",""time"":1781.9000000059605}]",[],9,,,,,,,,,,,,,,
harvest,198,617720,0.0-60.0-1.0,,null,run_exp/static/images/task_images/gems/18.jpg,null,,,,,,4,,,9,,,,,18,0.219915376,0.222222222,,,,,,,
decision,199,618197,0.0-60.0-2.0,,475.8,run_exp/static/images/task_images/land.jpg,76,,,,,,4,,,9,,,,,,,,274501,1,1,TRUE,,,
travel,200,627731,0.0-61.0-0.0,,,,,,,,,,,"[{""stimulus"":""run_exp/static/images/task_images/rocket-01.jpg"",""time"":0.10000000894069672},{""stimulus"":""run_exp/static/images/task_images/rocket-02.jpg"",""time"":1078},{""stimulus"":""run_exp/static/images/task_images/rocket-03.jpg"",""time"":2117.9000000059605},{""stimulus"":""run_exp/static/images/task_images/rocket-04.jpg"",""time"":3187.800000011921},{""stimulus"":""run_exp/static/images/task_images/rocket-05.jpg"",""time"":4247.70000000298},{""stimulus"":""run_exp/static/images/task_images/rocket-06.jpg"",""time"":5308},{""stimulus"":""run_exp/static/images/task_images/rocket-07.jpg"",""time"":6358},{""stimulus"":""run_exp/static/images/task_images/rocket-08.jpg"",""time"":7417.5},{""stimulus"":""run_exp/static/images/task_images/rocket-09.jpg"",""time"":8478.10000000894}]",[],9,,,,,,,,,,,,,,
alien_welcome,201,632741,0.0-61.0-1.0,,null,run_exp/static/images/task_images/aliens/old_aliens/planet/alien_planet-45.jpg,null,,,,,,,,,,,,45,"25,32,18,39,22,73,13,67,75,45,42,71,74,55,78,64,24,72,19,38,30,37,50,49,79,2,51,58,27,9,34,21,36,80,23,43,1,15",,,,,,,,,,
land,202,633261,0.0-61.0-2.0,,null,run_exp/static/images/task_images/land.jpg,null,,,,,,98,,,10,,,,,,,,,,,,,,
dig,203,635281,0.0-61.0-3.0,,,,,,,,,,,"[{""stimulus"":""run_exp/static/images/task_images/dig.jpg"",""time"":0.5},{""stimulus"":""run_exp/static/images/task_images/land.jpg"",""time"":687.9000000059605},{""stimulus"":""run_exp/static/images/task_images/dig.jpg"",""time"":1347.7000000029802}]",[],10,,,,,,,,,,,,,,
harvest,204,636301,0.0-61.0-4.0,,null,run_exp/static/images/task_images/gems/98.jpg,null,,,,,,32,,,10,,,,,98,0.325465923,0.326530612,,,,,,,
decision,205,636630,0.0-61.0-5.0,,326.3,run_exp/static/images/task_images/land.jpg,65,,,,,,32,,,10,,,,,,,,292933,1,0,FALSE,,,
dig,206,639320,0.0-62.0-0.0,,,,,,,,,,,"[{""stimulus"":""run_exp/static/images/task_images/dig.jpg"",""time"":0.09999999403953552},{""stimulus"":""run_exp/static/images/task_images/land.jpg"",""time"":896.2999999970198},{""stimulus"":""run_exp/static/images/task_images/dig.jpg"",""time"":1785.2999999970198}]",[],10,,,,,,,,,,,,,,
harvest,207,640341,0.0-62.0-1.0,,null,run_exp/static/images/task_images/gems/32.jpg,null,,,,,,5,,,10,,,,,32,0.169065284,0.15625,,,,,,,
decision,208,640867,0.0-62.0-2.0,,525.2,run_exp/static/images/task_images/land.jpg,65,,,,,,5,,,10,,,,,,,,297171,1,1,FALSE,,,
dig,209,643351,0.0-63.0-0.0,,,,,,,,,,,"[{""stimulus"":""run_exp/static/images/task_images/dig.jpg"",""time"":0.10000000894069672},{""stimulus"":""run_exp/static/images/task_images/land.jpg"",""time"":828.9000000059605},{""stimulus"":""run_exp/static/images/task_images/dig.jpg"",""time"":1663.6000000089407}]",[],10,,,,,,,,,,,,,,
harvest,210,644361,0.0-63.0-1.0,,null,run_exp/static/images/task_images/gems/5.jpg,null,,,,,,1,,,10,,,,,5,0.218440059,0.2,,,,,,,
decision,211,644546,0.0-63.0-2.0,,183.3,run_exp/static/images/task_images/land.jpg,76,,,,,,1,,,10,,,,,,,,300849,1,2,TRUE,,,
end_of_block_continue,212,653395,0.0-64.0-0.0,,null,run_exp/static/audio/clip_32_block_end.m4a,,,,,,null,,,,,,,,,,,,,,,,,,
alien_welcome,213,658421,0.0-65.0-0.0,,null,run_exp/static/images/task_images/aliens/old_aliens/planet/alien_planet-42.jpg,null,,,,,,,,,,,,42,"25,32,18,39,22,73,13,67,75,45,42,71,74,55,78,64,24,72,19,38,30,37,50,49,79,2,51,58,27,9,34,21,36,80,23,43,1,15",,,,,,,,,,
land,214,658931,0.0-65.0-1.0,,null,run_exp/static/images/task_images/land.jpg,null,,,,,,104,,,11,,,,,,,,,,,,,,
dig,215,660941,0.0-65.0-2.0,,,,,,,,,,,"[{""stimulus"":""run_exp/static/images/task_images/dig.jpg"",""time"":0.20000000298023224},{""stimulus"":""run_exp/static/images/task_images/land.jpg"",""time"":679},{""stimulus"":""run_exp/static/images/task_images/dig.jpg"",""time"":1339}]",[],11,,,,,,,,,,,,,,
harvest,216,661951,0.0-65.0-3.0,,null,run_exp/static/images/task_images/gems/104.jpg,null,,,,,,29,,,11,,,,,104,0.28066159,0.278846154,,,,,,,
decision,217,662312,0.0-65.0-4.0,,358,run_exp/static/images/task_images/land.jpg,65,,,,,,29,,,11,,,,,,,,8909,2,0,FALSE,,,
dig,218,664960,0.0-66.0-0.0,,,,,,,,,,,"[{""stimulus"":""run_exp/static/images/task_images/dig.jpg"",""time"":0.09999999403953552},{""stimulus"":""run_exp/static/images/task_images/land.jpg"",""time"":893.3999999910593},{""stimulus"":""run_exp/static/images/task_images/dig.jpg"",""time"":1773.7999999970198}]",[],11,,,,,,,,,,,,,,
harvest,219,665971,0.0-66.0-1.0,,null,run_exp/static/images/task_images/gems/29.jpg,null,,,,,,5,,,11,,,,,29,0.176727483,0.172413793,,,,,,,
decision,220,666449,0.0-66.0-2.0,,475.5,run_exp/static/images/task_images/land.jpg,76,,,,,,5,,,11,,,,,,,,13046,2,1,TRUE,,,
travel,221,675991,0.0-67.0-0.0,,,,,,,,,,,"[{""stimulus"":""run_exp/static/images/task_images/rocket-01.jpg"",""time"":0.5},{""stimulus"":""run_exp/static/images/task_images/rocket-02.jpg"",""time"":1064.1000000089407},{""stimulus"":""run_exp/static/images/task_images/rocket-03.jpg"",""time"":2124.5},{""stimulus"":""run_exp/static/images/task_images/rocket-04.jpg"",""time"":3194.4000000059605},{""stimulus"":""run_exp/static/images/task_images/rocket-05.jpg"",""time"":4244.4000000059605},{""stimulus"":""run_exp/static/images/task_images/rocket-06.jpg"",""time"":5294.4000000059605},{""stimulus"":""run_exp/static/images/task_images/rocket-07.jpg"",""time"":6364.29999999702},{""stimulus"":""run_exp/static/images/task_images/rocket-08.jpg"",""time"":7413.79999999702},{""stimulus"":""run_exp/static/images/task_images/rocket-09.jpg"",""time"":8474.40000000596}]",[],11,,,,,,,,,,,,,,
alien_welcome,222,681011,0.0-67.0-1.0,,null,run_exp/static/images/task_images/aliens/old_aliens/planet/alien_planet-71.jpg,null,,,,,,,,,,,,71,"25,32,18,39,22,73,13,67,75,45,42,71,74,55,78,64,24,72,19,38,30,37,50,49,79,2,51,58,27,9,34,21,36,80,23,43,1,15",,,,,,,,,,
land,223,681521,0.0-67.0-2.0,,null,run_exp/static/images/task_images/land.jpg,null,,,,,,97,,,12,,,,,,,,,,,,,,
dig,224,683541,0.0-67.0-3.0,,,,,,,,,,,"[{""stimulus"":""run_exp/static/images/task_images/dig.jpg"",""time"":0.5},{""stimulus"":""run_exp/static/images/task_images/land.jpg"",""time"":687},{""stimulus"":""run_exp/static/images/task_images/dig.jpg"",""time"":1341.6000000089407}]",[],12,,,,,,,,,,,,,,
harvest,225,684551,0.0-67.0-4.0,,null,run_exp/static/images/task_images/gems/97.jpg,null,,,,,,21,,,12,,,,,97,0.220798881,0.216494845,,,,,,,
decision,226,685052,0.0-67.0-5.0,,498.5,run_exp/static/images/task_images/land.jpg,65,,,,,,21,,,12,,,,,,,,31649,2,0,FALSE,,,
dig,227,687582,0.0-68.0-0.0,,,,,,,,,,,"[{""stimulus"":""run_exp/static/images/task_images/dig.jpg"",""time"":0.3999999910593033},{""stimulus"":""run_exp/static/images/task_images/land.jpg"",""time"":840.1999999880791},{""stimulus"":""run_exp/static/images/task_images/dig.jpg"",""time"":1680.199999988079}]",[],12,,,,,,,,,,,,,,
harvest,228,688601,0.0-68.0-1.0,,null,run_exp/static/images/task_images/gems/21.jpg,null,,,,,,7,,,12,,,,,21,0.317788522,0.333333333,,,,,,,
decision,229,688959,0.0-68.0-2.0,,355.3,run_exp/static/images/task_images/land.jpg,76,,,,,,7,,,12,,,,,,,,35556,2,1,TRUE,,,
travel,230,698611,0.0-69.0-0.0,,,,,,,,,,,"[{""stimulus"":""run_exp/static/images/task_images/rocket-01.jpg"",""time"":0.09999999403953552},{""stimulus"":""run_exp/static/images/task_images/rocket-02.jpg"",""time"":1088.199999988079},{""stimulus"":""run_exp/static/images/task_images/rocket-03.jpg"",""time"":2158},{""stimulus"":""run_exp/static/images/task_images/rocket-04.jpg"",""time"":3228.199999988079},{""stimulus"":""run_exp/static/images/task_images/rocket-05.jpg"",""time"":4288.29999999702},{""stimulus"":""run_exp/static/images/task_images/rocket-06.jpg"",""time"":5368.399999991059},{""stimulus"":""run_exp/static/images/task_images/rocket-07.jpg"",""time"":6438.29999999702},{""stimulus"":""run_exp/static/images/task_images/rocket-08.jpg"",""time"":7507.899999991059},{""stimulus"":""run_exp/static/images/task_images/rocket-09.jpg"",""time"":8588.5}]",[],12,,,,,,,,,,,,,,
alien_welcome,231,703622,0.0-69.0-1.0,,null,run_exp/static/images/task_images/aliens/old_aliens/planet/alien_planet-74.jpg,null,,,,,,,,,,,,74,"25,32,18,39,22,73,13,67,75,45,42,71,74,55,78,64,24,72,19,38,30,37,50,49,79,2,51,58,27,9,34,21,36,80,23,43,1,15",,,,,,,,,,
land,232,704132,0.0-69.0-2.0,,null,run_exp/static/images/task_images/land.jpg,null,,,,,,102,,,13,,,,,,,,,,,,,,
dig,233,706151,0.0-69.0-3.0,,,,,,,,,,,"[{""stimulus"":""run_exp/static/images/task_images/dig.jpg"",""time"":0.09999999403953552},{""stimulus"":""run_exp/static/images/task_images/land.jpg"",""time"":686.1999999880791},{""stimulus"":""run_exp/static/images/task_images/dig.jpg"",""time"":1346.2999999970198}]",[],13,,,,,,,,,,,,,,
harvest,234,707161,0.0-69.0-4.0,,null,run_exp/static/images/task_images/gems/102.jpg,null,,,,,,16,,,13,,,,,102,0.155060417,0.156862745,,,,,,,
decision,235,707496,0.0-69.0-5.0,,333.4,run_exp/static/images/task_images/land.jpg,65,,,,,,16,,,13,,,,,,,,54093,2,0,FALSE,,,
dig,236,710171,0.0-70.0-0.0,,,,,,,,,,,"[{""stimulus"":""run_exp/static/images/task_images/dig.jpg"",""time"":0.09999999403953552},{""stimulus"":""run_exp/static/images/task_images/land.jpg"",""time"":889.8999999910593},{""stimulus"":""run_exp/static/images/task_images/dig.jpg"",""time"":1789.7999999970198}]",[],13,,,,,,,,,,,,,,
harvest,237,711181,0.0-70.0-1.0,,null,run_exp/static/images/task_images/gems/16.jpg,null,,,,,,4,,,13,,,,,16,0.238746185,0.25,,,,,,,
decision,238,711593,0.0-70.0-2.0,,409.1,run_exp/static/images/task_images/land.jpg,76,,,,,,4,,,13,,,,,,,,58190,2,1,TRUE,,,
travel,239,721201,0.0-71.0-0.0,,,,,,,,,,,"[{""stimulus"":""run_exp/static/images/task_images/rocket-01.jpg"",""time"":0.09999999403953552},{""stimulus"":""run_exp/static/images/task_images/rocket-02.jpg"",""time"":1083.2000000029802},{""stimulus"":""run_exp/static/images/task_images/rocket-03.jpg"",""time"":2135},{""stimulus"":""run_exp/static/images/task_images/rocket-04.jpg"",""time"":3213.3999999910593},{""stimulus"":""run_exp/static/images/task_images/rocket-05.jpg"",""time"":4273.5999999940395},{""stimulus"":""run_exp/static/images/task_images/rocket-06.jpg"",""time"":5333.5},{""stimulus"":""run_exp/static/images/task_images/rocket-07.jpg"",""time"":6403.5},{""stimulus"":""run_exp/static/images/task_images/rocket-08.jpg"",""time"":7462.79999999702},{""stimulus"":""run_exp/static/images/task_images/rocket-09.jpg"",""time"":8523.5}]",[],13,,,,,,,,,,,,,,
alien_welcome,240,726222,0.0-71.0-1.0,,null,run_exp/static/images/task_images/aliens/old_aliens/planet/alien_planet-55.jpg,null,,,,,,,,,,,,55,"25,32,18,39,22,73,13,67,75,45,42,71,74,55,78,64,24,72,19,38,30,37,50,49,79,2,51,58,27,9,34,21,36,80,23,43,1,15",,,,,,,,,,
land,241,726741,0.0-71.0-2.0,,null,run_exp/static/images/task_images/land.jpg,null,,,,,,95,,,14,,,,,,,,,,,,,,
dig,242,728751,0.0-71.0-3.0,,,,,,,,,,,"[{""stimulus"":""run_exp/static/images/task_images/dig.jpg"",""time"":0.5},{""stimulus"":""run_exp/static/images/task_images/land.jpg"",""time"":676.9000000059605},{""stimulus"":""run_exp/static/images/task_images/dig.jpg"",""time"":1336.7999999970198}]",[],14,,,,,,,,,,,,,,
harvest,243,729771,0.0-71.0-4.0,,null,run_exp/static/images/task_images/gems/95.jpg,null,,,,,,81,,,14,,,,,95,0.855066078,0.852631579,,,,,,,
decision,244,730063,0.0-71.0-5.0,,288.6,run_exp/static/images/task_images/land.jpg,65,,,,,,81,,,14,,,,,,,,76660,2,0,FALSE,,,
dig,245,732781,0.0-72.0-0.0,,,,,,,,,,,"[{""stimulus"":""run_exp/static/images/task_images/dig.jpg"",""time"":0.09999999403953552},{""stimulus"":""run_exp/static/images/task_images/land.jpg"",""time"":914.2999999970198},{""stimulus"":""run_exp/static/images/task_images/dig.jpg"",""time"":1814.4000000059605}]",[],14,,,,,,,,,,,,,,
harvest,246,733791,0.0-72.0-1.0,,null,run_exp/static/images/task_images/gems/81.jpg,null,,,,,,75,,,14,,,,,81,0.925572772,0.925925926,,,,,,,
decision,247,734198,0.0-72.0-2.0,,406.5,run_exp/static/images/task_images/land.jpg,65,,,,,,75,,,14,,,,,,,,80795,2,1,FALSE,,,
dig,248,736811,0.0-73.0-0.0,,,,,,,,,,,"[{""stimulus"":""run_exp/static/images/task_images/dig.jpg"",""time"":0.10000000894069672},{""stimulus"":""run_exp/static/images/task_images/land.jpg"",""time"":878.6000000089407},{""stimulus"":""run_exp/static/images/task_images/dig.jpg"",""time"":1738.6000000089407}]",[],14,,,,,,,,,,,,,,
harvest,249,737821,0.0-73.0-1.0,,null,run_exp/static/images/task_images/gems/75.jpg,null,,,,,,55,,,14,,,,,75,0.733821716,0.733333333,,,,,,,
decision,250,738340,0.0-73.0-2.0,,517.8,run_exp/static/images/task_images/land.jpg,65,,,,,,55,,,14,,,,,,,,84937,2,2,FALSE,,,
dig,251,740831,0.0-74.0-0.0,,,,,,,,,,,"[{""stimulus"":""run_exp/static/images/task_images/dig.jpg"",""time"":0.09999999403953552},{""stimulus"":""run_exp/static/images/task_images/land.jpg"",""time"":837.7000000029802},{""stimulus"":""run_exp/static/images/task_images/dig.jpg"",""time"":1667.7000000029802}]",[],14,,,,,,,,,,,,,,
harvest,252,741842,0.0-74.0-1.0,,null,run_exp/static/images/task_images/gems/55.jpg,null,,,,,,48,,,14,,,,,55,0.869501438,0.872727273,,,,,,,
decision,253,742218,0.0-74.0-2.0,,373.2,run_exp/static/images/task_images/land.jpg,65,,,,,,48,,,14,,,,,,,,88815,2,3,FALSE,,,
dig,254,744861,0.0-75.0-0.0,,,,,,,,,,,"[{""stimulus"":""run_exp/static/images/task_images/dig.jpg"",""time"":0.10000000894069672},{""stimulus"":""run_exp/static/images/task_images/land.jpg"",""time"":888.1000000089407},{""stimulus"":""run_exp/static/images/task_images/dig.jpg"",""time"":1768.1000000089407}]",[],14,,,,,,,,,,,,,,
harvest,255,745871,0.0-75.0-1.0,,null,run_exp/static/images/task_images/gems/48.jpg,null,,,,,,40,,,14,,,,,48,0.840007859,0.833333333,,,,,,,
decision,256,746204,0.0-75.0-2.0,,330.6,run_exp/static/images/task_images/land.jpg,65,,,,,,40,,,14,,,,,,,,92801,2,4,FALSE,,,
dig,257,748891,0.0-76.0-0.0,,,,,,,,,,,"[{""stimulus"":""run_exp/static/images/task_images/dig.jpg"",""time"":0.3999999910593033},{""stimulus"":""run_exp/static/images/task_images/land.jpg"",""time"":908.8999999910593},{""stimulus"":""run_exp/static/images/task_images/dig.jpg"",""time"":1799}]",[],14,,,,,,,,,,,,,,
harvest,258,749901,0.0-76.0-1.0,,null,run_exp/static/images/task_images/gems/40.jpg,null,,,,,,32,,,14,,,,,40,0.796225933,0.8,,,,,,,
decision,259,750286,0.0-76.0-2.0,,382.7,run_exp/static/images/task_images/land.jpg,65,,,,,,32,,,14,,,,,,,,96883,2,5,FALSE,,,
dig,260,752911,0.0-77.0-0.0,,,,,,,,,,,"[{""stimulus"":""run_exp/static/images/task_images/dig.jpg"",""time"":0.09999999403953552},{""stimulus"":""run_exp/static/images/task_images/land.jpg"",""time"":891.5},{""stimulus"":""run_exp/static/images/task_images/dig.jpg"",""time"":1760.3999999910593}]",[],14,,,,,,,,,,,,,,
harvest,261,753921,0.0-77.0-1.0,,null,run_exp/static/images/task_images/gems/32.jpg,null,,,,,,24,,,14,,,,,32,0.754839428,0.75,,,,,,,
decision,262,754205,0.0-77.0-2.0,,281.7,run_exp/static/images/task_images/land.jpg,65,,,,,,24,,,14,,,,,,,,100802,2,6,FALSE,,,
dig,263,756931,0.0-78.0-0.0,,,,,,,,,,,"[{""stimulus"":""run_exp/static/images/task_images/dig.jpg"",""time"":0.10000000894069672},{""stimulus"":""run_exp/static/images/task_images/land.jpg"",""time"":913.6000000089407},{""stimulus"":""run_exp/static/images/task_images/dig.jpg"",""time"":1823}]",[],14,,,,,,,,,,,,,,
harvest,264,757951,0.0-78.0-1.0,,null,run_exp/static/images/task_images/gems/24.jpg,null,,,,,,21,,,14,,,,,24,0.85427979,0.875,,,,,,,
decision,265,758383,0.0-78.0-2.0,,429.8,run_exp/static/images/task_images/land.jpg,76,,,,,,21,,,14,,,,,,,,104980,2,7,TRUE,,,
travel,266,767966,0.0-79.0-0.0,,,,,,,,,,,"[{""stimulus"":""run_exp/static/images/task_images/rocket-01.jpg"",""time"":0.19999998807907104},{""stimulus"":""run_exp/static/images/task_images/rocket-02.jpg"",""time"":1074.7999999970198},{""stimulus"":""run_exp/static/images/task_images/rocket-03.jpg"",""time"":2134.8999999910593},{""stimulus"":""run_exp/static/images/task_images/rocket-04.jpg"",""time"":3204.8999999910593},{""stimulus"":""run_exp/static/images/task_images/rocket-05.jpg"",""time"":4256.5999999940395},{""stimulus"":""run_exp/static/images/task_images/rocket-06.jpg"",""time"":5324.5999999940395},{""stimulus"":""run_exp/static/images/task_images/rocket-07.jpg"",""time"":6395.199999988079},{""stimulus"":""run_exp/static/images/task_images/rocket-08.jpg"",""time"":7449.0999999940395},{""stimulus"":""run_exp/static/images/task_images/rocket-09.jpg"",""time"":8524.5}]",[],14,,,,,,,,,,,,,,
alien_welcome,267,772971,0.0-79.0-1.0,,null,run_exp/static/images/task_images/aliens/old_aliens/planet/alien_planet-78.jpg,null,,,,,,,,,,,,78,"25,32,18,39,22,73,13,67,75,45,42,71,74,55,78,64,24,72,19,38,30,37,50,49,79,2,51,58,27,9,34,21,36,80,23,43,1,15",,,,,,,,,,
land,268,773491,0.0-79.0-2.0,,null,run_exp/static/images/task_images/land.jpg,null,,,,,,91,,,15,,,,,,,,,,,,,,
dig,269,775511,0.0-79.0-3.0,,,,,,,,,,,"[{""stimulus"":""run_exp/static/images/task_images/dig.jpg"",""time"":0.09999999403953552},{""stimulus"":""run_exp/static/images/task_images/land.jpg"",""time"":669.3999999910593},{""stimulus"":""run_exp/static/images/task_images/dig.jpg"",""time"":1349.3999999910593}]",[],15,,,,,,,,,,,,,,
harvest,270,776531,0.0-79.0-4.0,,null,run_exp/static/images/task_images/gems/91.jpg,null,,,,,,73,,,15,,,,,91,0.801833663,0.802197802,,,,,,,
decision,271,777027,0.0-79.0-5.0,,493.1,run_exp/static/images/task_images/land.jpg,65,,,,,,73,,,15,,,,,,,,123624,2,0,FALSE,,,
dig,272,779551,0.0-80.0-0.0,,,,,,,,,,,"[{""stimulus"":""run_exp/static/images/task_images/dig.jpg"",""time"":0.09999999403953552},{""stimulus"":""run_exp/static/images/task_images/land.jpg"",""time"":843.5},{""stimulus"":""run_exp/static/images/task_images/dig.jpg"",""time"":1683.5999999940395}]",[],15,,,,,,,,,,,,,,
harvest,273,780571,0.0-80.0-1.0,,null,run_exp/static/images/task_images/gems/73.jpg,null,,,,,,56,,,15,,,,,73,0.772455731,0.767123288,,,,,,,
decision,274,780937,0.0-80.0-2.0,,363.6,run_exp/static/images/task_images/land.jpg,65,,,,,,56,,,15,,,,,,,,127534,2,1,FALSE,,,
dig,275,783581,0.0-81.0-0.0,,,,,,,,,,,"[{""stimulus"":""run_exp/static/images/task_images/dig.jpg"",""time"":0.20000000298023224},{""stimulus"":""run_exp/static/images/task_images/land.jpg"",""time"":898.2999999970198},{""stimulus"":""run_exp/static/images/task_images/dig.jpg"",""time"":1767.8999999910593}]",[],15,,,,,,,,,,,,,,
harvest,276,784591,0.0-81.0-1.0,,null,run_exp/static/images/task_images/gems/56.jpg,null,,,,,,43,,,15,,,,,56,0.769569093,0.767857143,,,,,,,
decision,277,784886,0.0-81.0-2.0,,292.7,run_exp/static/images/task_images/land.jpg,65,,,,,,43,,,15,,,,,,,,131483,2,2,FALSE,,,
dig,278,787611,0.0-82.0-0.0,,,,,,,,,,,"[{""stimulus"":""run_exp/static/images/task_images/dig.jpg"",""time"":0.10000000894069672},{""stimulus"":""run_exp/static/images/task_images/land.jpg"",""time"":910.6000000089407},{""stimulus"":""run_exp/static/images/task_images/dig.jpg"",""time"":1810.4000000059605}]",[],15,,,,,,,,,,,,,,
harvest,279,788621,0.0-82.0-1.0,,null,run_exp/static/images/task_images/gems/43.jpg,null,,,,,,35,,,15,,,,,43,0.821130539,0.813953488,,,,,,,
decision,280,788909,0.0-82.0-2.0,,284.6,run_exp/static/images/task_images/land.jpg,65,,,,,,35,,,15,,,,,,,,135506,2,3,FALSE,,,
dig,281,791641,0.0-83.0-0.0,,,,,,,,,,,"[{""stimulus"":""run_exp/static/images/task_images/dig.jpg"",""time"":0.20000000298023224},{""stimulus"":""run_exp/static/images/task_images/land.jpg"",""time"":907.2999999970198},{""stimulus"":""run_exp/static/images/task_images/dig.jpg"",""time"":1817.2000000029802}]",[],15,,,,,,,,,,,,,,
harvest,282,792661,0.0-83.0-1.0,,null,run_exp/static/images/task_images/gems/35.jpg,null,,,,,,28,,,15,,,,,35,0.802339525,0.8,,,,,,,
decision,283,792964,0.0-83.0-2.0,,300.1,run_exp/static/images/task_images/land.jpg,65,,,,,,28,,,15,,,,,,,,139561,2,4,FALSE,,,
dig,284,795681,0.0-84.0-0.0,,,,,,,,,,,"[{""stimulus"":""run_exp/static/images/task_images/dig.jpg"",""time"":0.10000000894069672},{""stimulus"":""run_exp/static/images/task_images/land.jpg"",""time"":902.5},{""stimulus"":""run_exp/static/images/task_images/dig.jpg"",""time"":1812.4000000059605}]",[],15,,,,,,,,,,,,,,
harvest,285,796691,0.0-84.0-1.0,,null,run_exp/static/images/task_images/gems/28.jpg,null,,,,,,23,,,15,,,,,28,0.838490919,0.821428571,,,,,,,
decision,286,797113,0.0-84.0-2.0,,419.9,run_exp/static/images/task_images/land.jpg,76,,,,,,23,,,15,,,,,,,,143710,2,5,TRUE,,,
travel,287,806701,0.0-85.0-0.0,,,,,,,,,,,"[{""stimulus"":""run_exp/static/images/task_images/rocket-01.jpg"",""time"":0.09999999403953552},{""stimulus"":""run_exp/static/images/task_images/rocket-02.jpg"",""time"":1082.3999999910593},{""stimulus"":""run_exp/static/images/task_images/rocket-03.jpg"",""time"":2132.7999999970198},{""stimulus"":""run_exp/static/images/task_images/rocket-04.jpg"",""time"":3212.199999988079},{""stimulus"":""run_exp/static/images/task_images/rocket-05.jpg"",""time"":4259.0999999940395},{""stimulus"":""run_exp/static/images/task_images/rocket-06.jpg"",""time"":5321.899999991059},{""stimulus"":""run_exp/static/images/task_images/rocket-07.jpg"",""time"":6402.199999988079},{""stimulus"":""run_exp/static/images/task_images/rocket-08.jpg"",""time"":7462.5},{""stimulus"":""run_exp/static/images/task_images/rocket-09.jpg"",""time"":8522.5}]",[],15,,,,,,,,,,,,,,
alien_welcome,288,811721,0.0-85.0-1.0,,null,run_exp/static/images/task_images/aliens/old_aliens/planet/alien_planet-64.jpg,null,,,,,,,,,,,,64,"25,32,18,39,22,73,13,67,75,45,42,71,74,55,78,64,24,72,19,38,30,37,50,49,79,2,51,58,27,9,34,21,36,80,23,43,1,15",,,,,,,,,,
land,289,812231,0.0-85.0-2.0,,null,run_exp/static/images/task_images/land.jpg,null,,,,,,108,,,16,,,,,,,,,,,,,,
dig,290,814251,0.0-85.0-3.0,,,,,,,,,,,"[{""stimulus"":""run_exp/static/images/task_images/dig.jpg"",""time"":0.3999999910593033},{""stimulus"":""run_exp/static/images/task_images/land.jpg"",""time"":677.3999999910593},{""stimulus"":""run_exp/static/images/task_images/dig.jpg"",""time"":1337.699999988079}]",[],16,,,,,,,,,,,,,,
harvest,291,815271,0.0-85.0-4.0,,null,run_exp/static/images/task_images/gems/108.jpg,null,,,,,,89,,,16,,,,,108,0.820712632,0.824074074,,,,,,,
decision,292,815708,0.0-85.0-5.0,,435.2,run_exp/static/images/task_images/land.jpg,65,,,,,,89,,,16,,,,,,,,162306,2,0,FALSE,,,
dig,293,818281,0.0-86.0-0.0,,,,,,,,,,,"[{""stimulus"":""run_exp/static/images/task_images/dig.jpg"",""time"":0},{""stimulus"":""run_exp/static/images/task_images/land.jpg"",""time"":867},{""stimulus"":""run_exp/static/images/task_images/dig.jpg"",""time"":1726.2000000029802}]",[],16,,,,,,,,,,,,,,
harvest,294,819301,0.0-86.0-1.0,,null,run_exp/static/images/task_images/gems/89.jpg,null,,,,,,75,,,16,,,,,89,0.840519436,0.842696629,,,,,,,
decision,295,819660,0.0-86.0-2.0,,356.5,run_exp/static/images/task_images/land.jpg,65,,,,,,75,,,16,,,,,,,,166257,2,1,FALSE,,,
dig,296,822321,0.0-87.0-0.0,,,,,,,,,,,"[{""stimulus"":""run_exp/static/images/task_images/dig.jpg"",""time"":0.10000000894069672},{""stimulus"":""run_exp/static/images/task_images/land.jpg"",""time"":899.1000000089407},{""stimulus"":""run_exp/static/images/task_images/dig.jpg"",""time"":1769.6000000089407}]",[],16,,,,,,,,,,,,,,
harvest,297,823332,0.0-87.0-1.0,,null,run_exp/static/images/task_images/gems/75.jpg,null,,,,,,63,,,16,,,,,75,0.841971506,0.84,,,,,,,
decision,298,823639,0.0-87.0-2.0,,305.2,run_exp/static/images/task_images/land.jpg,65,,,,,,63,,,16,,,,,,,,170236,2,2,FALSE,,,
dig,299,826361,0.0-88.0-0.0,,,,,,,,,,,"[{""stimulus"":""run_exp/static/images/task_images/dig.jpg"",""time"":0.20000000298023224},{""stimulus"":""run_exp/static/images/task_images/land.jpg"",""time"":904.7000000029802},{""stimulus"":""run_exp/static/images/task_images/dig.jpg"",""time"":1804.7000000029802}]",[],16,,,,,,,,,,,,,,
harvest,300,827371,0.0-88.0-1.0,,null,run_exp/static/images/task_images/gems/63.jpg,null,,,,,,50,,,16,,,,,63,0.794961722,0.793650794,,,,,,,
decision,301,827823,0.0-88.0-2.0,,449.2,run_exp/static/images/task_images/land.jpg,65,,,,,,50,,,16,,,,,,,,174420,2,3,FALSE,,,
dig,302,830381,0.0-89.0-0.0,,,,,,,,,,,"[{""stimulus"":""run_exp/static/images/task_images/dig.jpg"",""time"":0.10000000894069672},{""stimulus"":""run_exp/static/images/task_images/land.jpg"",""time"":857.5},{""stimulus"":""run_exp/static/images/task_images/dig.jpg"",""time"":1713.6000000089407}]",[],16,,,,,,,,,,,,,,
harvest,303,831401,0.0-89.0-1.0,,null,run_exp/static/images/task_images/gems/50.jpg,null,,,,,,43,,,16,,,,,50,0.86557428,0.86,,,,,,,
decision,304,831895,0.0-89.0-2.0,,491.3,run_exp/static/images/task_images/land.jpg,65,,,,,,43,,,16,,,,,,,,178492,2,4,FALSE,,,
dig,305,834411,0.0-90.0-0.0,,,,,,,,,,,"[{""stimulus"":""run_exp/static/images/task_images/dig.jpg"",""time"":0.09999999403953552},{""stimulus"":""run_exp/static/images/task_images/land.jpg"",""time"":840.8999999910593},{""stimulus"":""run_exp/static/images/task_images/dig.jpg"",""time"":1681.0999999940395}]",[],16,,,,,,,,,,,,,,
harvest,306,835421,0.0-90.0-1.0,,null,run_exp/static/images/task_images/gems/43.jpg,null,,,,,,35,,,16,,,,,43,0.813770951,0.813953488,,,,,,,
decision,307,835897,0.0-90.0-2.0,,473.9,run_exp/static/images/task_images/land.jpg,65,,,,,,35,,,16,,,,,,,,182495,2,5,FALSE,,,
dig,308,838441,0.0-91.0-0.0,,,,,,,,,,,"[{""stimulus"":""run_exp/static/images/task_images/dig.jpg"",""time"":0.10000000894069672},{""stimulus"":""run_exp/static/images/task_images/land.jpg"",""time"":853.5},{""stimulus"":""run_exp/static/images/task_images/dig.jpg"",""time"":1698}]",[],16,,,,,,,,,,,,,,
harvest,309,839451,0.0-91.0-1.0,,null,run_exp/static/images/task_images/gems/35.jpg,null,,,,,,28,,,16,,,,,35,0.797118369,0.8,,,,,,,
decision,310,839773,0.0-91.0-2.0,,320,run_exp/static/images/task_images/land.jpg,65,,,,,,28,,,16,,,,,,,,186370,2,6,FALSE,,,
dig,311,842471,0.0-92.0-0.0,,,,,,,,,,,"[{""stimulus"":""run_exp/static/images/task_images/dig.jpg"",""time"":0.09999999403953552},{""stimulus"":""run_exp/static/images/task_images/land.jpg"",""time"":906.1999999880791},{""stimulus"":""run_exp/static/images/task_images/dig.jpg"",""time"":1806.5}]",[],16,,,,,,,,,,,,,,
harvest,312,843491,0.0-92.0-1.0,,null,run_exp/static/images/task_images/gems/28.jpg,null,,,,,,22,,,16,,,,,28,0.798660418,0.785714286,,,,,,,
decision,313,843864,0.0-92.0-2.0,,370,run_exp/static/images/task_images/land.jpg,76,,,,,,22,,,16,,,,,,,,190461,2,7,TRUE,,,
travel,314,853511,0.0-93.0-0.0,,,,,,,,,,,"[{""stimulus"":""run_exp/static/images/task_images/rocket-01.jpg"",""time"":0.10000000894069672},{""stimulus"":""run_exp/static/images/task_images/rocket-02.jpg"",""time"":1083.7000000029802},{""stimulus"":""run_exp/static/images/task_images/rocket-03.jpg"",""time"":2153.4000000059605},{""stimulus"":""run_exp/static/images/task_images/rocket-04.jpg"",""time"":3213.6000000089407},{""stimulus"":""run_exp/static/images/task_images/rocket-05.jpg"",""time"":4293.70000000298},{""stimulus"":""run_exp/static/images/task_images/rocket-06.jpg"",""time"":5353.800000011921},{""stimulus"":""run_exp/static/images/task_images/rocket-07.jpg"",""time"":6423.4000000059605},{""stimulus"":""run_exp/static/images/task_images/rocket-08.jpg"",""time"":7493.5},{""stimulus"":""run_exp/static/images/task_images/rocket-09.jpg"",""time"":8563.20000000298}]",[],16,,,,,,,,,,,,,,
alien_welcome,315,858531,0.0-93.0-1.0,,null,run_exp/static/images/task_images/aliens/old_aliens/planet/alien_planet-24.jpg,null,,,,,,,,,,,,24,"25,32,18,39,22,73,13,67,75,45,42,71,74,55,78,64,24,72,19,38,30,37,50,49,79,2,51,58,27,9,34,21,36,80,23,43,1,15",,,,,,,,,,
land,316,859041,0.0-93.0-2.0,,null,run_exp/static/images/task_images/land.jpg,null,,,,,,100,,,17,,,,,,,,,,,,,,
dig,317,861051,0.0-93.0-3.0,,,,,,,,,,,"[{""stimulus"":""run_exp/static/images/task_images/dig.jpg"",""time"":0.6000000089406967},{""stimulus"":""run_exp/static/images/task_images/land.jpg"",""time"":687.4000000059605},{""stimulus"":""run_exp/static/images/task_images/dig.jpg"",""time"":1342.2000000029802}]",[],17,,,,,,,,,,,,,,
harvest,318,862071,0.0-93.0-4.0,,null,run_exp/static/images/task_images/gems/100.jpg,null,,,,,,76,,,17,,,,,100,0.764025009,0.76,,,,,,,
decision,319,862615,0.0-93.0-5.0,,542,run_exp/static/images/task_images/land.jpg,65,,,,,,76,,,17,,,,,,,,209212,2,0,FALSE,,,
dig,320,865082,0.0-94.0-0.0,,,,,,,,,,,"[{""stimulus"":""run_exp/static/images/task_images/dig.jpg"",""time"":0.10000000894069672},{""stimulus"":""run_exp/static/images/task_images/land.jpg"",""time"":821.9000000059605},{""stimulus"":""run_exp/static/images/task_images/dig.jpg"",""time"":1641.5}]",[],17,,,,,,,,,,,,,,
harvest,321,866101,0.0-94.0-1.0,,null,run_exp/static/images/task_images/gems/76.jpg,null,,,,,,57,,,17,,,,,76,0.746833634,0.75,,,,,,,
decision,322,866418,0.0-94.0-2.0,,316.5,run_exp/static/images/task_images/land.jpg,65,,,,,,57,,,17,,,,,,,,213016,2,1,FALSE,,,
dig,323,869112,0.0-95.0-0.0,,,,,,,,,,,"[{""stimulus"":""run_exp/static/images/task_images/dig.jpg"",""time"":0.20000000298023224},{""stimulus"":""run_exp/static/images/task_images/land.jpg"",""time"":899},{""stimulus"":""run_exp/static/images/task_images/dig.jpg"",""time"":1809.0999999940395}]",[],17,,,,,,,,,,,,,,
harvest,324,870122,0.0-95.0-1.0,,null,run_exp/static/images/task_images/gems/57.jpg,null,,,,,,44,,,17,,,,,57,0.76787785,0.771929825,,,,,,,
decision,325,870533,0.0-95.0-2.0,,408.3,run_exp/static/images/task_images/land.jpg,65,,,,,,44,,,17,,,,,,,,217131,2,2,FALSE,,,
dig,326,873142,0.0-96.0-0.0,,,,,,,,,,,"[{""stimulus"":""run_exp/static/images/task_images/dig.jpg"",""time"":0.09999999403953552},{""stimulus"":""run_exp/static/images/task_images/land.jpg"",""time"":873.0999999940395},{""stimulus"":""run_exp/static/images/task_images/dig.jpg"",""time"":1733.2999999970198}]",[],17,,,,,,,,,,,,,,
harvest,327,874162,0.0-96.0-1.0,,null,run_exp/static/images/task_images/gems/44.jpg,null,,,,,,38,,,17,,,,,44,0.865242572,0.863636364,,,,,,,
decision,328,874535,0.0-96.0-2.0,,371.2,run_exp/static/images/task_images/land.jpg,65,,,,,,38,,,17,,,,,,,,221132,2,3,FALSE,,,
dig,329,877182,0.0-97.0-0.0,,,,,,,,,,,"[{""stimulus"":""run_exp/static/images/task_images/dig.jpg"",""time"":0.29999999701976776},{""stimulus"":""run_exp/static/images/task_images/land.jpg"",""time"":889},{""stimulus"":""run_exp/static/images/task_images/dig.jpg"",""time"":1758.5}]",[],17,,,,,,,,,,,,,,
harvest,330,878192,0.0-97.0-1.0,,null,run_exp/static/images/task_images/gems/38.jpg,null,,,,,,33,,,17,,,,,38,0.858404483,0.868421053,,,,,,,
decision,331,878810,0.0-97.0-2.0,,616.2,run_exp/static/images/task_images/land.jpg,65,,,,,,33,,,17,,,,,,,,225407,2,4,FALSE,,,
dig,332,881201,0.0-98.0-0.0,,,,,,,,,,,"[{""stimulus"":""run_exp/static/images/task_images/dig.jpg"",""time"":0.30000001192092896},{""stimulus"":""run_exp/static/images/task_images/land.jpg"",""time"":806.8000000119209},{""stimulus"":""run_exp/static/images/task_images/dig.jpg"",""time"":1606.2000000029802}]",[],17,,,,,,,,,,,,,,
harvest,333,882221,0.0-98.0-1.0,,null,run_exp/static/images/task_images/gems/33.jpg,null,,,,,,25,,,17,,,,,33,0.757231321,0.757575758,,,,,,,
decision,334,882669,0.0-98.0-2.0,,446.2,run_exp/static/images/task_images/land.jpg,65,,,,,,25,,,17,,,,,,,,229266,2,5,FALSE,,,
dig,335,885242,0.0-99.0-0.0,,,,,,,,,,,"[{""stimulus"":""run_exp/static/images/task_images/dig.jpg"",""time"":0.09999999403953552},{""stimulus"":""run_exp/static/images/task_images/land.jpg"",""time"":857.2999999970198},{""stimulus"":""run_exp/static/images/task_images/dig.jpg"",""time"":1717.0999999940395}]",[],17,,,,,,,,,,,,,,
harvest,336,886262,0.0-99.0-1.0,,null,run_exp/static/images/task_images/gems/25.jpg,null,,,,,,21,,,17,,,,,25,0.846482477,0.84,,,,,,,
decision,337,886726,0.0-99.0-2.0,,458.5,run_exp/static/images/task_images/land.jpg,76,,,,,,21,,,17,,,,,,,,233323,2,6,TRUE,,,
travel,338,896293,0.0-100.0-0.0,,,,,,,,,,,"[{""stimulus"":""run_exp/static/images/task_images/rocket-01.jpg"",""time"":0.09999999403953552},{""stimulus"":""run_exp/static/images/task_images/rocket-02.jpg"",""time"":1070},{""stimulus"":""run_exp/static/images/task_images/rocket-03.jpg"",""time"":2129.8999999910593},{""stimulus"":""run_exp/static/images/task_images/rocket-04.jpg"",""time"":3181.8999999910593},{""stimulus"":""run_exp/static/images/task_images/rocket-05.jpg"",""time"":4260.29999999702},{""stimulus"":""run_exp/static/images/task_images/rocket-06.jpg"",""time"":5320.5999999940395},{""stimulus"":""run_exp/static/images/task_images/rocket-07.jpg"",""time"":6370.399999991059},{""stimulus"":""run_exp/static/images/task_images/rocket-08.jpg"",""time"":7440.399999991059},{""stimulus"":""run_exp/static/images/task_images/rocket-09.jpg"",""time"":8500.59999999404}]",[],17,,,,,,,,,,,,,,
alien_welcome,339,901303,0.0-100.0-1.0,,null,run_exp/static/images/task_images/aliens/old_aliens/planet/alien_planet-72.jpg,null,,,,,,,,,,,,72,"25,32,18,39,22,73,13,67,75,45,42,71,74,55,78,64,24,72,19,38,30,37,50,49,79,2,51,58,27,9,34,21,36,80,23,43,1,15",,,,,,,,,,
land,340,901822,0.0-100.0-2.0,,null,run_exp/static/images/task_images/land.jpg,null,,,,,,98,,,18,,,,,,,,,,,,,,
dig,341,903841,0.0-100.0-3.0,,,,,,,,,,,"[{""stimulus"":""run_exp/static/images/task_images/dig.jpg"",""time"":0.5},{""stimulus"":""run_exp/static/images/task_images/land.jpg"",""time"":686.9000000059605},{""stimulus"":""run_exp/static/images/task_images/dig.jpg"",""time"":1337}]",[],18,,,,,,,,,,,,,,
harvest,342,904862,0.0-100.0-4.0,,null,run_exp/static/images/task_images/gems/98.jpg,null,,,,,,77,,,18,,,,,98,0.783797131,0.785714286,,,,,,,
decision,343,905175,0.0-100.0-5.0,,310.8,run_exp/static/images/task_images/land.jpg,65,,,,,,77,,,18,,,,,,,,251772,2,0,FALSE,,,
dig,344,907882,0.0-101.0-0.0,,,,,,,,,,,"[{""stimulus"":""run_exp/static/images/task_images/dig.jpg"",""time"":0},{""stimulus"":""run_exp/static/images/task_images/land.jpg"",""time"":911.5},{""stimulus"":""run_exp/static/images/task_images/dig.jpg"",""time"":1800.9000000059605}]",[],18,,,,,,,,,,,,,,
harvest,345,908902,0.0-101.0-1.0,,null,run_exp/static/images/task_images/gems/77.jpg,null,,,,,,63,,,18,,,,,77,0.820090906,0.818181818,,,,,,,
decision,346,911508,0.0-101.0-2.0,,2604.6,run_exp/static/images/task_images/land.jpg,65,,,,,,63,,,18,,,,,,,,258106,2,1,FALSE,,,
dig,347,911911,0.0-102.0-0.0,,,,,,,,,,,"[{""stimulus"":""run_exp/static/images/task_images/dig.jpg"",""time"":0.09999999403953552},{""stimulus"":""run_exp/static/images/task_images/land.jpg"",""time"":146.40000000596046},{""stimulus"":""run_exp/static/images/task_images/dig.jpg"",""time"":276.59999999403954}]",[],18,,,,,,,,,,,,,,
harvest,348,912932,0.0-102.0-1.0,,null,run_exp/static/images/task_images/gems/63.jpg,null,,,,,,51,,,18,,,,,63,0.810325467,0.80952381,,,,,,,
decision,349,913544,0.0-102.0-2.0,,610.3,run_exp/static/images/task_images/land.jpg,65,,,,,,51,,,18,,,,,,,,260142,2,2,FALSE,,,
dig,350,915941,0.0-103.0-0.0,,,,,,,,,,,"[{""stimulus"":""run_exp/static/images/task_images/dig.jpg"",""time"":0.10000000894069672},{""stimulus"":""run_exp/static/images/task_images/land.jpg"",""time"":812.2000000029802},{""stimulus"":""run_exp/static/images/task_images/dig.jpg"",""time"":1601.800000011921}]",[],18,,,,,,,,,,,,,,
harvest,351,916956,0.0-103.0-1.0,,null,run_exp/static/images/task_images/gems/51.jpg,null,,,,,,43,,,18,,,,,51,0.840430196,0.843137255,,,,,,,
decision,352,917625,0.0-103.0-2.0,,667.8,run_exp/static/images/task_images/land.jpg,65,,,,,,43,,,18,,,,,,,,264223,2,3,FALSE,,,
dig,353,919972,0.0-104.0-0.0,,,,,,,,,,,"[{""stimulus"":""run_exp/static/images/task_images/dig.jpg"",""time"":0.09999999403953552},{""stimulus"":""run_exp/static/images/task_images/land.jpg"",""time"":780.0999999940395},{""stimulus"":""run_exp/static/images/task_images/dig.jpg"",""time"":1569.2999999970198}]",[],18,,,,,,,,,,,,,,
harvest,354,920991,0.0-104.0-1.0,,null,run_exp/static/images/task_images/gems/43.jpg,null,,,,,,35,,,18,,,,,43,0.805112688,0.813953488,,,,,,,
decision,355,921431,0.0-104.0-2.0,,445.7,run_exp/static/images/task_images/land.jpg,65,,,,,,35,,,18,,,,,,,,268028,2,4,FALSE,,,
dig,356,923994,0.0-105.0-0.0,,,,,,,,,,,"[{""stimulus"":""run_exp/static/images/task_images/dig.jpg"",""time"":0.20000000298023224},{""stimulus"":""run_exp/static/images/task_images/land.jpg"",""time"":860.7999999970198},{""stimulus"":""run_exp/static/images/task_images/dig.jpg"",""time"":1721.2999999970198}]",[],18,,,,,,,,,,,,,,
harvest,357,925004,0.0-105.0-1.0,,null,run_exp/static/images/task_images/gems/35.jpg,null,,,,,,30,,,18,,,,,35,0.849774372,0.857142857,,,,,,,
decision,358,925331,0.0-105.0-2.0,,324,run_exp/static/images/task_images/land.jpg,65,,,,,,30,,,18,,,,,,,,271928,2,5,FALSE,,,
dig,359,928024,0.0-106.0-0.0,,,,,,,,,,,"[{""stimulus"":""run_exp/static/images/task_images/dig.jpg"",""time"":0.10000000894069672},{""stimulus"":""run_exp/static/images/task_images/land.jpg"",""time"":897.2999999970198},{""stimulus"":""run_exp/static/images/task_images/dig.jpg"",""time"":1786.2000000029802}]",[],18,,,,,,,,,,,,,,
harvest,360,929034,0.0-106.0-1.0,,null,run_exp/static/images/task_images/gems/30.jpg,null,,,,,,19,,,18,,,,,30,0.637229184,0.633333333,,,,,,,
decision,361,929498,0.0-106.0-2.0,,460.8,run_exp/static/images/task_images/land.jpg,65,,,,,,19,,,18,,,,,,,,276095,2,6,FALSE,,,
dig,362,932055,0.0-107.0-0.0,,,,,,,,,,,"[{""stimulus"":""run_exp/static/images/task_images/dig.jpg"",""time"":0.3999999910593033},{""stimulus"":""run_exp/static/images/task_images/land.jpg"",""time"":848.3999999910593},{""stimulus"":""run_exp/static/images/task_images/dig.jpg"",""time"":1707.5999999940395}]",[],18,,,,,,,,,,,,,,
harvest,363,933074,0.0-107.0-1.0,,null,run_exp/static/images/task_images/gems/19.jpg,null,,,,,,16,,,18,,,,,19,0.841266439,0.842105263,,,,,,,
decision,364,933484,0.0-107.0-2.0,,406.2,run_exp/static/images/task_images/land.jpg,76,,,,,,16,,,18,,,,,,,,280081,2,7,TRUE,,,
travel,365,943094,0.0-108.0-0.0,,,,,,,,,,,"[{""stimulus"":""run_exp/static/images/task_images/rocket-01.jpg"",""time"":0.19999998807907104},{""stimulus"":""run_exp/static/images/task_images/rocket-02.jpg"",""time"":1085.3999999910593},{""stimulus"":""run_exp/static/images/task_images/rocket-03.jpg"",""time"":2134.8999999910593},{""stimulus"":""run_exp/static/images/task_images/rocket-04.jpg"",""time"":3205.2999999970198},{""stimulus"":""run_exp/static/images/task_images/rocket-05.jpg"",""time"":4265.5},{""stimulus"":""run_exp/static/images/task_images/rocket-06.jpg"",""time"":5335.199999988079},{""stimulus"":""run_exp/static/images/task_images/rocket-07.jpg"",""time"":6405.199999988079},{""stimulus"":""run_exp/static/images/task_images/rocket-08.jpg"",""time"":7465.29999999702},{""stimulus"":""run_exp/static/images/task_images/rocket-09.jpg"",""time"":8535.29999999702}]",[],18,,,,,,,,,,,,,,
alien_welcome,366,948105,0.0-108.0-1.0,,null,run_exp/static/images/task_images/aliens/old_aliens/planet/alien_planet-19.jpg,null,,,,,,,,,,,,19,"25,32,18,39,22,73,13,67,75,45,42,71,74,55,78,64,24,72,19,38,30,37,50,49,79,2,51,58,27,9,34,21,36,80,23,43,1,15",,,,,,,,,,
land,367,948625,0.0-108.0-2.0,,null,run_exp/static/images/task_images/land.jpg,null,,,,,,102,,,19,,,,,,,,,,,,,,
dig,368,950634,0.0-108.0-3.0,,,,,,,,,,,"[{""stimulus"":""run_exp/static/images/task_images/dig.jpg"",""time"":0.5},{""stimulus"":""run_exp/static/images/task_images/land.jpg"",""time"":686.6999999880791},{""stimulus"":""run_exp/static/images/task_images/dig.jpg"",""time"":1347}]",[],19,,,,,,,,,,,,,,
harvest,369,951644,0.0-108.0-4.0,,null,run_exp/static/images/task_images/gems/102.jpg,null,,,,,,56,,,19,,,,,102,0.548256489,0.549019608,,,,,,,
decision,370,951936,0.0-108.0-5.0,,289.9,run_exp/static/images/task_images/land.jpg,65,,,,,,56,,,19,,,,,,,,298533,2,0,FALSE,,,
dig,371,954663,0.0-109.0-0.0,,,,,,,,,,,"[{""stimulus"":""run_exp/static/images/task_images/dig.jpg"",""time"":0.20000000298023224},{""stimulus"":""run_exp/static/images/task_images/land.jpg"",""time"":903.7999999970198},{""stimulus"":""run_exp/static/images/task_images/dig.jpg"",""time"":1814.6000000089407}]",[],19,,,,,,,,,,,,,,
harvest,372,955685,0.0-109.0-1.0,,null,run_exp/static/images/task_images/gems/56.jpg,null,,,,,,26,,,19,,,,,56,0.46156462,0.464285714,,,,,,,
decision,373,956228,0.0-109.0-2.0,,541.1,run_exp/static/images/task_images/land.jpg,65,,,,,,26,,,19,,,,,,,,302826,2,1,TRUE,,,
end_of_block_continue,374,965088,0.0-110.0-0.0,,null,run_exp/static/audio/clip_32_block_end.m4a,,,,,,null,,,,,,,,,,,,,,,,,,
alien_welcome,375,970105,0.0-111.0-0.0,,null,run_exp/static/images/task_images/aliens/old_aliens/planet/alien_planet-38.jpg,null,,,,,,,,,,,,38,"25,32,18,39,22,73,13,67,75,45,42,71,74,55,78,64,24,72,19,38,30,37,50,49,79,2,51,58,27,9,34,21,36,80,23,43,1,15",,,,,,,,,,
land,376,970624,0.0-111.0-1.0,,null,run_exp/static/images/task_images/land.jpg,null,,,,,,97,,,20,,,,,,,,,,,,,,
dig,377,972635,0.0-111.0-2.0,,,,,,,,,,,"[{""stimulus"":""run_exp/static/images/task_images/dig.jpg"",""time"":0.3999999910593033},{""stimulus"":""run_exp/static/images/task_images/land.jpg"",""time"":677.1999999880791},{""stimulus"":""run_exp/static/images/task_images/dig.jpg"",""time"":1338.699999988079}]",[],20,,,,,,,,,,,,,,
harvest,378,973654,0.0-111.0-3.0,,null,run_exp/static/images/task_images/gems/97.jpg,null,,,,,,51,,,20,,,,,97,0.52939408,0.525773196,,,,,,,
decision,379,974117,0.0-111.0-4.0,,460,run_exp/static/images/task_images/land.jpg,65,,,,,,51,,,20,,,,,,,,9023,3,0,FALSE,,,
dig,380,976674,0.0-112.0-0.0,,,,,,,,,,,"[{""stimulus"":""run_exp/static/images/task_images/dig.jpg"",""time"":0.09999999403953552},{""stimulus"":""run_exp/static/images/task_images/land.jpg"",""time"":861.4000000059605},{""stimulus"":""run_exp/static/images/task_images/dig.jpg"",""time"":1701.7000000029802}]",[],20,,,,,,,,,,,,,,
harvest,381,977695,0.0-112.0-1.0,,null,run_exp/static/images/task_images/gems/51.jpg,null,,,,,,24,,,20,,,,,51,0.468167748,0.470588235,,,,,,,
decision,382,978019,0.0-112.0-2.0,,321.6,run_exp/static/images/task_images/land.jpg,65,,,,,,24,,,20,,,,,,,,12925,3,1,FALSE,,,
dig,383,980715,0.0-113.0-0.0,,,,,,,,,,,"[{""stimulus"":""run_exp/static/images/task_images/dig.jpg"",""time"":0.5},{""stimulus"":""run_exp/static/images/task_images/land.jpg"",""time"":895.1000000089407},{""stimulus"":""run_exp/static/images/task_images/dig.jpg"",""time"":1805.2000000029802}]",[],20,,,,,,,,,,,,,,
harvest,384,981732,0.0-113.0-1.0,,null,run_exp/static/images/task_images/gems/24.jpg,null,,,,,,11,,,20,,,,,24,0.438958216,0.458333333,,,,,,,
decision,385,982083,0.0-113.0-2.0,,348.1,run_exp/static/images/task_images/land.jpg,76,,,,,,11,,,20,,,,,,,,16989,3,2,TRUE,,,
travel,386,991741,0.0-114.0-0.0,,,,,,,,,,,"[{""stimulus"":""run_exp/static/images/task_images/rocket-01.jpg"",""time"":0.10000000894069672},{""stimulus"":""run_exp/static/images/task_images/rocket-02.jpg"",""time"":1073.2999999970198},{""stimulus"":""run_exp/static/images/task_images/rocket-03.jpg"",""time"":2163.2999999970198},{""stimulus"":""run_exp/static/images/task_images/rocket-04.jpg"",""time"":3223.2000000029802},{""stimulus"":""run_exp/static/images/task_images/rocket-05.jpg"",""time"":4303.20000000298},{""stimulus"":""run_exp/static/images/task_images/rocket-06.jpg"",""time"":5363.20000000298},{""stimulus"":""run_exp/static/images/task_images/rocket-07.jpg"",""time"":6453.29999999702},{""stimulus"":""run_exp/static/images/task_images/rocket-08.jpg"",""time"":7523.4000000059605},{""stimulus"":""run_exp/static/images/task_images/rocket-09.jpg"",""time"":8583}]",[],20,,,,,,,,,,,,,,
alien_welcome,387,996762,0.0-114.0-1.0,,null,run_exp/static/images/task_images/aliens/old_aliens/planet/alien_planet-30.jpg,null,,,,,,,,,,,,30,"25,32,18,39,22,73,13,67,75,45,42,71,74,55,78,64,24,72,19,38,30,37,50,49,79,2,51,58,27,9,34,21,36,80,23,43,1,15",,,,,,,,,,
land,388,997271,0.0-114.0-2.0,,null,run_exp/static/images/task_images/land.jpg,null,,,,,,102,,,21,,,,,,,,,,,,,,
dig,389,999291,0.0-114.0-3.0,,,,,,,,,,,"[{""stimulus"":""run_exp/static/images/task_images/dig.jpg"",""time"":0.5},{""stimulus"":""run_exp/static/images/task_images/land.jpg"",""time"":687.7000000029802},{""stimulus"":""run_exp/static/images/task_images/dig.jpg"",""time"":1344.9000000059605}]",[],21,,,,,,,,,,,,,,
harvest,390,1000302,0.0-114.0-4.0,,null,run_exp/static/images/task_images/gems/102.jpg,null,,,,,,82,,,21,,,,,102,0.806253609,0.803921569,,,,,,,
decision,391,1000727,0.0-114.0-5.0,,423.2,run_exp/static/images/task_images/land.jpg,65,,,,,,82,,,21,,,,,,,,35633,3,0,FALSE,,,
dig,392,1003322,0.0-115.0-0.0,,,,,,,,,,,"[{""stimulus"":""run_exp/static/images/task_images/dig.jpg"",""time"":0.19999998807907104},{""stimulus"":""run_exp/static/images/task_images/land.jpg"",""time"":859.3999999910593},{""stimulus"":""run_exp/static/images/task_images/dig.jpg"",""time"":1718.199999988079}]",[],21,,,,,,,,,,,,,,
harvest,393,1004331,0.0-115.0-1.0,,null,run_exp/static/images/task_images/gems/82.jpg,null,,,,,,66,,,21,,,,,82,0.804861643,0.804878049,,,,,,,
decision,394,1004774,0.0-115.0-2.0,,440.6,run_exp/static/images/task_images/land.jpg,65,,,,,,66,,,21,,,,,,,,39681,3,1,FALSE,,,
dig,395,1007352,0.0-116.0-0.0,,,,,,,,,,,"[{""stimulus"":""run_exp/static/images/task_images/dig.jpg"",""time"":0.20000000298023224},{""stimulus"":""run_exp/static/images/task_images/land.jpg"",""time"":871.3999999910593},{""stimulus"":""run_exp/static/images/task_images/dig.jpg"",""time"":1711.0999999940395}]",[],21,,,,,,,,,,,,,,
harvest,396,1008361,0.0-116.0-1.0,,null,run_exp/static/images/task_images/gems/66.jpg,null,,,,,,56,,,21,,,,,66,0.853736564,0.848484848,,,,,,,
decision,397,1008797,0.0-116.0-2.0,,432.7,run_exp/static/images/task_images/land.jpg,65,,,,,,56,,,21,,,,,,,,43703,3,2,FALSE,,,
dig,398,1011382,0.0-117.0-0.0,,,,,,,,,,,"[{""stimulus"":""run_exp/static/images/task_images/dig.jpg"",""time"":0.4000000059604645},{""stimulus"":""run_exp/static/images/task_images/land.jpg"",""time"":875.1000000089407},{""stimulus"":""run_exp/static/images/task_images/dig.jpg"",""time"":1714.7999999970198}]",[],21,,,,,,,,,,,,,,
harvest,399,1012392,0.0-117.0-1.0,,null,run_exp/static/images/task_images/gems/56.jpg,null,,,,,,44,,,21,,,,,56,0.789277186,0.785714286,,,,,,,
decision,400,1013476,0.0-117.0-2.0,,1080.9,run_exp/static/images/task_images/land.jpg,65,,,,,,44,,,21,,,,,,,,48382,3,3,FALSE,,,
dig,401,1015402,0.0-118.0-0.0,,,,,,,,,,,"[{""stimulus"":""run_exp/static/images/task_images/dig.jpg"",""time"":0.09999999403953552},{""stimulus"":""run_exp/static/images/task_images/land.jpg"",""time"":649.3999999910593},{""stimulus"":""run_exp/static/images/task_images/dig.jpg"",""time"":1299.5999999940395}]",[],21,,,,,,,,,,,,,,
harvest,402,1016411,0.0-118.0-1.0,,null,run_exp/static/images/task_images/gems/44.jpg,null,,,,,,33,,,21,,,,,44,0.755972565,0.75,,,,,,,
decision,403,1016938,0.0-118.0-2.0,,524.7,run_exp/static/images/task_images/land.jpg,65,,,,,,33,,,21,,,,,,,,51845,3,4,FALSE,,,
dig,404,1019431,0.0-119.0-0.0,,,,,,,,,,,"[{""stimulus"":""run_exp/static/images/task_images/dig.jpg"",""time"":0},{""stimulus"":""run_exp/static/images/task_images/land.jpg"",""time"":837.1000000089407},{""stimulus"":""run_exp/static/images/task_images/dig.jpg"",""time"":1656.9000000059605}]",[],21,,,,,,,,,,,,,,
harvest,405,1020441,0.0-119.0-1.0,,null,run_exp/static/images/task_images/gems/33.jpg,null,,,,,,28,,,21,,,,,33,0.85840238,0.848484848,,,,,,,
decision,406,1020803,0.0-119.0-2.0,,359.1,run_exp/static/images/task_images/land.jpg,65,,,,,,28,,,21,,,,,,,,55709,3,5,FALSE,,,
