trial_type,trial_index,time_elapsed,internal_node_id,interactions,blur_events,focus_events,fullscreenenter_events,fullscreenexit_events,success,rt,stimulus,key_press,prompt,subject_id,participant_id,age,gender,button_pressed,next_reward,animation_sequence,responses,planet,curr_prac_trial,n_prac_rounds,alien,aliens,reward_received,decay_rate_actual,decay_rate_exp,time_in_block,block_num,prt,last_trial_on_planet,button_html,bonus,num_failures
pavlovia,0,5,0.0-0.0,"""event"",""trial"",""time""
""blur"",""0"",""0""
""focus"",""0"",""0""
""blur"",""0"",""0""
""focus"",""0"",""0""
""blur"",""1"",""266707""
""focus"",""1"",""306072""
""fullscreenenter"",""1"",""308278""
","""event"",""trial"",""time""
""blur"",""0"",""0""
""blur"",""0"",""0""
""blur"",""1"",""266707""
","""event"",""trial"",""time""
""focus"",""0"",""0""
""focus"",""0"",""0""
""focus"",""1"",""306072""
","""event"",""trial"",""time""
""fullscreenenter"",""1"",""308278""
","
",,,,,,,,,,,,,,,,,,,,,,,,,,,,
fullscreen,1,309265,0.0-1.0,"""event"",""trial"",""time""
""blur"",""0"",""0""
""focus"",""0"",""0""
""blur"",""0"",""0""
""focus"",""0"",""0""
""blur"",""1"",""266707""
""focus"",""1"",""306072""
""fullscreenenter"",""1"",""308278""
","""event"",""trial"",""time""
""blur"",""0"",""0""
""blur"",""0"",""0""
""blur"",""1"",""266707""
","""event"",""trial"",""time""
""focus"",""0"",""0""
""focus"",""0"",""0""
""focus"",""1"",""306072""
","""event"",""trial"",""time""
""fullscreenenter"",""1"",""308278""
","
",TRUE,,,,,,,,,,,,,,,,,,,,,,,,,,,
instruc_welcome,2,319260,0.0-2.0,"""event"",""trial"",""time""
""blur"",""0"",""0""
""focus"",""0"",""0""
""blur"",""0"",""0""
""focus"",""0"",""0""
""blur"",""1"",""266707""
""focus"",""1"",""306072""
""fullscreenenter"",""1"",""308278""
","""event"",""trial"",""time""
""blur"",""0"",""0""
""blur"",""0"",""0""
""blur"",""1"",""266707""
","""event"",""trial"",""time""
""focus"",""0"",""0""
""focus"",""0"",""0""
""focus"",""1"",""306072""
","""event"",""trial"",""time""
""fullscreenenter"",""1"",""308278""
","
",,null,run_exp/static/audio/clip_1_welcome.m4a,null,"<p>Howdy! In this experiment, you’ll be an explorer traveling through space to collect space treasure.</p><p>Your mission is to collect as much treasure as possible.</p><br><br><p><img src='run_exp/static/images/task_images/opening_img-01.jpg' height='300' width='auto'></p>",9544,758,15.12,Male,,,,,,,,,,,,,,,,,,,
audio-keyboard-response,3,336163,0.0-3.0,"""event"",""trial"",""time""
""blur"",""0"",""0""
""focus"",""0"",""0""
""blur"",""0"",""0""
""focus"",""0"",""0""
""blur"",""1"",""266707""
""focus"",""1"",""306072""
""fullscreenenter"",""1"",""308278""
","""event"",""trial"",""time""
""blur"",""0"",""0""
""blur"",""0"",""0""
""blur"",""1"",""266707""
","""event"",""trial"",""time""
""focus"",""0"",""0""
""focus"",""0"",""0""
""focus"",""1"",""306072""
","""event"",""trial"",""time""
""fullscreenenter"",""1"",""308278""
","
",,null,run_exp/static/audio/clip_2_move.m4a,null,,,,,,,,,,,,,,,,,,,,,,,,
welcome_dec,4,339099,0.0-4.0,"""event"",""trial"",""time""
""blur"",""0"",""0""
""focus"",""0"",""0""
""blur"",""0"",""0""
""focus"",""0"",""0""
""blur"",""1"",""266707""
""focus"",""1"",""306072""
""fullscreenenter"",""1"",""308278""
","""event"",""trial"",""time""
""blur"",""0"",""0""
""blur"",""0"",""0""
""blur"",""1"",""266707""
","""event"",""trial"",""time""
""focus"",""0"",""0""
""focus"",""0"",""0""
""focus"",""1"",""306072""
","""event"",""trial"",""time""
""fullscreenenter"",""1"",""308278""
","
",,2931.4,"<p>Howdy! In this experiment, you’ll be an explorer traveling through space to collect space treasure.</p><p>Your mission is to collect as much treasure as possible.</p><br><br><p><img src='run_exp/static/images/task_images/opening_img-01.jpg' height='300' width='auto'></p>",,,,,,,1,,,,,,,,,,,,,,,,,,
html-keyboard-response,5,340018,0.0-5.0,"""event"",""trial"",""time""
""blur"",""0"",""0""
""focus"",""0"",""0""
""blur"",""0"",""0""
""focus"",""0"",""0""
""blur"",""1"",""266707""
""focus"",""1"",""306072""
""fullscreenenter"",""1"",""308278""
","""event"",""trial"",""time""
""blur"",""0"",""0""
""blur"",""0"",""0""
""blur"",""1"",""266707""
","""event"",""trial"",""time""
""focus"",""0"",""0""
""focus"",""0"",""0""
""focus"",""1"",""306072""
","""event"",""trial"",""time""
""fullscreenenter"",""1"",""308278""
","
",,916.1,"<p>Howdy! In this experiment, you’ll be an explorer traveling through space to collect space treasure.</p><p>Your mission is to collect as much treasure as possible.</p><br><br><p><img src='run_exp/static/images/task_images/opening_img-01.jpg' height='300' width='auto'></p><button class=""jspsych-html-btn-unchosen""><img src=""run_exp/static/images/task_images/planet-01.jpg"" height=""50""></button><button class=""jspsych-html-btn-chosen""><img src=""run_exp/static/images/task_images/planet-02.jpg"" height=""50""></button><p><b>[press the space bar to lock in your answer]<b><br></p>",32,,,,,,,,,,,,,,,,,,,,,,,,
instruc_goal,6,350377,0.0-6.0-0.0,"""event"",""trial"",""time""
""blur"",""0"",""0""
""focus"",""0"",""0""
""blur"",""0"",""0""
""focus"",""0"",""0""
""blur"",""1"",""266707""
""focus"",""1"",""306072""
""fullscreenenter"",""1"",""308278""
","""event"",""trial"",""time""
""blur"",""0"",""0""
""blur"",""0"",""0""
""blur"",""1"",""266707""
","""event"",""trial"",""time""
""focus"",""0"",""0""
""focus"",""0"",""0""
""focus"",""1"",""306072""
","""event"",""trial"",""time""
""fullscreenenter"",""1"",""308278""
","
",,null,run_exp/static/audio/clip_3_goal.m4a,null,"<p> As a space explorer, you’ll visit different planets to dig for space treasure, these pink gems.</p> <p> The more treasure you dig up, the more bonus money you’ll win! </p><br><br><p><img src='run_exp/static/images/task_images/pink_gem.jpg' height='300' width='auto'></p>",,,,,,,,,,,,,,,,,,,,,,,
instruc_goal,7,378267,0.0-6.0-1.0,"""event"",""trial"",""time""
""blur"",""0"",""0""
""focus"",""0"",""0""
""blur"",""0"",""0""
""focus"",""0"",""0""
""blur"",""1"",""266707""
""focus"",""1"",""306072""
""fullscreenenter"",""1"",""308278""
","""event"",""trial"",""time""
""blur"",""0"",""0""
""blur"",""0"",""0""
""blur"",""1"",""266707""
","""event"",""trial"",""time""
""focus"",""0"",""0""
""focus"",""0"",""0""
""focus"",""1"",""306072""
","""event"",""trial"",""time""
""fullscreenenter"",""1"",""308278""
","
",,27886.3,"<p> As a space explorer, you’ll visit different planets to dig for space treasure, these pink gems.</p> <p> The more treasure you dig up, the more bonus money you’ll win! </p><br><br><p><img src='run_exp/static/images/task_images/pink_gem.jpg' height='300' width='auto'></p>",,,,,,,1,,,,,,,,,,,,,,,,,,
html-keyboard-response,8,378706,0.0-6.0-2.0,"""event"",""trial"",""time""
""blur"",""0"",""0""
""focus"",""0"",""0""
""blur"",""0"",""0""
""focus"",""0"",""0""
""blur"",""1"",""266707""
""focus"",""1"",""306072""
""fullscreenenter"",""1"",""308278""
","""event"",""trial"",""time""
""blur"",""0"",""0""
""blur"",""0"",""0""
""blur"",""1"",""266707""
","""event"",""trial"",""time""
""focus"",""0"",""0""
""focus"",""0"",""0""
""focus"",""1"",""306072""
","""event"",""trial"",""time""
""fullscreenenter"",""1"",""308278""
","
",,437.7,"<p> As a space explorer, you’ll visit different planets to dig for space treasure, these pink gems.</p> <p> The more treasure you dig up, the more bonus money you’ll win! </p><br><br><p><img src='run_exp/static/images/task_images/pink_gem.jpg' height='300' width='auto'></p><button class=""jspsych-html-btn-unchosen""><img src=""run_exp/static/images/task_images/planet-01.jpg"" height=""50""></button><button class=""jspsych-html-btn-chosen""><img src=""run_exp/static/images/task_images/planet-02.jpg"" height=""50""></button><p><b>[press the space bar to lock in your answer]<b><br></p>",32,,,,,,,,,,,,,,,,,,,,,,,,
instruc_dig,9,394975,0.0-7.0-0.0,"""event"",""trial"",""time""
""blur"",""0"",""0""
""focus"",""0"",""0""
""blur"",""0"",""0""
""focus"",""0"",""0""
""blur"",""1"",""266707""
""focus"",""1"",""306072""
""fullscreenenter"",""1"",""308278""
","""event"",""trial"",""time""
""blur"",""0"",""0""
""blur"",""0"",""0""
""blur"",""1"",""266707""
","""event"",""trial"",""time""
""focus"",""0"",""0""
""focus"",""0"",""0""
""focus"",""1"",""306072""
","""event"",""trial"",""time""
""fullscreenenter"",""1"",""308278""
","
",,null,run_exp/static/audio/clip_4_dig.m4a,null,,,,,,,100,,,,,,,,,,,,,,,,,
instruc_dig_try,10,404667,0.0-7.0-1.0,"""event"",""trial"",""time""
""blur"",""0"",""0""
""focus"",""0"",""0""
""blur"",""0"",""0""
""focus"",""0"",""0""
""blur"",""1"",""266707""
""focus"",""1"",""306072""
""fullscreenenter"",""1"",""308278""
","""event"",""trial"",""time""
""blur"",""0"",""0""
""blur"",""0"",""0""
""blur"",""1"",""266707""
","""event"",""trial"",""time""
""focus"",""0"",""0""
""focus"",""0"",""0""
""focus"",""1"",""306072""
","""event"",""trial"",""time""
""fullscreenenter"",""1"",""308278""
","
",,9689.4,"<p> When you’ve arrived at a new planet, you will dig once. </p> <p>Then, you get to decide if you want to stay on the planet and dig again or travel to a new planet and dig there.</p> <p> To stay and dig, press the letter <strong>‘A’</strong> on your keyboard. Try pressing it now! </p><p><img src='run_exp/static/images/task_images/land.jpg'  height='700' width='auto'></p>",65,"<p> When you’ve arrived at a new planet, you will dig once. </p> <p>Then, you get to decide if you want to stay on the planet and dig again or travel to a new planet and dig there.</p> <p> To stay and dig, press the letter <strong>‘A’</strong> on your keyboard. Try pressing it now! </p><p><img src='run_exp/static/images/task_images/land.jpg'  height='700' width='auto'></p>",,,,,,100,,,,,,,,,,,,,,,,,
dig_prac,11,406682,0.0-7.0-2.0,"""event"",""trial"",""time""
""blur"",""0"",""0""
""focus"",""0"",""0""
""blur"",""0"",""0""
""focus"",""0"",""0""
""blur"",""1"",""266707""
""focus"",""1"",""306072""
""fullscreenenter"",""1"",""308278""
","""event"",""trial"",""time""
""blur"",""0"",""0""
""blur"",""0"",""0""
""blur"",""1"",""266707""
","""event"",""trial"",""time""
""focus"",""0"",""0""
""focus"",""0"",""0""
""focus"",""1"",""306072""
","""event"",""trial"",""time""
""fullscreenenter"",""1"",""308278""
","
",,,,,,,,,,,,"[{""stimulus"":""run_exp/static/images/task_images/dig.jpg"",""time"":0.30000000074505806},{""stimulus"":""run_exp/static/images/task_images/land.jpg"",""time"":673.3000000007451},{""stimulus"":""run_exp/static/images/task_images/dig.jpg"",""time"":1336.300000000745}]",[],,,,,,,,,,,,,,,
instruc_travel,12,443122,0.0-7.0-3.0,"""event"",""trial"",""time""
""blur"",""0"",""0""
""focus"",""0"",""0""
""blur"",""0"",""0""
""focus"",""0"",""0""
""blur"",""1"",""266707""
""focus"",""1"",""306072""
""fullscreenenter"",""1"",""308278""
","""event"",""trial"",""time""
""blur"",""0"",""0""
""blur"",""0"",""0""
""blur"",""1"",""266707""
","""event"",""trial"",""time""
""focus"",""0"",""0""
""focus"",""0"",""0""
""focus"",""1"",""306072""
","""event"",""trial"",""time""
""fullscreenenter"",""1"",""308278""
","
",,null,run_exp/static/audio/clip_5_travel.m4a,null,"<p>Every time you dig up gems, there are less gems on the planet, so the more you dig on a planet the fewer gems you’ll get with each dig.</p><p>When gems are running low, you may want to travel to a new planet. </p> <p>  Planets are very far apart in this galaxy, so it will take some time to travel between them. </p> <br><p>There are lots and lots of planets for you to visit, so you won’t be able to return to any planets you’ve seen before. </p><br><p>To leave this planet and travel to a new one, press the letter <strong>‘L’</strong> on your keyboard. Try pressing it now! </p><p><img src='run_exp/static/images/task_images/rocket-01.jpg'  height='600' width='auto'></p>",,,,,,,,,,,,,,,,,,,,,,,
instruc_travel_try,13,451489,0.0-7.0-4.0,"""event"",""trial"",""time""
""blur"",""0"",""0""
""focus"",""0"",""0""
""blur"",""0"",""0""
""focus"",""0"",""0""
""blur"",""1"",""266707""
""focus"",""1"",""306072""
""fullscreenenter"",""1"",""308278""
","""event"",""trial"",""time""
""blur"",""0"",""0""
""blur"",""0"",""0""
""blur"",""1"",""266707""
","""event"",""trial"",""time""
""focus"",""0"",""0""
""focus"",""0"",""0""
""focus"",""1"",""306072""
","""event"",""trial"",""time""
""fullscreenenter"",""1"",""308278""
","
",,8364.8,"<p>Every time you dig up gems, there are less gems on the planet, so the more you dig on a planet the fewer gems you’ll get with each dig.</p><p>When gems are running low, you may want to travel to a new planet. </p> <p>  Planets are very far apart in this galaxy, so it will take some time to travel between them. </p> <br><p>There are lots and lots of planets for you to visit, so you won’t be able to return to any planets you’ve seen before. </p><br><p>To leave this planet and travel to a new one, press the letter <strong>‘L’</strong> on your keyboard. Try pressing it now! </p><p><img src='run_exp/static/images/task_images/rocket-01.jpg'  height='600' width='auto'></p>",76,"<p>Every time you dig up gems, there are less gems on the planet, so the more you dig on a planet the fewer gems you’ll get with each dig.</p><p>When gems are running low, you may want to travel to a new planet. </p> <p>  Planets are very far apart in this galaxy, so it will take some time to travel between them. </p> <br><p>There are lots and lots of planets for you to visit, so you won’t be able to return to any planets you’ve seen before. </p><br><p>To leave this planet and travel to a new one, press the letter <strong>‘L’</strong> on your keyboard. Try pressing it now! </p><p><img src='run_exp/static/images/task_images/rocket-01.jpg'  height='600' width='auto'></p>",,,,,,,,,,,,,,,,,,,,,,,
travel_prac,14,461498,0.0-7.0-5.0,"""event"",""trial"",""time""
""blur"",""0"",""0""
""focus"",""0"",""0""
""blur"",""0"",""0""
""focus"",""0"",""0""
""blur"",""1"",""266707""
""focus"",""1"",""306072""
""fullscreenenter"",""1"",""308278""
","""event"",""trial"",""time""
""blur"",""0"",""0""
""blur"",""0"",""0""
""blur"",""1"",""266707""
","""event"",""trial"",""time""
""focus"",""0"",""0""
""focus"",""0"",""0""
""focus"",""1"",""306072""
","""event"",""trial"",""time""
""fullscreenenter"",""1"",""308278""
","
",,,,,,,,,,,,"[{""stimulus"":""run_exp/static/images/task_images/rocket-01.jpg"",""time"":0.2999999998137355},{""stimulus"":""run_exp/static/images/task_images/rocket-02.jpg"",""time"":1118.5999999996275},{""stimulus"":""run_exp/static/images/task_images/rocket-03.jpg"",""time"":2230.5999999996275},{""stimulus"":""run_exp/static/images/task_images/rocket-04.jpg"",""time"":3334.7999999998137},{""stimulus"":""run_exp/static/images/task_images/rocket-05.jpg"",""time"":4446.799999999814},{""stimulus"":""run_exp/static/images/task_images/rocket-06.jpg"",""time"":5558.5999999996275},{""stimulus"":""run_exp/static/images/task_images/rocket-07.jpg"",""time"":6670.699999999255},{""stimulus"":""run_exp/static/images/task_images/rocket-08.jpg"",""time"":7782.5999999996275},{""stimulus"":""run_exp/static/images/task_images/rocket-09.jpg"",""time"":8894.599999999627}]",[],0,,,,,,,,,,,,,,
instruc_alien_greet,15,488795,0.0-7.0-6.0,"""event"",""trial"",""time""
""blur"",""0"",""0""
""focus"",""0"",""0""
""blur"",""0"",""0""
""focus"",""0"",""0""
""blur"",""1"",""266707""
""focus"",""1"",""306072""
""fullscreenenter"",""1"",""308278""
","""event"",""trial"",""time""
""blur"",""0"",""0""
""blur"",""0"",""0""
""blur"",""1"",""266707""
","""event"",""trial"",""time""
""focus"",""0"",""0""
""focus"",""0"",""0""
""focus"",""1"",""306072""
","""event"",""trial"",""time""
""fullscreenenter"",""1"",""308278""
","
",,null,run_exp/static/audio/clip_6_alien.m4a,null,"<p>When you arrive at a new planet, the alien who owns the treasure mine on that planet will greet you!</p><p>The better an alien takes care of their mine the easier it is to dig for gems. Some aliens take better care of their mine than others. So, you won’t get exactly the same amount of gems on each planet.</p><p>What the alien looks like does not tell you anything about how many gems there are on the planet.</p><br><p><img src=""run_exp/static/images/task_images/aliens/instructions_aliens/planet/alien_planet-1.jpg""  height=""600"" width=""auto""></p>",,,,,,,,,,,,,,,,,,,,,,,
instruc_alien_greet,16,491314,0.0-7.0-7.0,"""event"",""trial"",""time""
""blur"",""0"",""0""
""focus"",""0"",""0""
""blur"",""0"",""0""
""focus"",""0"",""0""
""blur"",""1"",""266707""
""focus"",""1"",""306072""
""fullscreenenter"",""1"",""308278""
","""event"",""trial"",""time""
""blur"",""0"",""0""
""blur"",""0"",""0""
""blur"",""1"",""266707""
","""event"",""trial"",""time""
""focus"",""0"",""0""
""focus"",""0"",""0""
""focus"",""1"",""306072""
","""event"",""trial"",""time""
""fullscreenenter"",""1"",""308278""
","
",,2515.1,"<p>When you arrive at a new planet, the alien who owns the treasure mine on that planet will greet you!</p><p>The better an alien takes care of their mine the easier it is to dig for gems. Some aliens take better care of their mine than others. So, you won’t get exactly the same amount of gems on each planet.</p><p>What the alien looks like does not tell you anything about how many gems there are on the planet.</p><br><p><img src=""run_exp/static/images/task_images/aliens/instructions_aliens/planet/alien_planet-1.jpg""  height=""600"" width=""auto""></p>",,,,,,,1,,,,,,,,,,,,,,,,,,
html-keyboard-response,17,491729,0.0-7.0-8.0,"""event"",""trial"",""time""
""blur"",""0"",""0""
""focus"",""0"",""0""
""blur"",""0"",""0""
""focus"",""0"",""0""
""blur"",""1"",""266707""
""focus"",""1"",""306072""
""fullscreenenter"",""1"",""308278""
","""event"",""trial"",""time""
""blur"",""0"",""0""
""blur"",""0"",""0""
""blur"",""1"",""266707""
","""event"",""trial"",""time""
""focus"",""0"",""0""
""focus"",""0"",""0""
""focus"",""1"",""306072""
","""event"",""trial"",""time""
""fullscreenenter"",""1"",""308278""
","
",,413.5,"<p>When you arrive at a new planet, the alien who owns the treasure mine on that planet will greet you!</p><p>The better an alien takes care of their mine the easier it is to dig for gems. Some aliens take better care of their mine than others. So, you won’t get exactly the same amount of gems on each planet.</p><p>What the alien looks like does not tell you anything about how many gems there are on the planet.</p><br><p><img src=""run_exp/static/images/task_images/aliens/instructions_aliens/planet/alien_planet-1.jpg""  height=""600"" width=""auto""></p><button class=""jspsych-html-btn-unchosen""><img src=""run_exp/static/images/task_images/planet-01.jpg"" height=""50""></button><button class=""jspsych-html-btn-chosen""><img src=""run_exp/static/images/task_images/planet-02.jpg"" height=""50""></button><p><b>[press the space bar to lock in your answer]<b><br></p>",32,,,,,,,,,,,,,,,,,,,,,,,,
time_out,18,503010,0.0-8.0-0.0,"""event"",""trial"",""time""
""blur"",""0"",""0""
""focus"",""0"",""0""
""blur"",""0"",""0""
""focus"",""0"",""0""
""blur"",""1"",""266707""
""focus"",""1"",""306072""
""fullscreenenter"",""1"",""308278""
","""event"",""trial"",""time""
""blur"",""0"",""0""
""blur"",""0"",""0""
""blur"",""1"",""266707""
","""event"",""trial"",""time""
""focus"",""0"",""0""
""focus"",""0"",""0""
""focus"",""1"",""306072""
","""event"",""trial"",""time""
""fullscreenenter"",""1"",""308278""
","
",,null,run_exp/static/audio/clip_7_timeout.m4a,null,"<p>If you don't make your choice fast enough, you’ll have to wait a few seconds before you can make another one.</p><p>You can’t dig for more gems or travel to new planets. You just have to sit and wait.</p><br><p><img src='run_exp/static/images/task_images/time_out.jpg'  height='600' width='auto'></p>",,,,,,,,,,,,,,,,,,,,,,,
time_out,19,505252,0.0-8.0-1.0,"""event"",""trial"",""time""
""blur"",""0"",""0""
""focus"",""0"",""0""
""blur"",""0"",""0""
""focus"",""0"",""0""
""blur"",""1"",""266707""
""focus"",""1"",""306072""
""fullscreenenter"",""1"",""308278""
","""event"",""trial"",""time""
""blur"",""0"",""0""
""blur"",""0"",""0""
""blur"",""1"",""266707""
","""event"",""trial"",""time""
""focus"",""0"",""0""
""focus"",""0"",""0""
""focus"",""1"",""306072""
","""event"",""trial"",""time""
""fullscreenenter"",""1"",""308278""
","
",,2239.7,"<p>If you don't make your choice fast enough, you’ll have to wait a few seconds before you can make another one.</p><p>You can’t dig for more gems or travel to new planets. You just have to sit and wait.</p><br><p><img src='run_exp/static/images/task_images/time_out.jpg'  height='600' width='auto'></p>",,,,,,,1,,,,,,,,,,,,,,,,,,
html-keyboard-response,20,505532,0.0-8.0-2.0,"""event"",""trial"",""time""
""blur"",""0"",""0""
""focus"",""0"",""0""
""blur"",""0"",""0""
""focus"",""0"",""0""
""blur"",""1"",""266707""
""focus"",""1"",""306072""
""fullscreenenter"",""1"",""308278""
","""event"",""trial"",""time""
""blur"",""0"",""0""
""blur"",""0"",""0""
""blur"",""1"",""266707""
","""event"",""trial"",""time""
""focus"",""0"",""0""
""focus"",""0"",""0""
""focus"",""1"",""306072""
","""event"",""trial"",""time""
""fullscreenenter"",""1"",""308278""
","
",,277.6,"<p>If you don't make your choice fast enough, you’ll have to wait a few seconds before you can make another one.</p><p>You can’t dig for more gems or travel to new planets. You just have to sit and wait.</p><br><p><img src='run_exp/static/images/task_images/time_out.jpg'  height='600' width='auto'></p><button class=""jspsych-html-btn-unchosen""><img src=""run_exp/static/images/task_images/planet-01.jpg"" height=""50""></button><button class=""jspsych-html-btn-chosen""><img src=""run_exp/static/images/task_images/planet-02.jpg"" height=""50""></button><p><b>[press the space bar to lock in your answer]<b><br></p>",32,,,,,,,,,,,,,,,,,,,,,,,,
instruc_break,21,521451,0.0-9.0-0.0,"""event"",""trial"",""time""
""blur"",""0"",""0""
""focus"",""0"",""0""
""blur"",""0"",""0""
""focus"",""0"",""0""
""blur"",""1"",""266707""
""focus"",""1"",""306072""
""fullscreenenter"",""1"",""308278""
","""event"",""trial"",""time""
""blur"",""0"",""0""
""blur"",""0"",""0""
""blur"",""1"",""266707""
","""event"",""trial"",""time""
""focus"",""0"",""0""
""focus"",""0"",""0""
""focus"",""1"",""306072""
","""event"",""trial"",""time""
""fullscreenenter"",""1"",""308278""
","
",,null,run_exp/static/audio/clip_8_break.m4a,null,"<p> After digging and traveling for a while, you’ll be able to take a break at home base. </p><p>The game will last 20 minutes no matter what.</p><p>You will visit home base every 5 minutes, so, you will visit home base three times during the game.</p><br><p><img src='run_exp/static/images/task_images/home_base.jpg' height='600' width='auto'></p>",,,,,,,,,,,,,,,,,,,,,,,
instruc_break,22,523170,0.0-9.0-1.0,"""event"",""trial"",""time""
""blur"",""0"",""0""
""focus"",""0"",""0""
""blur"",""0"",""0""
""focus"",""0"",""0""
""blur"",""1"",""266707""
""focus"",""1"",""306072""
""fullscreenenter"",""1"",""308278""
","""event"",""trial"",""time""
""blur"",""0"",""0""
""blur"",""0"",""0""
""blur"",""1"",""266707""
","""event"",""trial"",""time""
""focus"",""0"",""0""
""focus"",""0"",""0""
""focus"",""1"",""306072""
","""event"",""trial"",""time""
""fullscreenenter"",""1"",""308278""
","
",,1716.5,"<p> After digging and traveling for a while, you’ll be able to take a break at home base. </p><p>The game will last 20 minutes no matter what.</p><p>You will visit home base every 5 minutes, so, you will visit home base three times during the game.</p><br><p><img src='run_exp/static/images/task_images/home_base.jpg' height='600' width='auto'></p>",,,,,,,1,,,,,,,,,,,,,,,,,,
html-keyboard-response,23,523481,0.0-9.0-2.0,"""event"",""trial"",""time""
""blur"",""0"",""0""
""focus"",""0"",""0""
""blur"",""0"",""0""
""focus"",""0"",""0""
""blur"",""1"",""266707""
""focus"",""1"",""306072""
""fullscreenenter"",""1"",""308278""
","""event"",""trial"",""time""
""blur"",""0"",""0""
""blur"",""0"",""0""
""blur"",""1"",""266707""
","""event"",""trial"",""time""
""focus"",""0"",""0""
""focus"",""0"",""0""
""focus"",""1"",""306072""
","""event"",""trial"",""time""
""fullscreenenter"",""1"",""308278""
","
",,309.1,"<p> After digging and traveling for a while, you’ll be able to take a break at home base. </p><p>The game will last 20 minutes no matter what.</p><p>You will visit home base every 5 minutes, so, you will visit home base three times during the game.</p><br><p><img src='run_exp/static/images/task_images/home_base.jpg' height='600' width='auto'></p><button class=""jspsych-html-btn-unchosen""><img src=""run_exp/static/images/task_images/planet-01.jpg"" height=""50""></button><button class=""jspsych-html-btn-chosen""><img src=""run_exp/static/images/task_images/planet-02.jpg"" height=""50""></button><p><b>[press the space bar to lock in your answer]<b><br></p>",32,,,,,,,,,,,,,,,,,,,,,,,,
instruc_prac_game,24,533874,0.0-10.0-0.0,"""event"",""trial"",""time""
""blur"",""0"",""0""
""focus"",""0"",""0""
""blur"",""0"",""0""
""focus"",""0"",""0""
""blur"",""1"",""266707""
""focus"",""1"",""306072""
""fullscreenenter"",""1"",""308278""
","""event"",""trial"",""time""
""blur"",""0"",""0""
""blur"",""0"",""0""
""blur"",""1"",""266707""
","""event"",""trial"",""time""
""focus"",""0"",""0""
""focus"",""0"",""0""
""focus"",""1"",""306072""
","""event"",""trial"",""time""
""fullscreenenter"",""1"",""308278""
","
",,null,run_exp/static/audio/clip_9_practice.m4a,null,"<p> Are you ready to play a practice game? </p> <p>In this practice game, you'll be digging up barrels of gems. But, in the real game, you'll be digging up the gems themselves. </p>",,,,,,,,,,,,,,,,,,,,,,,
html-button-response,25,536191,0.0-10.0-1.0,"""event"",""trial"",""time""
""blur"",""0"",""0""
""focus"",""0"",""0""
""blur"",""0"",""0""
""focus"",""0"",""0""
""blur"",""1"",""266707""
""focus"",""1"",""306072""
""fullscreenenter"",""1"",""308278""
","""event"",""trial"",""time""
""blur"",""0"",""0""
""blur"",""0"",""0""
""blur"",""1"",""266707""
","""event"",""trial"",""time""
""focus"",""0"",""0""
""focus"",""0"",""0""
""focus"",""1"",""306072""
","""event"",""trial"",""time""
""fullscreenenter"",""1"",""308278""
","
",,2315.1,"<p> Are you ready to play a practice game? </p> <p>In this practice game, you'll be digging up barrels of gems. But, in the real game, you'll be digging up the gems themselves. </p>",,,,,,,0,,,,,,,,,,,,,,,,,,
alien_welcome_prac,26,541202,0.0-11.0-0.0,"""event"",""trial"",""time""
""blur"",""0"",""0""
""focus"",""0"",""0""
""blur"",""0"",""0""
""focus"",""0"",""0""
""blur"",""1"",""266707""
""focus"",""1"",""306072""
""fullscreenenter"",""1"",""308278""
","""event"",""trial"",""time""
""blur"",""0"",""0""
""blur"",""0"",""0""
""blur"",""1"",""266707""
","""event"",""trial"",""time""
""focus"",""0"",""0""
""focus"",""0"",""0""
""focus"",""1"",""306072""
","""event"",""trial"",""time""
""fullscreenenter"",""1"",""308278""
","
",,null,run_exp/static/images/task_images/aliens/practice_aliens/planet/alien_planet-5.jpg,null,,,,,,,,,,,,,,,,,,,,,,,,
land_prac,27,541706,0.0-11.0-1.0,"""event"",""trial"",""time""
""blur"",""0"",""0""
""focus"",""0"",""0""
""blur"",""0"",""0""
""focus"",""0"",""0""
""blur"",""1"",""266707""
""focus"",""1"",""306072""
""fullscreenenter"",""1"",""308278""
","""event"",""trial"",""time""
""blur"",""0"",""0""
""blur"",""0"",""0""
""blur"",""1"",""266707""
","""event"",""trial"",""time""
""focus"",""0"",""0""
""focus"",""0"",""0""
""focus"",""1"",""306072""
","""event"",""trial"",""time""
""fullscreenenter"",""1"",""308278""
","
",,null,run_exp/static/images/task_images/land.jpg,null,,,,,,,108,,,0,,,,,,,,,,,,,,
dig_prac,28,543713,0.0-11.0-2.0,"""event"",""trial"",""time""
""blur"",""0"",""0""
""focus"",""0"",""0""
""blur"",""0"",""0""
""focus"",""0"",""0""
""blur"",""1"",""266707""
""focus"",""1"",""306072""
""fullscreenenter"",""1"",""308278""
","""event"",""trial"",""time""
""blur"",""0"",""0""
""blur"",""0"",""0""
""blur"",""1"",""266707""
","""event"",""trial"",""time""
""focus"",""0"",""0""
""focus"",""0"",""0""
""focus"",""1"",""306072""
","""event"",""trial"",""time""
""fullscreenenter"",""1"",""308278""
","
",,,,,,,,,,,,"[{""stimulus"":""run_exp/static/images/task_images/dig.jpg"",""time"":0.2999999998137355},{""stimulus"":""run_exp/static/images/task_images/land.jpg"",""time"":670.5},{""stimulus"":""run_exp/static/images/task_images/dig.jpg"",""time"":1342.5}]",[],,,,,,,,,,,,,,,
harvest_prac,29,544721,0.0-11.0-3.0,"""event"",""trial"",""time""
""blur"",""0"",""0""
""focus"",""0"",""0""
""blur"",""0"",""0""
""focus"",""0"",""0""
""blur"",""1"",""266707""
""focus"",""1"",""306072""
""fullscreenenter"",""1"",""308278""
","""event"",""trial"",""time""
""blur"",""0"",""0""
""blur"",""0"",""0""
""blur"",""1"",""266707""
","""event"",""trial"",""time""
""focus"",""0"",""0""
""focus"",""0"",""0""
""focus"",""1"",""306072""
","""event"",""trial"",""time""
""fullscreenenter"",""1"",""308278""
","
",,null,run_exp/static/images/task_images/barrel_text.jpg,null,,,,,,,,,,,,,,,,,,,,,,,,
decision_prac,30,546551,0.0-11.0-4.0,"""event"",""trial"",""time""
""blur"",""0"",""0""
""focus"",""0"",""0""
""blur"",""0"",""0""
""focus"",""0"",""0""
""blur"",""1"",""266707""
""focus"",""1"",""306072""
""fullscreenenter"",""1"",""308278""
","""event"",""trial"",""time""
""blur"",""0"",""0""
""blur"",""0"",""0""
""blur"",""1"",""266707""
","""event"",""trial"",""time""
""focus"",""0"",""0""
""focus"",""0"",""0""
""focus"",""1"",""306072""
","""event"",""trial"",""time""
""fullscreenenter"",""1"",""308278""
","
",,1827.7,run_exp/static/images/task_images/land.jpg,65,,,,,,,,,,,1,,,,,,,,,,,,,
dig_prac,31,548561,0.0-12.0-0.0,"""event"",""trial"",""time""
""blur"",""0"",""0""
""focus"",""0"",""0""
""blur"",""0"",""0""
""focus"",""0"",""0""
""blur"",""1"",""266707""
""focus"",""1"",""306072""
""fullscreenenter"",""1"",""308278""
","""event"",""trial"",""time""
""blur"",""0"",""0""
""blur"",""0"",""0""
""blur"",""1"",""266707""
","""event"",""trial"",""time""
""focus"",""0"",""0""
""focus"",""0"",""0""
""focus"",""1"",""306072""
","""event"",""trial"",""time""
""fullscreenenter"",""1"",""308278""
","
",,,,,,,,,,,,"[{""stimulus"":""run_exp/static/images/task_images/dig.jpg"",""time"":0.20000000018626451},{""stimulus"":""run_exp/static/images/task_images/land.jpg"",""time"":671.2000000001863},{""stimulus"":""run_exp/static/images/task_images/dig.jpg"",""time"":1335.2000000001863}]",[],,,,,,,,,,,,,,,
harvest_prac,32,549570,0.0-12.0-1.0,"""event"",""trial"",""time""
""blur"",""0"",""0""
""focus"",""0"",""0""
""blur"",""0"",""0""
""focus"",""0"",""0""
""blur"",""1"",""266707""
""focus"",""1"",""306072""
""fullscreenenter"",""1"",""308278""
","""event"",""trial"",""time""
""blur"",""0"",""0""
""blur"",""0"",""0""
""blur"",""1"",""266707""
","""event"",""trial"",""time""
""focus"",""0"",""0""
""focus"",""0"",""0""
""focus"",""1"",""306072""
","""event"",""trial"",""time""
""fullscreenenter"",""1"",""308278""
","
",,null,run_exp/static/images/task_images/barrel_text.jpg,null,,,,,,,,,,,,,,,,,,,,,,,,
decision_prac,33,549946,0.0-12.0-2.0,"""event"",""trial"",""time""
""blur"",""0"",""0""
""focus"",""0"",""0""
""blur"",""0"",""0""
""focus"",""0"",""0""
""blur"",""1"",""266707""
""focus"",""1"",""306072""
""fullscreenenter"",""1"",""308278""
","""event"",""trial"",""time""
""blur"",""0"",""0""
""blur"",""0"",""0""
""blur"",""1"",""266707""
","""event"",""trial"",""time""
""focus"",""0"",""0""
""focus"",""0"",""0""
""focus"",""1"",""306072""
","""event"",""trial"",""time""
""fullscreenenter"",""1"",""308278""
","
",,375.1,run_exp/static/images/task_images/land.jpg,65,,,,,,,,,,,2,,,,,,,,,,,,,
dig_prac,34,551953,0.0-13.0-0.0,"""event"",""trial"",""time""
""blur"",""0"",""0""
""focus"",""0"",""0""
""blur"",""0"",""0""
""focus"",""0"",""0""
""blur"",""1"",""266707""
""focus"",""1"",""306072""
""fullscreenenter"",""1"",""308278""
","""event"",""trial"",""time""
""blur"",""0"",""0""
""blur"",""0"",""0""
""blur"",""1"",""266707""
","""event"",""trial"",""time""
""focus"",""0"",""0""
""focus"",""0"",""0""
""focus"",""1"",""306072""
","""event"",""trial"",""time""
""fullscreenenter"",""1"",""308278""
","
",,,,,,,,,,,,"[{""stimulus"":""run_exp/static/images/task_images/dig.jpg"",""time"":0.2999999998137355},{""stimulus"":""run_exp/static/images/task_images/land.jpg"",""time"":676.2999999998137},{""stimulus"":""run_exp/static/images/task_images/dig.jpg"",""time"":1340.2000000001863}]",[],,,,,,,,,,,,,,,
harvest_prac,35,552962,0.0-13.0-1.0,"""event"",""trial"",""time""
""blur"",""0"",""0""
""focus"",""0"",""0""
""blur"",""0"",""0""
""focus"",""0"",""0""
""blur"",""1"",""266707""
""focus"",""1"",""306072""
""fullscreenenter"",""1"",""308278""
","""event"",""trial"",""time""
""blur"",""0"",""0""
""blur"",""0"",""0""
""blur"",""1"",""266707""
","""event"",""trial"",""time""
""focus"",""0"",""0""
""focus"",""0"",""0""
""focus"",""1"",""306072""
","""event"",""trial"",""time""
""fullscreenenter"",""1"",""308278""
","
",,null,run_exp/static/images/task_images/barrel_text.jpg,null,,,,,,,,,,,,,,,,,,,,,,,,
decision_prac,36,553325,0.0-13.0-2.0,"""event"",""trial"",""time""
""blur"",""0"",""0""
""focus"",""0"",""0""
""blur"",""0"",""0""
""focus"",""0"",""0""
""blur"",""1"",""266707""
""focus"",""1"",""306072""
""fullscreenenter"",""1"",""308278""
","""event"",""trial"",""time""
""blur"",""0"",""0""
""blur"",""0"",""0""
""blur"",""1"",""266707""
","""event"",""trial"",""time""
""focus"",""0"",""0""
""focus"",""0"",""0""
""focus"",""1"",""306072""
","""event"",""trial"",""time""
""fullscreenenter"",""1"",""308278""
","
",,362.1,run_exp/static/images/task_images/land.jpg,65,,,,,,,,,,,3,,,,,,,,,,,,,
dig_prac,37,555337,0.0-14.0-0.0,"""event"",""trial"",""time""
""blur"",""0"",""0""
""focus"",""0"",""0""
""blur"",""0"",""0""
""focus"",""0"",""0""
""blur"",""1"",""266707""
""focus"",""1"",""306072""
""fullscreenenter"",""1"",""308278""
","""event"",""trial"",""time""
""blur"",""0"",""0""
""blur"",""0"",""0""
""blur"",""1"",""266707""
","""event"",""trial"",""time""
""focus"",""0"",""0""
""focus"",""0"",""0""
""focus"",""1"",""306072""
","""event"",""trial"",""time""
""fullscreenenter"",""1"",""308278""
","
",,,,,,,,,,,,"[{""stimulus"":""run_exp/static/images/task_images/dig.jpg"",""time"":0.2999999998137355},{""stimulus"":""run_exp/static/images/task_images/land.jpg"",""time"":672.9000000003725},{""stimulus"":""run_exp/static/images/task_images/dig.jpg"",""time"":1336.7000000001863}]",[],,,,,,,,,,,,,,,
harvest_prac,38,556346,0.0-14.0-1.0,"""event"",""trial"",""time""
""blur"",""0"",""0""
""focus"",""0"",""0""
""blur"",""0"",""0""
""focus"",""0"",""0""
""blur"",""1"",""266707""
""focus"",""1"",""306072""
""fullscreenenter"",""1"",""308278""
","""event"",""trial"",""time""
""blur"",""0"",""0""
""blur"",""0"",""0""
""blur"",""1"",""266707""
","""event"",""trial"",""time""
""focus"",""0"",""0""
""focus"",""0"",""0""
""focus"",""1"",""306072""
","""event"",""trial"",""time""
""fullscreenenter"",""1"",""308278""
","
",,null,run_exp/static/images/task_images/barrel_text.jpg,null,,,,,,,,,,,,,,,,,,,,,,,,
decision_prac,39,556627,0.0-14.0-2.0,"""event"",""trial"",""time""
""blur"",""0"",""0""
""focus"",""0"",""0""
""blur"",""0"",""0""
""focus"",""0"",""0""
""blur"",""1"",""266707""
""focus"",""1"",""306072""
""fullscreenenter"",""1"",""308278""
","""event"",""trial"",""time""
""blur"",""0"",""0""
""blur"",""0"",""0""
""blur"",""1"",""266707""
","""event"",""trial"",""time""
""focus"",""0"",""0""
""focus"",""0"",""0""
""focus"",""1"",""306072""
","""event"",""trial"",""time""
""fullscreenenter"",""1"",""308278""
","
",,280.1,run_exp/static/images/task_images/land.jpg,65,,,,,,,,,,,4,,,,,,,,,,,,,
dig_prac,40,558633,0.0-15.0-0.0,"""event"",""trial"",""time""
""blur"",""0"",""0""
""focus"",""0"",""0""
""blur"",""0"",""0""
""focus"",""0"",""0""
""blur"",""1"",""266707""
""focus"",""1"",""306072""
""fullscreenenter"",""1"",""308278""
","""event"",""trial"",""time""
""blur"",""0"",""0""
""blur"",""0"",""0""
""blur"",""1"",""266707""
","""event"",""trial"",""time""
""focus"",""0"",""0""
""focus"",""0"",""0""
""focus"",""1"",""306072""
","""event"",""trial"",""time""
""fullscreenenter"",""1"",""308278""
","
",,,,,,,,,,,,"[{""stimulus"":""run_exp/static/images/task_images/dig.jpg"",""time"":0.2999999998137355},{""stimulus"":""run_exp/static/images/task_images/land.jpg"",""time"":675.4000000003725},{""stimulus"":""run_exp/static/images/task_images/dig.jpg"",""time"":1339.5}]",[],,,,,,,,,,,,,,,
harvest_prac,41,559642,0.0-15.0-1.0,"""event"",""trial"",""time""
""blur"",""0"",""0""
""focus"",""0"",""0""
""blur"",""0"",""0""
""focus"",""0"",""0""
""blur"",""1"",""266707""
""focus"",""1"",""306072""
""fullscreenenter"",""1"",""308278""
","""event"",""trial"",""time""
""blur"",""0"",""0""
""blur"",""0"",""0""
""blur"",""1"",""266707""
","""event"",""trial"",""time""
""focus"",""0"",""0""
""focus"",""0"",""0""
""focus"",""1"",""306072""
","""event"",""trial"",""time""
""fullscreenenter"",""1"",""308278""
","
",,null,run_exp/static/images/task_images/barrel_text.jpg,null,,,,,,,,,,,,,,,,,,,,,,,,
decision_prac,42,559975,0.0-15.0-2.0,"""event"",""trial"",""time""
""blur"",""0"",""0""
""focus"",""0"",""0""
""blur"",""0"",""0""
""focus"",""0"",""0""
""blur"",""1"",""266707""
""focus"",""1"",""306072""
""fullscreenenter"",""1"",""308278""
","""event"",""trial"",""time""
""blur"",""0"",""0""
""blur"",""0"",""0""
""blur"",""1"",""266707""
","""event"",""trial"",""time""
""focus"",""0"",""0""
""focus"",""0"",""0""
""focus"",""1"",""306072""
","""event"",""trial"",""time""
""fullscreenenter"",""1"",""308278""
","
",,330.2,run_exp/static/images/task_images/land.jpg,65,,,,,,,,,,,,1,,,,,,,,,,,,
quiz_instruc,43,563001,0.0-16.0-0.0,"""event"",""trial"",""time""
""blur"",""0"",""0""
""focus"",""0"",""0""
""blur"",""0"",""0""
""focus"",""0"",""0""
""blur"",""1"",""266707""
""focus"",""1"",""306072""
""fullscreenenter"",""1"",""308278""
","""event"",""trial"",""time""
""blur"",""0"",""0""
""blur"",""0"",""0""
""blur"",""1"",""266707""
","""event"",""trial"",""time""
""focus"",""0"",""0""
""focus"",""0"",""0""
""focus"",""1"",""306072""
","""event"",""trial"",""time""
""fullscreenenter"",""1"",""308278""
","
",,3021.6,run_exp/static/audio/clip_10_quiz.m4a,,,,,,,0,,,,,,,,,,,,,,,,,,
instruc_repeat,44,606130,0.0-16.0-1.0,"""event"",""trial"",""time""
""blur"",""0"",""0""
""focus"",""0"",""0""
""blur"",""0"",""0""
""focus"",""0"",""0""
""blur"",""1"",""266707""
""focus"",""1"",""306072""
""fullscreenenter"",""1"",""308278""
","""event"",""trial"",""time""
""blur"",""0"",""0""
""blur"",""0"",""0""
""blur"",""1"",""266707""
","""event"",""trial"",""time""
""focus"",""0"",""0""
""focus"",""0"",""0""
""focus"",""1"",""306072""
","""event"",""trial"",""time""
""fullscreenenter"",""1"",""308278""
","
",,null,"<p> Are you ready to play a practice game? </p> <p>In this practice game, you'll be digging up barrels of gems. But, in the real game, you'll be digging up the gems themselves. </p>",null,"<p>In this game, your goal is to collect as many gems as you can. That’s how you will win bonus money. </p> <p>The entire game will last 20 minutes no matter how many gems you collect or how many planets you visit. </p><p>To stay on a planet and dig again, press the letter A on your keyboard. To leave for a new planet, press the letter L.</p><p>The more you dig on a planet, the fewer gems you’ll get with each dig which is why you might consider leaving for a new planet. </p><p>When you arrive at a new planet, you’ll be greeted by an alien. What the alien looks like does not tell you anything about how much treasure is on the planet. </p>",,,,,,,,,,,,,,,,,,,,,,,
instruc_repeat_continue,45,608702,0.0-16.0-2.0,"""event"",""trial"",""time""
""blur"",""0"",""0""
""focus"",""0"",""0""
""blur"",""0"",""0""
""focus"",""0"",""0""
""blur"",""1"",""266707""
""focus"",""1"",""306072""
""fullscreenenter"",""1"",""308278""
","""event"",""trial"",""time""
""blur"",""0"",""0""
""blur"",""0"",""0""
""blur"",""1"",""266707""
","""event"",""trial"",""time""
""focus"",""0"",""0""
""focus"",""0"",""0""
""focus"",""1"",""306072""
","""event"",""trial"",""time""
""fullscreenenter"",""1"",""308278""
","
",,2570.6,"<p> Are you ready to play a practice game? </p> <p>In this practice game, you'll be digging up barrels of gems. But, in the real game, you'll be digging up the gems themselves. </p>",,,,,,,0,,,,,,,,,,,,,,,,,,
quiz_q_1_ask,46,611130,0.0-16.0-3.0,"""event"",""trial"",""time""
""blur"",""0"",""0""
""focus"",""0"",""0""
""blur"",""0"",""0""
""focus"",""0"",""0""
""blur"",""1"",""266707""
""focus"",""1"",""306072""
""fullscreenenter"",""1"",""308278""
","""event"",""trial"",""time""
""blur"",""0"",""0""
""blur"",""0"",""0""
""blur"",""1"",""266707""
","""event"",""trial"",""time""
""focus"",""0"",""0""
""focus"",""0"",""0""
""focus"",""1"",""306072""
","""event"",""trial"",""time""
""fullscreenenter"",""1"",""308278""
","
",,2425.5,run_exp/static/audio/clip_11_q1_ask.m4a,,,,,,,2,,,,,,,,,,,,,,,,,,
quiz_q_1_fb_correct,47,615352,0.0-17.0-0.0,"""event"",""trial"",""time""
""blur"",""0"",""0""
""focus"",""0"",""0""
""blur"",""0"",""0""
""focus"",""0"",""0""
""blur"",""1"",""266707""
""focus"",""1"",""306072""
""fullscreenenter"",""1"",""308278""
","""event"",""trial"",""time""
""blur"",""0"",""0""
""blur"",""0"",""0""
""blur"",""1"",""266707""
","""event"",""trial"",""time""
""focus"",""0"",""0""
""focus"",""0"",""0""
""focus"",""1"",""306072""
","""event"",""trial"",""time""
""fullscreenenter"",""1"",""308278""
","
",,null,run_exp/static/audio/clip_12_q1_correct.m4a,null,<p>That’s correct. You win extra money by collecting more gems.</p>,,,,,,,,,,,,,,,,,,,,,,,
quiz_q_2_ask,48,618193,0.0-17.0-1.0,"""event"",""trial"",""time""
""blur"",""0"",""0""
""focus"",""0"",""0""
""blur"",""0"",""0""
""focus"",""0"",""0""
""blur"",""1"",""266707""
""focus"",""1"",""306072""
""fullscreenenter"",""1"",""308278""
","""event"",""trial"",""time""
""blur"",""0"",""0""
""blur"",""0"",""0""
""blur"",""1"",""266707""
","""event"",""trial"",""time""
""focus"",""0"",""0""
""focus"",""0"",""0""
""focus"",""1"",""306072""
","""event"",""trial"",""time""
""fullscreenenter"",""1"",""308278""
","
",,2839,run_exp/static/audio/clip_14_q2_ask.m4a,,,,,,,1,,,,,,,,,,,,,,,,,,
quiz_q_2_fb_correct,49,622395,0.0-18.0-0.0,"""event"",""trial"",""time""
""blur"",""0"",""0""
""focus"",""0"",""0""
""blur"",""0"",""0""
""focus"",""0"",""0""
""blur"",""1"",""266707""
""focus"",""1"",""306072""
""fullscreenenter"",""1"",""308278""
","""event"",""trial"",""time""
""blur"",""0"",""0""
""blur"",""0"",""0""
""blur"",""1"",""266707""
","""event"",""trial"",""time""
""focus"",""0"",""0""
""focus"",""0"",""0""
""focus"",""1"",""306072""
","""event"",""trial"",""time""
""fullscreenenter"",""1"",""308278""
","
",,null,run_exp/static/audio/clip_15_q2_correct.m4a,null,<p>That’s correct. The experiment is 20 minutes no matter what.</p>,,,,,,,,,,,,,,,,,,,,,,,
quiz_q_3_ask,50,625207,0.0-18.0-1.0,"""event"",""trial"",""time""
""blur"",""0"",""0""
""focus"",""0"",""0""
""blur"",""0"",""0""
""focus"",""0"",""0""
""blur"",""1"",""266707""
""focus"",""1"",""306072""
""fullscreenenter"",""1"",""308278""
","""event"",""trial"",""time""
""blur"",""0"",""0""
""blur"",""0"",""0""
""blur"",""1"",""266707""
","""event"",""trial"",""time""
""focus"",""0"",""0""
""focus"",""0"",""0""
""focus"",""1"",""306072""
","""event"",""trial"",""time""
""fullscreenenter"",""1"",""308278""
","
",,2810.7,run_exp/static/audio/clip_17_q3_ask.m4a,,,,,,,1,,,,,,,,,,,,,,,,,,
quiz_q_3_fb_correct,51,629566,0.0-19.0-0.0,"""event"",""trial"",""time""
""blur"",""0"",""0""
""focus"",""0"",""0""
""blur"",""0"",""0""
""focus"",""0"",""0""
""blur"",""1"",""266707""
""focus"",""1"",""306072""
""fullscreenenter"",""1"",""308278""
","""event"",""trial"",""time""
""blur"",""0"",""0""
""blur"",""0"",""0""
""blur"",""1"",""266707""
","""event"",""trial"",""time""
""focus"",""0"",""0""
""focus"",""0"",""0""
""focus"",""1"",""306072""
","""event"",""trial"",""time""
""fullscreenenter"",""1"",""308278""
","
",,null,run_exp/static/audio/clip_18_q3_correct.m4a,null,<p> That’s correct. You press the letter L to travel to a new planet.</p>,,,,,,,,,,,,,,,,,,,,,,,
quiz_q_4_ask,52,632489,0.0-19.0-1.0,"""event"",""trial"",""time""
""blur"",""0"",""0""
""focus"",""0"",""0""
""blur"",""0"",""0""
""focus"",""0"",""0""
""blur"",""1"",""266707""
""focus"",""1"",""306072""
""fullscreenenter"",""1"",""308278""
","""event"",""trial"",""time""
""blur"",""0"",""0""
""blur"",""0"",""0""
""blur"",""1"",""266707""
","""event"",""trial"",""time""
""focus"",""0"",""0""
""focus"",""0"",""0""
""focus"",""1"",""306072""
","""event"",""trial"",""time""
""fullscreenenter"",""1"",""308278""
","
",,2920.7,run_exp/static/audio/clip_20_q4_ask.m4a,,,,,,,0,,,,,,,,,,,,,,,,,,
quiz_q_4_fb_correct,53,638018,0.0-20.0-0.0,"""event"",""trial"",""time""
""blur"",""0"",""0""
""focus"",""0"",""0""
""blur"",""0"",""0""
""focus"",""0"",""0""
""blur"",""1"",""266707""
""focus"",""1"",""306072""
""fullscreenenter"",""1"",""308278""
","""event"",""trial"",""time""
""blur"",""0"",""0""
""blur"",""0"",""0""
""blur"",""1"",""266707""
","""event"",""trial"",""time""
""focus"",""0"",""0""
""focus"",""0"",""0""
""focus"",""1"",""306072""
","""event"",""trial"",""time""
""fullscreenenter"",""1"",""308278""
","
",,null,run_exp/static/audio/clip_21_q4_correct.m4a,null,<p> That’s correct. The more you dig on a planet the fewer gems you’ll get with each dig. </p>,,,,,,,,,,,,,,,,,,,,,,,
quiz_q_5_ask,54,639761,0.0-20.0-1.0,"""event"",""trial"",""time""
""blur"",""0"",""0""
""focus"",""0"",""0""
""blur"",""0"",""0""
""focus"",""0"",""0""
""blur"",""1"",""266707""
""focus"",""1"",""306072""
""fullscreenenter"",""1"",""308278""
","""event"",""trial"",""time""
""blur"",""0"",""0""
""blur"",""0"",""0""
""blur"",""1"",""266707""
","""event"",""trial"",""time""
""focus"",""0"",""0""
""focus"",""0"",""0""
""focus"",""1"",""306072""
","""event"",""trial"",""time""
""fullscreenenter"",""1"",""308278""
","
",,1741.3,run_exp/static/audio/clip_23_q5_ask.m4a,,,,,,,1,,,,,,,,,,,,,,,,,,
quiz_q_5_fb_correct,55,645062,0.0-21.0-0.0,"""event"",""trial"",""time""
""blur"",""0"",""0""
""focus"",""0"",""0""
""blur"",""0"",""0""
""focus"",""0"",""0""
""blur"",""1"",""266707""
""focus"",""1"",""306072""
""fullscreenenter"",""1"",""308278""
","""event"",""trial"",""time""
""blur"",""0"",""0""
""blur"",""0"",""0""
""blur"",""1"",""266707""
","""event"",""trial"",""time""
""focus"",""0"",""0""
""focus"",""0"",""0""
""focus"",""1"",""306072""
","""event"",""trial"",""time""
""fullscreenenter"",""1"",""308278""
","
",,null,run_exp/static/audio/clip_24_q5_correct.m4a,null,<p> That’s correct. The alien tells you nothing about how much treasure is on the planet.</p>,,,,,,,,,,,,,,,,,,,,,,,
quiz_correct,56,648903,0.0-22.0-0.0,"""event"",""trial"",""time""
""blur"",""0"",""0""
""focus"",""0"",""0""
""blur"",""0"",""0""
""focus"",""0"",""0""
""blur"",""1"",""266707""
""focus"",""1"",""306072""
""fullscreenenter"",""1"",""308278""
","""event"",""trial"",""time""
""blur"",""0"",""0""
""blur"",""0"",""0""
""blur"",""1"",""266707""
","""event"",""trial"",""time""
""focus"",""0"",""0""
""focus"",""0"",""0""
""focus"",""1"",""306072""
","""event"",""trial"",""time""
""fullscreenenter"",""1"",""308278""
","
",,null,run_exp/static/audio/clip_26_correct_quiz.m4a,null,,,,,,,,,,,,,,,,,,,,,,,,
quiz_correct_continue,57,650564,0.0-22.0-1.0,"""event"",""trial"",""time""
""blur"",""0"",""0""
""focus"",""0"",""0""
""blur"",""0"",""0""
""focus"",""0"",""0""
""blur"",""1"",""266707""
""focus"",""1"",""306072""
""fullscreenenter"",""1"",""308278""
","""event"",""trial"",""time""
""blur"",""0"",""0""
""blur"",""0"",""0""
""blur"",""1"",""266707""
","""event"",""trial"",""time""
""focus"",""0"",""0""
""focus"",""0"",""0""
""focus"",""1"",""306072""
","""event"",""trial"",""time""
""fullscreenenter"",""1"",""308278""
","
",,1659.7,<p>Good job! You're now ready to move on to the real game!</p>,,,,,,,0,,,,,,,,,,,,,,,,,,
audio-keyboard-response,58,661070,0.0-22.0-2.0,"""event"",""trial"",""time""
""blur"",""0"",""0""
""focus"",""0"",""0""
""blur"",""0"",""0""
""focus"",""0"",""0""
""blur"",""1"",""266707""
""focus"",""1"",""306072""
""fullscreenenter"",""1"",""308278""
","""event"",""trial"",""time""
""blur"",""0"",""0""
""blur"",""0"",""0""
""blur"",""1"",""266707""
","""event"",""trial"",""time""
""focus"",""0"",""0""
""focus"",""0"",""0""
""focus"",""1"",""306072""
","""event"",""trial"",""time""
""fullscreenenter"",""1"",""308278""
","
",,null,run_exp/static/audio/clip_28_real_game.m4a,null,,,,,,,,,,,,,,,,,,,,,,,,
instruc_begin_exp_contine,59,663993,0.0-22.0-3.0,"""event"",""trial"",""time""
""blur"",""0"",""0""
""focus"",""0"",""0""
""blur"",""0"",""0""
""focus"",""0"",""0""
""blur"",""1"",""266707""
""focus"",""1"",""306072""
""fullscreenenter"",""1"",""308278""
","""event"",""trial"",""time""
""blur"",""0"",""0""
""blur"",""0"",""0""
""blur"",""1"",""266707""
","""event"",""trial"",""time""
""focus"",""0"",""0""
""focus"",""0"",""0""
""focus"",""1"",""306072""
","""event"",""trial"",""time""
""fullscreenenter"",""1"",""308278""
","
",,2921.2,"<p>Now that you know how  to dig for space treasure and travel to new planets,you can start exploring! </p><p>Do you want to go over the instructions again or get started with the real game?</p>",,,,,,,1,,,,,,1,,,,,,,,,,,,
alien_welcome,60,669001,0.0-23.0-0.0,"""event"",""trial"",""time""
""blur"",""0"",""0""
""focus"",""0"",""0""
""blur"",""0"",""0""
""focus"",""0"",""0""
""blur"",""1"",""266707""
""focus"",""1"",""306072""
""fullscreenenter"",""1"",""308278""
","""event"",""trial"",""time""
""blur"",""0"",""0""
""blur"",""0"",""0""
""blur"",""1"",""266707""
","""event"",""trial"",""time""
""focus"",""0"",""0""
""focus"",""0"",""0""
""focus"",""1"",""306072""
","""event"",""trial"",""time""
""fullscreenenter"",""1"",""308278""
","
",,null,run_exp/static/images/task_images/aliens/old_aliens/planet/alien_planet-28.jpg,null,,,,,,,,,,,,,28,"28,48,7,6,71,79,11,46,8,63,57,39,30,59,23,12,76,65,58,21,37,36,44,45,73,13,4,27,75,22,41,38,77,60,29,25,54,55,26,47,74,56,42,19,33",,,,,,,,,,
land,61,669505,0.0-23.0-1.0,"""event"",""trial"",""time""
""blur"",""0"",""0""
""focus"",""0"",""0""
""blur"",""0"",""0""
""focus"",""0"",""0""
""blur"",""1"",""266707""
""focus"",""1"",""306072""
""fullscreenenter"",""1"",""308278""
","""event"",""trial"",""time""
""blur"",""0"",""0""
""blur"",""0"",""0""
""blur"",""1"",""266707""
","""event"",""trial"",""time""
""focus"",""0"",""0""
""focus"",""0"",""0""
""focus"",""1"",""306072""
","""event"",""trial"",""time""
""fullscreenenter"",""1"",""308278""
","
",,null,run_exp/static/images/task_images/land.jpg,null,,,,,,,93,,,1,,,,,,,,,,,,,,
dig,62,671513,0.0-23.0-2.0,"""event"",""trial"",""time""
""blur"",""0"",""0""
""focus"",""0"",""0""
""blur"",""0"",""0""
""focus"",""0"",""0""
""blur"",""1"",""266707""
""focus"",""1"",""306072""
""fullscreenenter"",""1"",""308278""
","""event"",""trial"",""time""
""blur"",""0"",""0""
""blur"",""0"",""0""
""blur"",""1"",""266707""
","""event"",""trial"",""time""
""focus"",""0"",""0""
""focus"",""0"",""0""
""focus"",""1"",""306072""
","""event"",""trial"",""time""
""fullscreenenter"",""1"",""308278""
","
",,,,,,,,,,,,"[{""stimulus"":""run_exp/static/images/task_images/dig.jpg"",""time"":0.39999999944120646},{""stimulus"":""run_exp/static/images/task_images/land.jpg"",""time"":670.3999999994412},{""stimulus"":""run_exp/static/images/task_images/dig.jpg"",""time"":1342.5999999996275}]",[],1,,,,,,,,,,,,,,
harvest,63,672522,0.0-23.0-3.0,"""event"",""trial"",""time""
""blur"",""0"",""0""
""focus"",""0"",""0""
""blur"",""0"",""0""
""focus"",""0"",""0""
""blur"",""1"",""266707""
""focus"",""1"",""306072""
""fullscreenenter"",""1"",""308278""
","""event"",""trial"",""time""
""blur"",""0"",""0""
""blur"",""0"",""0""
""blur"",""1"",""266707""
","""event"",""trial"",""time""
""focus"",""0"",""0""
""focus"",""0"",""0""
""focus"",""1"",""306072""
","""event"",""trial"",""time""
""fullscreenenter"",""1"",""308278""
","
",,null,run_exp/static/images/task_images/gems/93.jpg,null,,,,,,,10,,,1,,,,,93,0.106908208,0.107526882,,,,,,,
decision,64,672786,0.0-23.0-4.0,"""event"",""trial"",""time""
""blur"",""0"",""0""
""focus"",""0"",""0""
""blur"",""0"",""0""
""focus"",""0"",""0""
""blur"",""1"",""266707""
""focus"",""1"",""306072""
""fullscreenenter"",""1"",""308278""
","""event"",""trial"",""time""
""blur"",""0"",""0""
""blur"",""0"",""0""
""blur"",""1"",""266707""
","""event"",""trial"",""time""
""focus"",""0"",""0""
""focus"",""0"",""0""
""focus"",""1"",""306072""
","""event"",""trial"",""time""
""fullscreenenter"",""1"",""308278""
","
",,261.8,run_exp/static/images/task_images/land.jpg,65,,,,,,,10,,,1,,,,,,,,8791,1,0,FALSE,,,
dig,65,675529,0.0-24.0-0.0,"""event"",""trial"",""time""
""blur"",""0"",""0""
""focus"",""0"",""0""
""blur"",""0"",""0""
""focus"",""0"",""0""
""blur"",""1"",""266707""
""focus"",""1"",""306072""
""fullscreenenter"",""1"",""308278""
","""event"",""trial"",""time""
""blur"",""0"",""0""
""blur"",""0"",""0""
""blur"",""1"",""266707""
","""event"",""trial"",""time""
""focus"",""0"",""0""
""focus"",""0"",""0""
""focus"",""1"",""306072""
","""event"",""trial"",""time""
""fullscreenenter"",""1"",""308278""
","
",,,,,,,,,,,,"[{""stimulus"":""run_exp/static/images/task_images/dig.jpg"",""time"":0.10000000055879354},{""stimulus"":""run_exp/static/images/task_images/land.jpg"",""time"":915.6000000005588},{""stimulus"":""run_exp/static/images/task_images/dig.jpg"",""time"":1827.7000000001863}]",[],1,,,,,,,,,,,,,,
harvest,66,676537,0.0-24.0-1.0,"""event"",""trial"",""time""
""blur"",""0"",""0""
""focus"",""0"",""0""
""blur"",""0"",""0""
""focus"",""0"",""0""
""blur"",""1"",""266707""
""focus"",""1"",""306072""
""fullscreenenter"",""1"",""308278""
","""event"",""trial"",""time""
""blur"",""0"",""0""
""blur"",""0"",""0""
""blur"",""1"",""266707""
","""event"",""trial"",""time""
""focus"",""0"",""0""
""focus"",""0"",""0""
""focus"",""1"",""306072""
","""event"",""trial"",""time""
""fullscreenenter"",""1"",""308278""
","
",,null,run_exp/static/images/task_images/gems/10.jpg,null,,,,,,,2,,,1,,,,,10,0.172298329,0.2,,,,,,,
decision,67,676884,0.0-24.0-2.0,"""event"",""trial"",""time""
""blur"",""0"",""0""
""focus"",""0"",""0""
""blur"",""0"",""0""
""focus"",""0"",""0""
""blur"",""1"",""266707""
""focus"",""1"",""306072""
""fullscreenenter"",""1"",""308278""
","""event"",""trial"",""time""
""blur"",""0"",""0""
""blur"",""0"",""0""
""blur"",""1"",""266707""
","""event"",""trial"",""time""
""focus"",""0"",""0""
""focus"",""0"",""0""
""focus"",""1"",""306072""
","""event"",""trial"",""time""
""fullscreenenter"",""1"",""308278""
","
",,344.6,run_exp/static/images/task_images/land.jpg,65,,,,,,,2,,,1,,,,,,,,12889,1,1,FALSE,,,
dig,68,679546,0.0-25.0-0.0,"""event"",""trial"",""time""
""blur"",""0"",""0""
""focus"",""0"",""0""
""blur"",""0"",""0""
""focus"",""0"",""0""
""blur"",""1"",""266707""
""focus"",""1"",""306072""
""fullscreenenter"",""1"",""308278""
","""event"",""trial"",""time""
""blur"",""0"",""0""
""blur"",""0"",""0""
""blur"",""1"",""266707""
","""event"",""trial"",""time""
""focus"",""0"",""0""
""focus"",""0"",""0""
""focus"",""1"",""306072""
","""event"",""trial"",""time""
""fullscreenenter"",""1"",""308278""
","
",,,,,,,,,,,,"[{""stimulus"":""run_exp/static/images/task_images/dig.jpg"",""time"":0.2999999998137355},{""stimulus"":""run_exp/static/images/task_images/land.jpg"",""time"":889.7000000001863},{""stimulus"":""run_exp/static/images/task_images/dig.jpg"",""time"":1777.7000000001863}]",[],1,,,,,,,,,,,,,,
harvest,69,680553,0.0-25.0-1.0,"""event"",""trial"",""time""
""blur"",""0"",""0""
""focus"",""0"",""0""
""blur"",""0"",""0""
""focus"",""0"",""0""
""blur"",""1"",""266707""
""focus"",""1"",""306072""
""fullscreenenter"",""1"",""308278""
","""event"",""trial"",""time""
""blur"",""0"",""0""
""blur"",""0"",""0""
""blur"",""1"",""266707""
","""event"",""trial"",""time""
""focus"",""0"",""0""
""focus"",""0"",""0""
""focus"",""1"",""306072""
","""event"",""trial"",""time""
""fullscreenenter"",""1"",""308278""
","
",,null,run_exp/static/images/task_images/gems/2.jpg,null,,,,,,,0,,,1,,,,,2,0.222279399,0,,,,,,,
decision,70,680927,0.0-25.0-2.0,"""event"",""trial"",""time""
""blur"",""0"",""0""
""focus"",""0"",""0""
""blur"",""0"",""0""
""focus"",""0"",""0""
""blur"",""1"",""266707""
""focus"",""1"",""306072""
""fullscreenenter"",""1"",""308278""
","""event"",""trial"",""time""
""blur"",""0"",""0""
""blur"",""0"",""0""
""blur"",""1"",""266707""
","""event"",""trial"",""time""
""focus"",""0"",""0""
""focus"",""0"",""0""
""focus"",""1"",""306072""
","""event"",""trial"",""time""
""fullscreenenter"",""1"",""308278""
","
",,372.3,run_exp/static/images/task_images/land.jpg,76,,,,,,,0,,,1,,,,,,,,16932,1,2,TRUE,,,
travel,71,690553,0.0-26.0-0.0,"""event"",""trial"",""time""
""blur"",""0"",""0""
""focus"",""0"",""0""
""blur"",""0"",""0""
""focus"",""0"",""0""
""blur"",""1"",""266707""
""focus"",""1"",""306072""
""fullscreenenter"",""1"",""308278""
","""event"",""trial"",""time""
""blur"",""0"",""0""
""blur"",""0"",""0""
""blur"",""1"",""266707""
","""event"",""trial"",""time""
""focus"",""0"",""0""
""focus"",""0"",""0""
""focus"",""1"",""306072""
","""event"",""trial"",""time""
""fullscreenenter"",""1"",""308278""
","
",,,,,,,,,,,,"[{""stimulus"":""run_exp/static/images/task_images/rocket-01.jpg"",""time"":0.2999999998137355},{""stimulus"":""run_exp/static/images/task_images/rocket-02.jpg"",""time"":1070.9000000003725},{""stimulus"":""run_exp/static/images/task_images/rocket-03.jpg"",""time"":2142.9000000003725},{""stimulus"":""run_exp/static/images/task_images/rocket-04.jpg"",""time"":3215},{""stimulus"":""run_exp/static/images/task_images/rocket-05.jpg"",""time"":4278.9000000003725},{""stimulus"":""run_exp/static/images/task_images/rocket-06.jpg"",""time"":5351},{""stimulus"":""run_exp/static/images/task_images/rocket-07.jpg"",""time"":6423},{""stimulus"":""run_exp/static/images/task_images/rocket-08.jpg"",""time"":7486.799999999814},{""stimulus"":""run_exp/static/images/task_images/rocket-09.jpg"",""time"":8559.099999999627}]",[],1,,,,,,,,,,,,,,
alien_welcome,72,695561,0.0-26.0-1.0,"""event"",""trial"",""time""
""blur"",""0"",""0""
""focus"",""0"",""0""
""blur"",""0"",""0""
""focus"",""0"",""0""
""blur"",""1"",""266707""
""focus"",""1"",""306072""
""fullscreenenter"",""1"",""308278""
","""event"",""trial"",""time""
""blur"",""0"",""0""
""blur"",""0"",""0""
""blur"",""1"",""266707""
","""event"",""trial"",""time""
""focus"",""0"",""0""
""focus"",""0"",""0""
""focus"",""1"",""306072""
","""event"",""trial"",""time""
""fullscreenenter"",""1"",""308278""
","
",,null,run_exp/static/images/task_images/aliens/old_aliens/planet/alien_planet-48.jpg,null,,,,,,,,,,,,,48,"28,48,7,6,71,79,11,46,8,63,57,39,30,59,23,12,76,65,58,21,37,36,44,45,73,13,4,27,75,22,41,38,77,60,29,25,54,55,26,47,74,56,42,19,33",,,,,,,,,,
land,73,696066,0.0-26.0-2.0,"""event"",""trial"",""time""
""blur"",""0"",""0""
""focus"",""0"",""0""
""blur"",""0"",""0""
""focus"",""0"",""0""
""blur"",""1"",""266707""
""focus"",""1"",""306072""
""fullscreenenter"",""1"",""308278""
","""event"",""trial"",""time""
""blur"",""0"",""0""
""blur"",""0"",""0""
""blur"",""1"",""266707""
","""event"",""trial"",""time""
""focus"",""0"",""0""
""focus"",""0"",""0""
""focus"",""1"",""306072""
","""event"",""trial"",""time""
""fullscreenenter"",""1"",""308278""
","
",,null,run_exp/static/images/task_images/land.jpg,null,,,,,,,104,,,2,,,,,,,,,,,,,,
dig,74,698073,0.0-26.0-3.0,"""event"",""trial"",""time""
""blur"",""0"",""0""
""focus"",""0"",""0""
""blur"",""0"",""0""
""focus"",""0"",""0""
""blur"",""1"",""266707""
""focus"",""1"",""306072""
""fullscreenenter"",""1"",""308278""
","""event"",""trial"",""time""
""blur"",""0"",""0""
""blur"",""0"",""0""
""blur"",""1"",""266707""
","""event"",""trial"",""time""
""focus"",""0"",""0""
""focus"",""0"",""0""
""focus"",""1"",""306072""
","""event"",""trial"",""time""
""fullscreenenter"",""1"",""308278""
","
",,,,,,,,,,,,"[{""stimulus"":""run_exp/static/images/task_images/dig.jpg"",""time"":0.5},{""stimulus"":""run_exp/static/images/task_images/land.jpg"",""time"":670.5},{""stimulus"":""run_exp/static/images/task_images/dig.jpg"",""time"":1342}]",[],2,,,,,,,,,,,,,,
harvest,75,699081,0.0-26.0-4.0,"""event"",""trial"",""time""
""blur"",""0"",""0""
""focus"",""0"",""0""
""blur"",""0"",""0""
""focus"",""0"",""0""
""blur"",""1"",""266707""
""focus"",""1"",""306072""
""fullscreenenter"",""1"",""308278""
","""event"",""trial"",""time""
""blur"",""0"",""0""
""blur"",""0"",""0""
""blur"",""1"",""266707""
","""event"",""trial"",""time""
""focus"",""0"",""0""
""focus"",""0"",""0""
""focus"",""1"",""306072""
","""event"",""trial"",""time""
""fullscreenenter"",""1"",""308278""
","
",,null,run_exp/static/images/task_images/gems/104.jpg,null,,,,,,,23,,,2,,,,,104,0.225699577,0.221153846,,,,,,,
decision,76,699354,0.0-26.0-5.0,"""event"",""trial"",""time""
""blur"",""0"",""0""
""focus"",""0"",""0""
""blur"",""0"",""0""
""focus"",""0"",""0""
""blur"",""1"",""266707""
""focus"",""1"",""306072""
""fullscreenenter"",""1"",""308278""
","""event"",""trial"",""time""
""blur"",""0"",""0""
""blur"",""0"",""0""
""blur"",""1"",""266707""
","""event"",""trial"",""time""
""focus"",""0"",""0""
""focus"",""0"",""0""
""focus"",""1"",""306072""
","""event"",""trial"",""time""
""fullscreenenter"",""1"",""308278""
","
",,269.8,run_exp/static/images/task_images/land.jpg,65,,,,,,,23,,,2,,,,,,,,35359,1,0,FALSE,,,
dig,77,702089,0.0-27.0-0.0,"""event"",""trial"",""time""
""blur"",""0"",""0""
""focus"",""0"",""0""
""blur"",""0"",""0""
""focus"",""0"",""0""
""blur"",""1"",""266707""
""focus"",""1"",""306072""
""fullscreenenter"",""1"",""308278""
","""event"",""trial"",""time""
""blur"",""0"",""0""
""blur"",""0"",""0""
""blur"",""1"",""266707""
","""event"",""trial"",""time""
""focus"",""0"",""0""
""focus"",""0"",""0""
""focus"",""1"",""306072""
","""event"",""trial"",""time""
""fullscreenenter"",""1"",""308278""
","
",,,,,,,,,,,,"[{""stimulus"":""run_exp/static/images/task_images/dig.jpg"",""time"":0.2999999998137355},{""stimulus"":""run_exp/static/images/task_images/land.jpg"",""time"":916.5},{""stimulus"":""run_exp/static/images/task_images/dig.jpg"",""time"":1828.5}]",[],2,,,,,,,,,,,,,,
harvest,78,703097,0.0-27.0-1.0,"""event"",""trial"",""time""
""blur"",""0"",""0""
""focus"",""0"",""0""
""blur"",""0"",""0""
""focus"",""0"",""0""
""blur"",""1"",""266707""
""focus"",""1"",""306072""
""fullscreenenter"",""1"",""308278""
","""event"",""trial"",""time""
""blur"",""0"",""0""
""blur"",""0"",""0""
""blur"",""1"",""266707""
","""event"",""trial"",""time""
""focus"",""0"",""0""
""focus"",""0"",""0""
""focus"",""1"",""306072""
","""event"",""trial"",""time""
""fullscreenenter"",""1"",""308278""
","
",,null,run_exp/static/images/task_images/gems/23.jpg,null,,,,,,,5,,,2,,,,,23,0.237438838,0.217391304,,,,,,,
decision,79,703311,0.0-27.0-2.0,"""event"",""trial"",""time""
""blur"",""0"",""0""
""focus"",""0"",""0""
""blur"",""0"",""0""
""focus"",""0"",""0""
""blur"",""1"",""266707""
""focus"",""1"",""306072""
""fullscreenenter"",""1"",""308278""
","""event"",""trial"",""time""
""blur"",""0"",""0""
""blur"",""0"",""0""
""blur"",""1"",""266707""
","""event"",""trial"",""time""
""focus"",""0"",""0""
""focus"",""0"",""0""
""focus"",""1"",""306072""
","""event"",""trial"",""time""
""fullscreenenter"",""1"",""308278""
","
",,211.5,run_exp/static/images/task_images/land.jpg,65,,,,,,,5,,,2,,,,,,,,39316,1,1,FALSE,,,
dig,80,706105,0.0-28.0-0.0,"""event"",""trial"",""time""
""blur"",""0"",""0""
""focus"",""0"",""0""
""blur"",""0"",""0""
""focus"",""0"",""0""
""blur"",""1"",""266707""
""focus"",""1"",""306072""
""fullscreenenter"",""1"",""308278""
","""event"",""trial"",""time""
""blur"",""0"",""0""
""blur"",""0"",""0""
""blur"",""1"",""266707""
","""event"",""trial"",""time""
""focus"",""0"",""0""
""focus"",""0"",""0""
""focus"",""1"",""306072""
","""event"",""trial"",""time""
""fullscreenenter"",""1"",""308278""
","
",,,,,,,,,,,,"[{""stimulus"":""run_exp/static/images/task_images/dig.jpg"",""time"":0.2999999998137355},{""stimulus"":""run_exp/static/images/task_images/land.jpg"",""time"":935.7999999998137},{""stimulus"":""run_exp/static/images/task_images/dig.jpg"",""time"":1863.5}]",[],2,,,,,,,,,,,,,,
harvest,81,707113,0.0-28.0-1.0,"""event"",""trial"",""time""
""blur"",""0"",""0""
""focus"",""0"",""0""
""blur"",""0"",""0""
""focus"",""0"",""0""
""blur"",""1"",""266707""
""focus"",""1"",""306072""
""fullscreenenter"",""1"",""308278""
","""event"",""trial"",""time""
""blur"",""0"",""0""
""blur"",""0"",""0""
""blur"",""1"",""266707""
","""event"",""trial"",""time""
""focus"",""0"",""0""
""focus"",""0"",""0""
""focus"",""1"",""306072""
","""event"",""trial"",""time""
""fullscreenenter"",""1"",""308278""
","
",,null,run_exp/static/images/task_images/gems/5.jpg,null,,,,,,,1,,,2,,,,,5,0.228262544,0.2,,,,,,,
decision,82,707365,0.0-28.0-2.0,"""event"",""trial"",""time""
""blur"",""0"",""0""
""focus"",""0"",""0""
""blur"",""0"",""0""
""focus"",""0"",""0""
""blur"",""1"",""266707""
""focus"",""1"",""306072""
""fullscreenenter"",""1"",""308278""
","""event"",""trial"",""time""
""blur"",""0"",""0""
""blur"",""0"",""0""
""blur"",""1"",""266707""
","""event"",""trial"",""time""
""focus"",""0"",""0""
""focus"",""0"",""0""
""focus"",""1"",""306072""
","""event"",""trial"",""time""
""fullscreenenter"",""1"",""308278""
","
",,250.2,run_exp/static/images/task_images/land.jpg,76,,,,,,,1,,,2,,,,,,,,43371,1,2,TRUE,,,
travel,83,717121,0.0-29.0-0.0,"""event"",""trial"",""time""
""blur"",""0"",""0""
""focus"",""0"",""0""
""blur"",""0"",""0""
""focus"",""0"",""0""
""blur"",""1"",""266707""
""focus"",""1"",""306072""
""fullscreenenter"",""1"",""308278""
","""event"",""trial"",""time""
""blur"",""0"",""0""
""blur"",""0"",""0""
""blur"",""1"",""266707""
","""event"",""trial"",""time""
""focus"",""0"",""0""
""focus"",""0"",""0""
""focus"",""1"",""306072""
","""event"",""trial"",""time""
""fullscreenenter"",""1"",""308278""
","
",,,,,,,,,,,,"[{""stimulus"":""run_exp/static/images/task_images/rocket-01.jpg"",""time"":0.10000000055879354},{""stimulus"":""run_exp/static/images/task_images/rocket-02.jpg"",""time"":1089.4000000003725},{""stimulus"":""run_exp/static/images/task_images/rocket-03.jpg"",""time"":2168.300000000745},{""stimulus"":""run_exp/static/images/task_images/rocket-04.jpg"",""time"":3256.100000000559},{""stimulus"":""run_exp/static/images/task_images/rocket-05.jpg"",""time"":4336.300000000745},{""stimulus"":""run_exp/static/images/task_images/rocket-06.jpg"",""time"":5416.100000000559},{""stimulus"":""run_exp/static/images/task_images/rocket-07.jpg"",""time"":6504.200000000186},{""stimulus"":""run_exp/static/images/task_images/rocket-08.jpg"",""time"":7584.200000000186},{""stimulus"":""run_exp/static/images/task_images/rocket-09.jpg"",""time"":8672.400000000373}]",[],2,,,,,,,,,,,,,,
alien_welcome,84,722130,0.0-29.0-1.0,"""event"",""trial"",""time""
""blur"",""0"",""0""
""focus"",""0"",""0""
""blur"",""0"",""0""
""focus"",""0"",""0""
""blur"",""1"",""266707""
""focus"",""1"",""306072""
""fullscreenenter"",""1"",""308278""
","""event"",""trial"",""time""
""blur"",""0"",""0""
""blur"",""0"",""0""
""blur"",""1"",""266707""
","""event"",""trial"",""time""
""focus"",""0"",""0""
""focus"",""0"",""0""
""focus"",""1"",""306072""
","""event"",""trial"",""time""
""fullscreenenter"",""1"",""308278""
","
",,null,run_exp/static/images/task_images/aliens/old_aliens/planet/alien_planet-7.jpg,null,,,,,,,,,,,,,7,"28,48,7,6,71,79,11,46,8,63,57,39,30,59,23,12,76,65,58,21,37,36,44,45,73,13,4,27,75,22,41,38,77,60,29,25,54,55,26,47,74,56,42,19,33",,,,,,,,,,
land,85,722634,0.0-29.0-2.0,"""event"",""trial"",""time""
""blur"",""0"",""0""
""focus"",""0"",""0""
""blur"",""0"",""0""
""focus"",""0"",""0""
""blur"",""1"",""266707""
""focus"",""1"",""306072""
""fullscreenenter"",""1"",""308278""
","""event"",""trial"",""time""
""blur"",""0"",""0""
""blur"",""0"",""0""
""blur"",""1"",""266707""
","""event"",""trial"",""time""
""focus"",""0"",""0""
""focus"",""0"",""0""
""focus"",""1"",""306072""
","""event"",""trial"",""time""
""fullscreenenter"",""1"",""308278""
","
",,null,run_exp/static/images/task_images/land.jpg,null,,,,,,,103,,,3,,,,,,,,,,,,,,
dig,86,724641,0.0-29.0-3.0,"""event"",""trial"",""time""
""blur"",""0"",""0""
""focus"",""0"",""0""
""blur"",""0"",""0""
""focus"",""0"",""0""
""blur"",""1"",""266707""
""focus"",""1"",""306072""
""fullscreenenter"",""1"",""308278""
","""event"",""trial"",""time""
""blur"",""0"",""0""
""blur"",""0"",""0""
""blur"",""1"",""266707""
","""event"",""trial"",""time""
""focus"",""0"",""0""
""focus"",""0"",""0""
""focus"",""1"",""306072""
","""event"",""trial"",""time""
""fullscreenenter"",""1"",""308278""
","
",,,,,,,,,,,,"[{""stimulus"":""run_exp/static/images/task_images/dig.jpg"",""time"":0.5},{""stimulus"":""run_exp/static/images/task_images/land.jpg"",""time"":670.5},{""stimulus"":""run_exp/static/images/task_images/dig.jpg"",""time"":1343}]",[],3,,,,,,,,,,,,,,
harvest,87,725649,0.0-29.0-4.0,"""event"",""trial"",""time""
""blur"",""0"",""0""
""focus"",""0"",""0""
""blur"",""0"",""0""
""focus"",""0"",""0""
""blur"",""1"",""266707""
""focus"",""1"",""306072""
""fullscreenenter"",""1"",""308278""
","""event"",""trial"",""time""
""blur"",""0"",""0""
""blur"",""0"",""0""
""blur"",""1"",""266707""
","""event"",""trial"",""time""
""focus"",""0"",""0""
""focus"",""0"",""0""
""focus"",""1"",""306072""
","""event"",""trial"",""time""
""fullscreenenter"",""1"",""308278""
","
",,null,run_exp/static/images/task_images/gems/103.jpg,null,,,,,,,46,,,3,,,,,103,0.448942463,0.446601942,,,,,,,
decision,88,725871,0.0-29.0-5.0,"""event"",""trial"",""time""
""blur"",""0"",""0""
""focus"",""0"",""0""
""blur"",""0"",""0""
""focus"",""0"",""0""
""blur"",""1"",""266707""
""focus"",""1"",""306072""
""fullscreenenter"",""1"",""308278""
","""event"",""trial"",""time""
""blur"",""0"",""0""
""blur"",""0"",""0""
""blur"",""1"",""266707""
","""event"",""trial"",""time""
""focus"",""0"",""0""
""focus"",""0"",""0""
""focus"",""1"",""306072""
","""event"",""trial"",""time""
""fullscreenenter"",""1"",""308278""
","
",,220.2,run_exp/static/images/task_images/land.jpg,65,,,,,,,46,,,3,,,,,,,,61876,1,0,FALSE,,,
dig,89,728657,0.0-30.0-0.0,"""event"",""trial"",""time""
""blur"",""0"",""0""
""focus"",""0"",""0""
""blur"",""0"",""0""
""focus"",""0"",""0""
""blur"",""1"",""266707""
""focus"",""1"",""306072""
""fullscreenenter"",""1"",""308278""
","""event"",""trial"",""time""
""blur"",""0"",""0""
""blur"",""0"",""0""
""blur"",""1"",""266707""
","""event"",""trial"",""time""
""focus"",""0"",""0""
""focus"",""0"",""0""
""focus"",""1"",""306072""
","""event"",""trial"",""time""
""fullscreenenter"",""1"",""308278""
","
",,,,,,,,,,,,"[{""stimulus"":""run_exp/static/images/task_images/dig.jpg"",""time"":0.10000000055879354},{""stimulus"":""run_exp/static/images/task_images/land.jpg"",""time"":929.4000000003725},{""stimulus"":""run_exp/static/images/task_images/dig.jpg"",""time"":1857.7000000001863}]",[],3,,,,,,,,,,,,,,
harvest,90,729665,0.0-30.0-1.0,"""event"",""trial"",""time""
""blur"",""0"",""0""
""focus"",""0"",""0""
""blur"",""0"",""0""
""focus"",""0"",""0""
""blur"",""1"",""266707""
""focus"",""1"",""306072""
""fullscreenenter"",""1"",""308278""
","""event"",""trial"",""time""
""blur"",""0"",""0""
""blur"",""0"",""0""
""blur"",""1"",""266707""
","""event"",""trial"",""time""
""focus"",""0"",""0""
""focus"",""0"",""0""
""focus"",""1"",""306072""
","""event"",""trial"",""time""
""fullscreenenter"",""1"",""308278""
","
",,null,run_exp/static/images/task_images/gems/46.jpg,null,,,,,,,20,,,3,,,,,46,0.425097165,0.434782609,,,,,,,
decision,91,730268,0.0-30.0-2.0,"""event"",""trial"",""time""
""blur"",""0"",""0""
""focus"",""0"",""0""
""blur"",""0"",""0""
""focus"",""0"",""0""
""blur"",""1"",""266707""
""focus"",""1"",""306072""
""fullscreenenter"",""1"",""308278""
","""event"",""trial"",""time""
""blur"",""0"",""0""
""blur"",""0"",""0""
""blur"",""1"",""266707""
","""event"",""trial"",""time""
""focus"",""0"",""0""
""focus"",""0"",""0""
""focus"",""1"",""306072""
","""event"",""trial"",""time""
""fullscreenenter"",""1"",""308278""
","
",,601.5,run_exp/static/images/task_images/land.jpg,65,,,,,,,20,,,3,,,,,,,,66273,1,1,FALSE,,,
dig,92,732673,0.0-31.0-0.0,"""event"",""trial"",""time""
""blur"",""0"",""0""
""focus"",""0"",""0""
""blur"",""0"",""0""
""focus"",""0"",""0""
""blur"",""1"",""266707""
""focus"",""1"",""306072""
""fullscreenenter"",""1"",""308278""
","""event"",""trial"",""time""
""blur"",""0"",""0""
""blur"",""0"",""0""
""blur"",""1"",""266707""
","""event"",""trial"",""time""
""focus"",""0"",""0""
""focus"",""0"",""0""
""focus"",""1"",""306072""
","""event"",""trial"",""time""
""fullscreenenter"",""1"",""308278""
","
",,,,,,,,,,,,"[{""stimulus"":""run_exp/static/images/task_images/dig.jpg"",""time"":0.2999999998137355},{""stimulus"":""run_exp/static/images/task_images/land.jpg"",""time"":802.4000000003725},{""stimulus"":""run_exp/static/images/task_images/dig.jpg"",""time"":1602.2999999998137}]",[],3,,,,,,,,,,,,,,
harvest,93,733681,0.0-31.0-1.0,"""event"",""trial"",""time""
""blur"",""0"",""0""
""focus"",""0"",""0""
""blur"",""0"",""0""
""focus"",""0"",""0""
""blur"",""1"",""266707""
""focus"",""1"",""306072""
""fullscreenenter"",""1"",""308278""
","""event"",""trial"",""time""
""blur"",""0"",""0""
""blur"",""0"",""0""
""blur"",""1"",""266707""
","""event"",""trial"",""time""
""focus"",""0"",""0""
""focus"",""0"",""0""
""focus"",""1"",""306072""
","""event"",""trial"",""time""
""fullscreenenter"",""1"",""308278""
","
",,null,run_exp/static/images/task_images/gems/20.jpg,null,,,,,,,10,,,3,,,,,20,0.488322482,0.5,,,,,,,
decision,94,733949,0.0-31.0-2.0,"""event"",""trial"",""time""
""blur"",""0"",""0""
""focus"",""0"",""0""
""blur"",""0"",""0""
""focus"",""0"",""0""
""blur"",""1"",""266707""
""focus"",""1"",""306072""
""fullscreenenter"",""1"",""308278""
","""event"",""trial"",""time""
""blur"",""0"",""0""
""blur"",""0"",""0""
""blur"",""1"",""266707""
","""event"",""trial"",""time""
""focus"",""0"",""0""
""focus"",""0"",""0""
""focus"",""1"",""306072""
","""event"",""trial"",""time""
""fullscreenenter"",""1"",""308278""
","
",,265.7,run_exp/static/images/task_images/land.jpg,65,,,,,,,10,,,3,,,,,,,,69954,1,2,FALSE,,,
dig,95,736689,0.0-32.0-0.0,"""event"",""trial"",""time""
""blur"",""0"",""0""
""focus"",""0"",""0""
""blur"",""0"",""0""
""focus"",""0"",""0""
""blur"",""1"",""266707""
""focus"",""1"",""306072""
""fullscreenenter"",""1"",""308278""
","""event"",""trial"",""time""
""blur"",""0"",""0""
""blur"",""0"",""0""
""blur"",""1"",""266707""
","""event"",""trial"",""time""
""focus"",""0"",""0""
""focus"",""0"",""0""
""focus"",""1"",""306072""
","""event"",""trial"",""time""
""fullscreenenter"",""1"",""308278""
","
",,,,,,,,,,,,"[{""stimulus"":""run_exp/static/images/task_images/dig.jpg"",""time"":0.20000000018626451},{""stimulus"":""run_exp/static/images/task_images/land.jpg"",""time"":913.9000000003725},{""stimulus"":""run_exp/static/images/task_images/dig.jpg"",""time"":1826}]",[],3,,,,,,,,,,,,,,
harvest,96,737697,0.0-32.0-1.0,"""event"",""trial"",""time""
""blur"",""0"",""0""
""focus"",""0"",""0""
""blur"",""0"",""0""
""focus"",""0"",""0""
""blur"",""1"",""266707""
""focus"",""1"",""306072""
""fullscreenenter"",""1"",""308278""
","""event"",""trial"",""time""
""blur"",""0"",""0""
""blur"",""0"",""0""
""blur"",""1"",""266707""
","""event"",""trial"",""time""
""focus"",""0"",""0""
""focus"",""0"",""0""
""focus"",""1"",""306072""
","""event"",""trial"",""time""
""fullscreenenter"",""1"",""308278""
","
",,null,run_exp/static/images/task_images/gems/10.jpg,null,,,,,,,4,,,3,,,,,10,0.432737869,0.4,,,,,,,
decision,97,737927,0.0-32.0-2.0,"""event"",""trial"",""time""
""blur"",""0"",""0""
""focus"",""0"",""0""
""blur"",""0"",""0""
""focus"",""0"",""0""
""blur"",""1"",""266707""
""focus"",""1"",""306072""
""fullscreenenter"",""1"",""308278""
","""event"",""trial"",""time""
""blur"",""0"",""0""
""blur"",""0"",""0""
""blur"",""1"",""266707""
","""event"",""trial"",""time""
""focus"",""0"",""0""
""focus"",""0"",""0""
""focus"",""1"",""306072""
","""event"",""trial"",""time""
""fullscreenenter"",""1"",""308278""
","
",,227.8,run_exp/static/images/task_images/land.jpg,76,,,,,,,4,,,3,,,,,,,,73932,1,3,TRUE,,,
travel,98,747697,0.0-33.0-0.0,"""event"",""trial"",""time""
""blur"",""0"",""0""
""focus"",""0"",""0""
""blur"",""0"",""0""
""focus"",""0"",""0""
""blur"",""1"",""266707""
""focus"",""1"",""306072""
""fullscreenenter"",""1"",""308278""
","""event"",""trial"",""time""
""blur"",""0"",""0""
""blur"",""0"",""0""
""blur"",""1"",""266707""
","""event"",""trial"",""time""
""focus"",""0"",""0""
""focus"",""0"",""0""
""focus"",""1"",""306072""
","""event"",""trial"",""time""
""fullscreenenter"",""1"",""308278""
","
",,,,,,,,,,,,"[{""stimulus"":""run_exp/static/images/task_images/rocket-01.jpg"",""time"":0.2999999998137355},{""stimulus"":""run_exp/static/images/task_images/rocket-02.jpg"",""time"":1087.5999999996275},{""stimulus"":""run_exp/static/images/task_images/rocket-03.jpg"",""time"":2175.5999999996275},{""stimulus"":""run_exp/static/images/task_images/rocket-04.jpg"",""time"":3263.5},{""stimulus"":""run_exp/static/images/task_images/rocket-05.jpg"",""time"":4343.700000000186},{""stimulus"":""run_exp/static/images/task_images/rocket-06.jpg"",""time"":5431.5999999996275},{""stimulus"":""run_exp/static/images/task_images/rocket-07.jpg"",""time"":6511.5999999996275},{""stimulus"":""run_exp/static/images/task_images/rocket-08.jpg"",""time"":7599.5999999996275},{""stimulus"":""run_exp/static/images/task_images/rocket-09.jpg"",""time"":8687.399999999441}]",[],3,,,,,,,,,,,,,,
alien_welcome,99,752706,0.0-33.0-1.0,"""event"",""trial"",""time""
""blur"",""0"",""0""
""focus"",""0"",""0""
""blur"",""0"",""0""
""focus"",""0"",""0""
""blur"",""1"",""266707""
""focus"",""1"",""306072""
""fullscreenenter"",""1"",""308278""
","""event"",""trial"",""time""
""blur"",""0"",""0""
""blur"",""0"",""0""
""blur"",""1"",""266707""
","""event"",""trial"",""time""
""focus"",""0"",""0""
""focus"",""0"",""0""
""focus"",""1"",""306072""
","""event"",""trial"",""time""
""fullscreenenter"",""1"",""308278""
","
",,null,run_exp/static/images/task_images/aliens/old_aliens/planet/alien_planet-6.jpg,null,,,,,,,,,,,,,6,"28,48,7,6,71,79,11,46,8,63,57,39,30,59,23,12,76,65,58,21,37,36,44,45,73,13,4,27,75,22,41,38,77,60,29,25,54,55,26,47,74,56,42,19,33",,,,,,,,,,
land,100,753210,0.0-33.0-2.0,"""event"",""trial"",""time""
""blur"",""0"",""0""
""focus"",""0"",""0""
""blur"",""0"",""0""
""focus"",""0"",""0""
""blur"",""1"",""266707""
""focus"",""1"",""306072""
""fullscreenenter"",""1"",""308278""
","""event"",""trial"",""time""
""blur"",""0"",""0""
""blur"",""0"",""0""
""blur"",""1"",""266707""
","""event"",""trial"",""time""
""focus"",""0"",""0""
""focus"",""0"",""0""
""focus"",""1"",""306072""
","""event"",""trial"",""time""
""fullscreenenter"",""1"",""308278""
","
",,null,run_exp/static/images/task_images/land.jpg,null,,,,,,,99,,,4,,,,,,,,,,,,,,
dig,101,755217,0.0-33.0-3.0,"""event"",""trial"",""time""
""blur"",""0"",""0""
""focus"",""0"",""0""
""blur"",""0"",""0""
""focus"",""0"",""0""
""blur"",""1"",""266707""
""focus"",""1"",""306072""
""fullscreenenter"",""1"",""308278""
","""event"",""trial"",""time""
""blur"",""0"",""0""
""blur"",""0"",""0""
""blur"",""1"",""266707""
","""event"",""trial"",""time""
""focus"",""0"",""0""
""focus"",""0"",""0""
""focus"",""1"",""306072""
","""event"",""trial"",""time""
""fullscreenenter"",""1"",""308278""
","
",,,,,,,,,,,,"[{""stimulus"":""run_exp/static/images/task_images/dig.jpg"",""time"":0.40000000037252903},{""stimulus"":""run_exp/static/images/task_images/land.jpg"",""time"":670.2000000001863},{""stimulus"":""run_exp/static/images/task_images/dig.jpg"",""time"":1338.7000000001863}]",[],4,,,,,,,,,,,,,,
harvest,102,756225,0.0-33.0-4.0,"""event"",""trial"",""time""
""blur"",""0"",""0""
""focus"",""0"",""0""
""blur"",""0"",""0""
""focus"",""0"",""0""
""blur"",""1"",""266707""
""focus"",""1"",""306072""
""fullscreenenter"",""1"",""308278""
","""event"",""trial"",""time""
""blur"",""0"",""0""
""blur"",""0"",""0""
""blur"",""1"",""266707""
","""event"",""trial"",""time""
""focus"",""0"",""0""
""focus"",""0"",""0""
""focus"",""1"",""306072""
","""event"",""trial"",""time""
""fullscreenenter"",""1"",""308278""
","
",,null,run_exp/static/images/task_images/gems/99.jpg,null,,,,,,,49,,,4,,,,,99,0.491711874,0.494949495,,,,,,,
decision,103,756423,0.0-33.0-5.0,"""event"",""trial"",""time""
""blur"",""0"",""0""
""focus"",""0"",""0""
""blur"",""0"",""0""
""focus"",""0"",""0""
""blur"",""1"",""266707""
""focus"",""1"",""306072""
""fullscreenenter"",""1"",""308278""
","""event"",""trial"",""time""
""blur"",""0"",""0""
""blur"",""0"",""0""
""blur"",""1"",""266707""
","""event"",""trial"",""time""
""focus"",""0"",""0""
""focus"",""0"",""0""
""focus"",""1"",""306072""
","""event"",""trial"",""time""
""fullscreenenter"",""1"",""308278""
","
",,196.1,run_exp/static/images/task_images/land.jpg,65,,,,,,,49,,,4,,,,,,,,92428,1,0,FALSE,,,
dig,104,759233,0.0-34.0-0.0,"""event"",""trial"",""time""
""blur"",""0"",""0""
""focus"",""0"",""0""
""blur"",""0"",""0""
""focus"",""0"",""0""
""blur"",""1"",""266707""
""focus"",""1"",""306072""
""fullscreenenter"",""1"",""308278""
","""event"",""trial"",""time""
""blur"",""0"",""0""
""blur"",""0"",""0""
""blur"",""1"",""266707""
","""event"",""trial"",""time""
""focus"",""0"",""0""
""focus"",""0"",""0""
""focus"",""1"",""306072""
","""event"",""trial"",""time""
""fullscreenenter"",""1"",""308278""
","
",,,,,,,,,,,,"[{""stimulus"":""run_exp/static/images/task_images/dig.jpg"",""time"":0.20000000018626451},{""stimulus"":""run_exp/static/images/task_images/land.jpg"",""time"":935.7000000001863},{""stimulus"":""run_exp/static/images/task_images/dig.jpg"",""time"":1871.0999999996275}]",[],4,,,,,,,,,,,,,,
harvest,105,760241,0.0-34.0-1.0,"""event"",""trial"",""time""
""blur"",""0"",""0""
""focus"",""0"",""0""
""blur"",""0"",""0""
""focus"",""0"",""0""
""blur"",""1"",""266707""
""focus"",""1"",""306072""
""fullscreenenter"",""1"",""308278""
","""event"",""trial"",""time""
""blur"",""0"",""0""
""blur"",""0"",""0""
""blur"",""1"",""266707""
","""event"",""trial"",""time""
""focus"",""0"",""0""
""focus"",""0"",""0""
""focus"",""1"",""306072""
","""event"",""trial"",""time""
""fullscreenenter"",""1"",""308278""
","
",,null,run_exp/static/images/task_images/gems/49.jpg,null,,,,,,,25,,,4,,,,,49,0.508075461,0.510204082,,,,,,,
decision,106,760291,0.0-34.0-2.0,"""event"",""trial"",""time""
""blur"",""0"",""0""
""focus"",""0"",""0""
""blur"",""0"",""0""
""focus"",""0"",""0""
""blur"",""1"",""266707""
""focus"",""1"",""306072""
""fullscreenenter"",""1"",""308278""
","""event"",""trial"",""time""
""blur"",""0"",""0""
""blur"",""0"",""0""
""blur"",""1"",""266707""
","""event"",""trial"",""time""
""focus"",""0"",""0""
""focus"",""0"",""0""
""focus"",""1"",""306072""
","""event"",""trial"",""time""
""fullscreenenter"",""1"",""308278""
","
",,47.9,run_exp/static/images/task_images/land.jpg,65,,,,,,,25,,,4,,,,,,,,96296,1,1,FALSE,,,
dig,107,763249,0.0-35.0-0.0,"""event"",""trial"",""time""
""blur"",""0"",""0""
""focus"",""0"",""0""
""blur"",""0"",""0""
""focus"",""0"",""0""
""blur"",""1"",""266707""
""focus"",""1"",""306072""
""fullscreenenter"",""1"",""308278""
","""event"",""trial"",""time""
""blur"",""0"",""0""
""blur"",""0"",""0""
""blur"",""1"",""266707""
","""event"",""trial"",""time""
""focus"",""0"",""0""
""focus"",""0"",""0""
""focus"",""1"",""306072""
","""event"",""trial"",""time""
""fullscreenenter"",""1"",""308278""
","
",,,,,,,,,,,,"[{""stimulus"":""run_exp/static/images/task_images/dig.jpg"",""time"":0.19999999925494194},{""stimulus"":""run_exp/static/images/task_images/land.jpg"",""time"":987.5},{""stimulus"":""run_exp/static/images/task_images/dig.jpg"",""time"":1971.5999999996275}]",[],4,,,,,,,,,,,,,,
harvest,108,764257,0.0-35.0-1.0,"""event"",""trial"",""time""
""blur"",""0"",""0""
""focus"",""0"",""0""
""blur"",""0"",""0""
""focus"",""0"",""0""
""blur"",""1"",""266707""
""focus"",""1"",""306072""
""fullscreenenter"",""1"",""308278""
","""event"",""trial"",""time""
""blur"",""0"",""0""
""blur"",""0"",""0""
""blur"",""1"",""266707""
","""event"",""trial"",""time""
""focus"",""0"",""0""
""focus"",""0"",""0""
""focus"",""1"",""306072""
","""event"",""trial"",""time""
""fullscreenenter"",""1"",""308278""
","
",,null,run_exp/static/images/task_images/gems/25.jpg,null,,,,,,,13,,,4,,,,,25,0.525269343,0.52,,,,,,,
decision,109,764288,0.0-35.0-2.0,"""event"",""trial"",""time""
""blur"",""0"",""0""
""focus"",""0"",""0""
""blur"",""0"",""0""
""focus"",""0"",""0""
""blur"",""1"",""266707""
""focus"",""1"",""306072""
""fullscreenenter"",""1"",""308278""
","""event"",""trial"",""time""
""blur"",""0"",""0""
""blur"",""0"",""0""
""blur"",""1"",""266707""
","""event"",""trial"",""time""
""focus"",""0"",""0""
""focus"",""0"",""0""
""focus"",""1"",""306072""
","""event"",""trial"",""time""
""fullscreenenter"",""1"",""308278""
","
",,28.7,run_exp/static/images/task_images/land.jpg,65,,,,,,,13,,,4,,,,,,,,100293,1,2,FALSE,,,
dig,110,767265,0.0-36.0-0.0,"""event"",""trial"",""time""
""blur"",""0"",""0""
""focus"",""0"",""0""
""blur"",""0"",""0""
""focus"",""0"",""0""
""blur"",""1"",""266707""
""focus"",""1"",""306072""
""fullscreenenter"",""1"",""308278""
","""event"",""trial"",""time""
""blur"",""0"",""0""
""blur"",""0"",""0""
""blur"",""1"",""266707""
","""event"",""trial"",""time""
""focus"",""0"",""0""
""focus"",""0"",""0""
""focus"",""1"",""306072""
","""event"",""trial"",""time""
""fullscreenenter"",""1"",""308278""
","
",,,,,,,,,,,,"[{""stimulus"":""run_exp/static/images/task_images/dig.jpg"",""time"":0.39999999944120646},{""stimulus"":""run_exp/static/images/task_images/land.jpg"",""time"":998.0999999996275},{""stimulus"":""run_exp/static/images/task_images/dig.jpg"",""time"":1982.0999999996275}]",[],4,,,,,,,,,,,,,,
harvest,111,768273,0.0-36.0-1.0,"""event"",""trial"",""time""
""blur"",""0"",""0""
""focus"",""0"",""0""
""blur"",""0"",""0""
""focus"",""0"",""0""
""blur"",""1"",""266707""
""focus"",""1"",""306072""
""fullscreenenter"",""1"",""308278""
","""event"",""trial"",""time""
""blur"",""0"",""0""
""blur"",""0"",""0""
""blur"",""1"",""266707""
","""event"",""trial"",""time""
""focus"",""0"",""0""
""focus"",""0"",""0""
""focus"",""1"",""306072""
","""event"",""trial"",""time""
""fullscreenenter"",""1"",""308278""
","
",,null,run_exp/static/images/task_images/gems/13.jpg,null,,,,,,,7,,,4,,,,,13,0.519770597,0.538461538,,,,,,,
decision,112,768317,0.0-36.0-2.0,"""event"",""trial"",""time""
""blur"",""0"",""0""
""focus"",""0"",""0""
""blur"",""0"",""0""
""focus"",""0"",""0""
""blur"",""1"",""266707""
""focus"",""1"",""306072""
""fullscreenenter"",""1"",""308278""
","""event"",""trial"",""time""
""blur"",""0"",""0""
""blur"",""0"",""0""
""blur"",""1"",""266707""
","""event"",""trial"",""time""
""focus"",""0"",""0""
""focus"",""0"",""0""
""focus"",""1"",""306072""
","""event"",""trial"",""time""
""fullscreenenter"",""1"",""308278""
","
",,41.9,run_exp/static/images/task_images/land.jpg,76,,,,,,,7,,,4,,,,,,,,104322,1,3,TRUE,,,
travel,113,778281,0.0-37.0-0.0,"""event"",""trial"",""time""
""blur"",""0"",""0""
""focus"",""0"",""0""
""blur"",""0"",""0""
""focus"",""0"",""0""
""blur"",""1"",""266707""
""focus"",""1"",""306072""
""fullscreenenter"",""1"",""308278""
","""event"",""trial"",""time""
""blur"",""0"",""0""
""blur"",""0"",""0""
""blur"",""1"",""266707""
","""event"",""trial"",""time""
""focus"",""0"",""0""
""focus"",""0"",""0""
""focus"",""1"",""306072""
","""event"",""trial"",""time""
""fullscreenenter"",""1"",""308278""
","
",,,,,,,,,,,,"[{""stimulus"":""run_exp/static/images/task_images/rocket-01.jpg"",""time"":0.20000000018626451},{""stimulus"":""run_exp/static/images/task_images/rocket-02.jpg"",""time"":1113.6000000005588},{""stimulus"":""run_exp/static/images/task_images/rocket-03.jpg"",""time"":2217.800000000745},{""stimulus"":""run_exp/static/images/task_images/rocket-04.jpg"",""time"":3321.9000000003725},{""stimulus"":""run_exp/static/images/task_images/rocket-05.jpg"",""time"":4425.9000000003725},{""stimulus"":""run_exp/static/images/task_images/rocket-06.jpg"",""time"":5537.700000000186},{""stimulus"":""run_exp/static/images/task_images/rocket-07.jpg"",""time"":6641.9000000003725},{""stimulus"":""run_exp/static/images/task_images/rocket-08.jpg"",""time"":7745.9000000003725},{""stimulus"":""run_exp/static/images/task_images/rocket-09.jpg"",""time"":8849.700000000186}]",[],4,,,,,,,,,,,,,,
alien_welcome,114,783289,0.0-37.0-1.0,"""event"",""trial"",""time""
""blur"",""0"",""0""
""focus"",""0"",""0""
""blur"",""0"",""0""
""focus"",""0"",""0""
""blur"",""1"",""266707""
""focus"",""1"",""306072""
""fullscreenenter"",""1"",""308278""
","""event"",""trial"",""time""
""blur"",""0"",""0""
""blur"",""0"",""0""
""blur"",""1"",""266707""
","""event"",""trial"",""time""
""focus"",""0"",""0""
""focus"",""0"",""0""
""focus"",""1"",""306072""
","""event"",""trial"",""time""
""fullscreenenter"",""1"",""308278""
","
",,null,run_exp/static/images/task_images/aliens/old_aliens/planet/alien_planet-71.jpg,null,,,,,,,,,,,,,71,"28,48,7,6,71,79,11,46,8,63,57,39,30,59,23,12,76,65,58,21,37,36,44,45,73,13,4,27,75,22,41,38,77,60,29,25,54,55,26,47,74,56,42,19,33",,,,,,,,,,
land,115,783794,0.0-37.0-2.0,"""event"",""trial"",""time""
""blur"",""0"",""0""
""focus"",""0"",""0""
""blur"",""0"",""0""
""focus"",""0"",""0""
""blur"",""1"",""266707""
""focus"",""1"",""306072""
""fullscreenenter"",""1"",""308278""
","""event"",""trial"",""time""
""blur"",""0"",""0""
""blur"",""0"",""0""
""blur"",""1"",""266707""
","""event"",""trial"",""time""
""focus"",""0"",""0""
""focus"",""0"",""0""
""focus"",""1"",""306072""
","""event"",""trial"",""time""
""fullscreenenter"",""1"",""308278""
","
",,null,run_exp/static/images/task_images/land.jpg,null,,,,,,,92,,,5,,,,,,,,,,,,,,
dig,116,785802,0.0-37.0-3.0,"""event"",""trial"",""time""
""blur"",""0"",""0""
""focus"",""0"",""0""
""blur"",""0"",""0""
""focus"",""0"",""0""
""blur"",""1"",""266707""
""focus"",""1"",""306072""
""fullscreenenter"",""1"",""308278""
","""event"",""trial"",""time""
""blur"",""0"",""0""
""blur"",""0"",""0""
""blur"",""1"",""266707""
","""event"",""trial"",""time""
""focus"",""0"",""0""
""focus"",""0"",""0""
""focus"",""1"",""306072""
","""event"",""trial"",""time""
""fullscreenenter"",""1"",""308278""
","
",,,,,,,,,,,,"[{""stimulus"":""run_exp/static/images/task_images/dig.jpg"",""time"":0.39999999944120646},{""stimulus"":""run_exp/static/images/task_images/land.jpg"",""time"":670.2000000001863},{""stimulus"":""run_exp/static/images/task_images/dig.jpg"",""time"":1342.0999999996275}]",[],5,,,,,,,,,,,,,,
harvest,117,786809,0.0-37.0-4.0,"""event"",""trial"",""time""
""blur"",""0"",""0""
""focus"",""0"",""0""
""blur"",""0"",""0""
""focus"",""0"",""0""
""blur"",""1"",""266707""
""focus"",""1"",""306072""
""fullscreenenter"",""1"",""308278""
","""event"",""trial"",""time""
""blur"",""0"",""0""
""blur"",""0"",""0""
""blur"",""1"",""266707""
","""event"",""trial"",""time""
""focus"",""0"",""0""
""focus"",""0"",""0""
""focus"",""1"",""306072""
","""event"",""trial"",""time""
""fullscreenenter"",""1"",""308278""
","
",,null,run_exp/static/images/task_images/gems/92.jpg,null,,,,,,,42,,,5,,,,,92,0.454252887,0.456521739,,,,,,,
decision,118,787039,0.0-37.0-5.0,"""event"",""trial"",""time""
""blur"",""0"",""0""
""focus"",""0"",""0""
""blur"",""0"",""0""
""focus"",""0"",""0""
""blur"",""1"",""266707""
""focus"",""1"",""306072""
""fullscreenenter"",""1"",""308278""
","""event"",""trial"",""time""
""blur"",""0"",""0""
""blur"",""0"",""0""
""blur"",""1"",""266707""
","""event"",""trial"",""time""
""focus"",""0"",""0""
""focus"",""0"",""0""
""focus"",""1"",""306072""
","""event"",""trial"",""time""
""fullscreenenter"",""1"",""308278""
","
",,228.3,run_exp/static/images/task_images/land.jpg,65,,,,,,,42,,,5,,,,,,,,123044,1,0,FALSE,,,
dig,119,789817,0.0-38.0-0.0,"""event"",""trial"",""time""
""blur"",""0"",""0""
""focus"",""0"",""0""
""blur"",""0"",""0""
""focus"",""0"",""0""
""blur"",""1"",""266707""
""focus"",""1"",""306072""
""fullscreenenter"",""1"",""308278""
","""event"",""trial"",""time""
""blur"",""0"",""0""
""blur"",""0"",""0""
""blur"",""1"",""266707""
","""event"",""trial"",""time""
""focus"",""0"",""0""
""focus"",""0"",""0""
""focus"",""1"",""306072""
","""event"",""trial"",""time""
""fullscreenenter"",""1"",""308278""
","
",,,,,,,,,,,,"[{""stimulus"":""run_exp/static/images/task_images/dig.jpg"",""time"":0.2999999998137355},{""stimulus"":""run_exp/static/images/task_images/land.jpg"",""time"":926.0999999996275},{""stimulus"":""run_exp/static/images/task_images/dig.jpg"",""time"":1854.2000000001863}]",[],5,,,,,,,,,,,,,,
harvest,120,790825,0.0-38.0-1.0,"""event"",""trial"",""time""
""blur"",""0"",""0""
""focus"",""0"",""0""
""blur"",""0"",""0""
""focus"",""0"",""0""
""blur"",""1"",""266707""
""focus"",""1"",""306072""
""fullscreenenter"",""1"",""308278""
","""event"",""trial"",""time""
""blur"",""0"",""0""
""blur"",""0"",""0""
""blur"",""1"",""266707""
","""event"",""trial"",""time""
""focus"",""0"",""0""
""focus"",""0"",""0""
""focus"",""1"",""306072""
","""event"",""trial"",""time""
""fullscreenenter"",""1"",""308278""
","
",,null,run_exp/static/images/task_images/gems/42.jpg,null,,,,,,,21,,,5,,,,,42,0.495181502,0.5,,,,,,,
decision,121,791678,0.0-38.0-2.0,"""event"",""trial"",""time""
""blur"",""0"",""0""
""focus"",""0"",""0""
""blur"",""0"",""0""
""focus"",""0"",""0""
""blur"",""1"",""266707""
""focus"",""1"",""306072""
""fullscreenenter"",""1"",""308278""
","""event"",""trial"",""time""
""blur"",""0"",""0""
""blur"",""0"",""0""
""blur"",""1"",""266707""
","""event"",""trial"",""time""
""focus"",""0"",""0""
""focus"",""0"",""0""
""focus"",""1"",""306072""
","""event"",""trial"",""time""
""fullscreenenter"",""1"",""308278""
","
",,852,run_exp/static/images/task_images/land.jpg,65,,,,,,,21,,,5,,,,,,,,127683,1,1,FALSE,,,
dig,122,793833,0.0-39.0-0.0,"""event"",""trial"",""time""
""blur"",""0"",""0""
""focus"",""0"",""0""
""blur"",""0"",""0""
""focus"",""0"",""0""
""blur"",""1"",""266707""
""focus"",""1"",""306072""
""fullscreenenter"",""1"",""308278""
","""event"",""trial"",""time""
""blur"",""0"",""0""
""blur"",""0"",""0""
""blur"",""1"",""266707""
","""event"",""trial"",""time""
""focus"",""0"",""0""
""focus"",""0"",""0""
""focus"",""1"",""306072""
","""event"",""trial"",""time""
""fullscreenenter"",""1"",""308278""
","
",,,,,,,,,,,,"[{""stimulus"":""run_exp/static/images/task_images/dig.jpg"",""time"":0.2999999998137355},{""stimulus"":""run_exp/static/images/task_images/land.jpg"",""time"":719.5999999996275},{""stimulus"":""run_exp/static/images/task_images/dig.jpg"",""time"":1439.3999999994412}]",[],5,,,,,,,,,,,,,,
harvest,123,794841,0.0-39.0-1.0,"""event"",""trial"",""time""
""blur"",""0"",""0""
""focus"",""0"",""0""
""blur"",""0"",""0""
""focus"",""0"",""0""
""blur"",""1"",""266707""
""focus"",""1"",""306072""
""fullscreenenter"",""1"",""308278""
","""event"",""trial"",""time""
""blur"",""0"",""0""
""blur"",""0"",""0""
""blur"",""1"",""266707""
","""event"",""trial"",""time""
""focus"",""0"",""0""
""focus"",""0"",""0""
""focus"",""1"",""306072""
","""event"",""trial"",""time""
""fullscreenenter"",""1"",""308278""
","
",,null,run_exp/static/images/task_images/gems/21.jpg,null,,,,,,,11,,,5,,,,,21,0.525576359,0.523809524,,,,,,,
decision,124,795354,0.0-39.0-2.0,"""event"",""trial"",""time""
""blur"",""0"",""0""
""focus"",""0"",""0""
""blur"",""0"",""0""
""focus"",""0"",""0""
""blur"",""1"",""266707""
""focus"",""1"",""306072""
""fullscreenenter"",""1"",""308278""
","""event"",""trial"",""time""
""blur"",""0"",""0""
""blur"",""0"",""0""
""blur"",""1"",""266707""
","""event"",""trial"",""time""
""focus"",""0"",""0""
""focus"",""0"",""0""
""focus"",""1"",""306072""
","""event"",""trial"",""time""
""fullscreenenter"",""1"",""308278""
","
",,510.8,run_exp/static/images/task_images/land.jpg,76,,,,,,,11,,,5,,,,,,,,131359,1,2,TRUE,,,
travel,125,804849,0.0-40.0-0.0,"""event"",""trial"",""time""
""blur"",""0"",""0""
""focus"",""0"",""0""
""blur"",""0"",""0""
""focus"",""0"",""0""
""blur"",""1"",""266707""
""focus"",""1"",""306072""
""fullscreenenter"",""1"",""308278""
","""event"",""trial"",""time""
""blur"",""0"",""0""
""blur"",""0"",""0""
""blur"",""1"",""266707""
","""event"",""trial"",""time""
""focus"",""0"",""0""
""focus"",""0"",""0""
""focus"",""1"",""306072""
","""event"",""trial"",""time""
""fullscreenenter"",""1"",""308278""
","
",,,,,,,,,,,,"[{""stimulus"":""run_exp/static/images/task_images/rocket-01.jpg"",""time"":0.09999999962747097},{""stimulus"":""run_exp/static/images/task_images/rocket-02.jpg"",""time"":1060.5999999996275},{""stimulus"":""run_exp/static/images/task_images/rocket-03.jpg"",""time"":2117},{""stimulus"":""run_exp/static/images/task_images/rocket-04.jpg"",""time"":3164.4000000003725},{""stimulus"":""run_exp/static/images/task_images/rocket-05.jpg"",""time"":4220.9000000003725},{""stimulus"":""run_exp/static/images/task_images/rocket-06.jpg"",""time"":5277},{""stimulus"":""run_exp/static/images/task_images/rocket-07.jpg"",""time"":6332.9000000003725},{""stimulus"":""run_exp/static/images/task_images/rocket-08.jpg"",""time"":7381},{""stimulus"":""run_exp/static/images/task_images/rocket-09.jpg"",""time"":8436.900000000373}]",[],5,,,,,,,,,,,,,,
alien_welcome,126,809857,0.0-40.0-1.0,"""event"",""trial"",""time""
""blur"",""0"",""0""
""focus"",""0"",""0""
""blur"",""0"",""0""
""focus"",""0"",""0""
""blur"",""1"",""266707""
""focus"",""1"",""306072""
""fullscreenenter"",""1"",""308278""
","""event"",""trial"",""time""
""blur"",""0"",""0""
""blur"",""0"",""0""
""blur"",""1"",""266707""
","""event"",""trial"",""time""
""focus"",""0"",""0""
""focus"",""0"",""0""
""focus"",""1"",""306072""
","""event"",""trial"",""time""
""fullscreenenter"",""1"",""308278""
","
",,null,run_exp/static/images/task_images/aliens/old_aliens/planet/alien_planet-79.jpg,null,,,,,,,,,,,,,79,"28,48,7,6,71,79,11,46,8,63,57,39,30,59,23,12,76,65,58,21,37,36,44,45,73,13,4,27,75,22,41,38,77,60,29,25,54,55,26,47,74,56,42,19,33",,,,,,,,,,
land,127,810361,0.0-40.0-2.0,"""event"",""trial"",""time""
""blur"",""0"",""0""
""focus"",""0"",""0""
""blur"",""0"",""0""
""focus"",""0"",""0""
""blur"",""1"",""266707""
""focus"",""1"",""306072""
""fullscreenenter"",""1"",""308278""
","""event"",""trial"",""time""
""blur"",""0"",""0""
""blur"",""0"",""0""
""blur"",""1"",""266707""
","""event"",""trial"",""time""
""focus"",""0"",""0""
""focus"",""0"",""0""
""focus"",""1"",""306072""
","""event"",""trial"",""time""
""fullscreenenter"",""1"",""308278""
","
",,null,run_exp/static/images/task_images/land.jpg,null,,,,,,,105,,,6,,,,,,,,,,,,,,
dig,128,812369,0.0-40.0-3.0,"""event"",""trial"",""time""
""blur"",""0"",""0""
""focus"",""0"",""0""
""blur"",""0"",""0""
""focus"",""0"",""0""
""blur"",""1"",""266707""
""focus"",""1"",""306072""
""fullscreenenter"",""1"",""308278""
","""event"",""trial"",""time""
""blur"",""0"",""0""
""blur"",""0"",""0""
""blur"",""1"",""266707""
","""event"",""trial"",""time""
""focus"",""0"",""0""
""focus"",""0"",""0""
""focus"",""1"",""306072""
","""event"",""trial"",""time""
""fullscreenenter"",""1"",""308278""
","
",,,,,,,,,,,,"[{""stimulus"":""run_exp/static/images/task_images/dig.jpg"",""time"":0.40000000037252903},{""stimulus"":""run_exp/static/images/task_images/land.jpg"",""time"":670.6000000005588},{""stimulus"":""run_exp/static/images/task_images/dig.jpg"",""time"":1336.7000000001863}]",[],6,,,,,,,,,,,,,,
harvest,129,813377,0.0-40.0-4.0,"""event"",""trial"",""time""
""blur"",""0"",""0""
""focus"",""0"",""0""
