trial_type,trial_index,time_elapsed,internal_node_id,success,rt,stimulus,key_press,prompt,subject_id,age,gender,button_pressed,next_reward,animation_sequence,responses,planet,curr_prac_trial,n_prac_rounds,alien,aliens,reward_received,decay_rate_actual,decay_rate_exp,time_in_block,block_num,prt,last_trial_on_planet,button_html,bonus,num_failures
pavlovia,0,11,0.0-0.0,,,,,,,,,,,,,,,,,,,,,,,,,,,
fullscreen,1,3685,0.0-1.0,TRUE,,,,,,,,,,,,,,,,,,,,,,,,,,
instruc_welcome,2,13410,0.0-2.0,,null,run_exp/static/audio/clip_1_welcome.m4a,null,"<p>Howdy! In this experiment, you’ll be an explorer traveling through space to collect space treasure.</p><p>Your mission is to collect as much treasure as possible.</p><br><br><p><img src='run_exp/static/images/task_images/opening_img-01.jpg' height='300' width='auto'></p>",aEvLP6tMS7oYcIx_a5Ke5UddwllDBGZ_MLRP_7TW41y4YLPtjEjQ,10.23,female,,,,,,,,,,,,,,,,,,,
audio-keyboard-response,3,30007,0.0-3.0,,null,run_exp/static/audio/clip_2_move.m4a,null,,,,,,,,,,,,,,,,,,,,,,,
welcome_dec,4,35093,0.0-4.0,,5080.925,"<p>Howdy! In this experiment, you’ll be an explorer traveling through space to collect space treasure.</p><p>Your mission is to collect as much treasure as possible.</p><br><br><p><img src='run_exp/static/images/task_images/opening_img-01.jpg' height='300' width='auto'></p>",,,,,,1,,,,,,,,,,,,,,,,,,
html-keyboard-response,5,38536,0.0-5.0,,3437.58,"<p>Howdy! In this experiment, you’ll be an explorer traveling through space to collect space treasure.</p><p>Your mission is to collect as much treasure as possible.</p><br><br><p><img src='run_exp/static/images/task_images/opening_img-01.jpg' height='300' width='auto'></p><button class=""jspsych-html-btn-unchosen""><img src=""run_exp/static/images/task_images/planet-01.jpg"" height=""50""></button><button class=""jspsych-html-btn-chosen""><img src=""run_exp/static/images/task_images/planet-02.jpg"" height=""50""></button><p><b>[press the space bar to lock in your answer]<b><br></p>",32,,,,,,,,,,,,,,,,,,,,,,,
instruc_goal,6,48598,0.0-6.0-0.0,,null,run_exp/static/audio/clip_3_goal.m4a,null,"<p> As a space explorer, you’ll visit different planets to dig for space treasure, these pink gems.</p> <p> The more treasure you dig up, the more bonus money you’ll win! </p><br><br><p><img src='run_exp/static/images/task_images/pink_gem.jpg' height='300' width='auto'></p>",,,,,,,,,,,,,,,,,,,,,,
instruc_goal,7,53493,0.0-6.0-1.0,,4891.71,"<p> As a space explorer, you’ll visit different planets to dig for space treasure, these pink gems.</p> <p> The more treasure you dig up, the more bonus money you’ll win! </p><br><br><p><img src='run_exp/static/images/task_images/pink_gem.jpg' height='300' width='auto'></p>",,,,,,1,,,,,,,,,,,,,,,,,,
html-keyboard-response,8,55004,0.0-6.0-2.0,,1506.905,"<p> As a space explorer, you’ll visit different planets to dig for space treasure, these pink gems.</p> <p> The more treasure you dig up, the more bonus money you’ll win! </p><br><br><p><img src='run_exp/static/images/task_images/pink_gem.jpg' height='300' width='auto'></p><button class=""jspsych-html-btn-unchosen""><img src=""run_exp/static/images/task_images/planet-01.jpg"" height=""50""></button><button class=""jspsych-html-btn-chosen""><img src=""run_exp/static/images/task_images/planet-02.jpg"" height=""50""></button><p><b>[press the space bar to lock in your answer]<b><br></p>",32,,,,,,,,,,,,,,,,,,,,,,,
instruc_dig,9,71029,0.0-7.0-0.0,,null,run_exp/static/audio/clip_4_dig.m4a,null,,,,,,100,,,,,,,,,,,,,,,,,
instruc_dig_try,10,71901,0.0-7.0-1.0,,869.915,"<p> When you’ve arrived at a new planet, you will dig once. </p> <p>Then, you get to decide if you want to stay on the planet and dig again or travel to a new planet and dig there.</p> <p> To stay and dig, press the letter <strong>‘A’</strong> on your keyboard. Try pressing it now! </p><p><img src='run_exp/static/images/task_images/land.jpg'  height='700' width='auto'></p>",65,"<p> When you’ve arrived at a new planet, you will dig once. </p> <p>Then, you get to decide if you want to stay on the planet and dig again or travel to a new planet and dig there.</p> <p> To stay and dig, press the letter <strong>‘A’</strong> on your keyboard. Try pressing it now! </p><p><img src='run_exp/static/images/task_images/land.jpg'  height='700' width='auto'></p>",,,,,100,,,,,,,,,,,,,,,,,
dig_prac,11,73919,0.0-7.0-2.0,,,,,,,,,,,"[{""stimulus"":""run_exp/static/images/task_images/dig.jpg"",""time"":0.6600000015459955},{""stimulus"":""run_exp/static/images/task_images/land.jpg"",""time"":670.4650000010733},{""stimulus"":""run_exp/static/images/task_images/dig.jpg"",""time"":1336.4099999999162}]",[],,,,,,,,,,,,,,,
instruc_travel,12,110140,0.0-7.0-3.0,,null,run_exp/static/audio/clip_5_travel.m4a,null,"<p>Every time you dig up gems, there are less gems on the planet, so the more you dig on a planet the fewer gems you’ll get with each dig.</p><p>When gems are running low, you may want to travel to a new planet. </p> <p>  Planets are very far apart in this galaxy, so it will take some time to travel between them. </p> <br><p>There are lots and lots of planets for you to visit, so you won’t be able to return to any planets you’ve seen before. </p><br><p>To leave this planet and travel to a new one, press the letter <strong>‘L’</strong> on your keyboard. Try pressing it now! </p><p><img src='run_exp/static/images/task_images/rocket-01.jpg'  height='600' width='auto'></p>",,,,,,,,,,,,,,,,,,,,,,
instruc_travel_try,13,110403,0.0-7.0-4.0,,260.865,"<p>Every time you dig up gems, there are less gems on the planet, so the more you dig on a planet the fewer gems you’ll get with each dig.</p><p>When gems are running low, you may want to travel to a new planet. </p> <p>  Planets are very far apart in this galaxy, so it will take some time to travel between them. </p> <br><p>There are lots and lots of planets for you to visit, so you won’t be able to return to any planets you’ve seen before. </p><br><p>To leave this planet and travel to a new one, press the letter <strong>‘L’</strong> on your keyboard. Try pressing it now! </p><p><img src='run_exp/static/images/task_images/rocket-01.jpg'  height='600' width='auto'></p>",76,"<p>Every time you dig up gems, there are less gems on the planet, so the more you dig on a planet the fewer gems you’ll get with each dig.</p><p>When gems are running low, you may want to travel to a new planet. </p> <p>  Planets are very far apart in this galaxy, so it will take some time to travel between them. </p> <br><p>There are lots and lots of planets for you to visit, so you won’t be able to return to any planets you’ve seen before. </p><br><p>To leave this planet and travel to a new one, press the letter <strong>‘L’</strong> on your keyboard. Try pressing it now! </p><p><img src='run_exp/static/images/task_images/rocket-01.jpg'  height='600' width='auto'></p>",,,,,,,,,,,,,,,,,,,,,,
travel_prac,14,120407,0.0-7.0-5.0,,,,,,,,,,,"[{""stimulus"":""run_exp/static/images/task_images/rocket-01.jpg"",""time"":0.33999999868683517},{""stimulus"":""run_exp/static/images/task_images/rocket-02.jpg"",""time"":1112.9099999997998},{""stimulus"":""run_exp/static/images/task_images/rocket-03.jpg"",""time"":2223.9899999985937},{""stimulus"":""run_exp/static/images/task_images/rocket-04.jpg"",""time"":3335.0350000000326},{""stimulus"":""run_exp/static/images/task_images/rocket-05.jpg"",""time"":4446.169999999227},{""stimulus"":""run_exp/static/images/task_images/rocket-06.jpg"",""time"":5556.955000000016},{""stimulus"":""run_exp/static/images/task_images/rocket-07.jpg"",""time"":6668.024999999034},{""stimulus"":""run_exp/static/images/task_images/rocket-08.jpg"",""time"":7779.039999999455},{""stimulus"":""run_exp/static/images/task_images/rocket-09.jpg"",""time"":8890.124999999884}]",[],0,,,,,,,,,,,,,,
instruc_alien_greet,15,147596,0.0-7.0-6.0,,null,run_exp/static/audio/clip_6_alien.m4a,null,"<p>When you arrive at a new planet, the alien who owns the treasure mine on that planet will greet you!</p><p>The better an alien takes care of their mine the easier it is to dig for gems. Some aliens take better care of their mine than others. So, you won’t get exactly the same amount of gems on each planet.</p><p>What the alien looks like does not tell you anything about how many gems there are on the planet.</p><br><p><img src=""run_exp/static/images/task_images/aliens/instructions_aliens/planet/alien_planet-1.jpg""  height=""600"" width=""auto""></p>",,,,,,,,,,,,,,,,,,,,,,
instruc_alien_greet,16,151491,0.0-7.0-7.0,,3891.79,"<p>When you arrive at a new planet, the alien who owns the treasure mine on that planet will greet you!</p><p>The better an alien takes care of their mine the easier it is to dig for gems. Some aliens take better care of their mine than others. So, you won’t get exactly the same amount of gems on each planet.</p><p>What the alien looks like does not tell you anything about how many gems there are on the planet.</p><br><p><img src=""run_exp/static/images/task_images/aliens/instructions_aliens/planet/alien_planet-1.jpg""  height=""600"" width=""auto""></p>",,,,,,1,,,,,,,,,,,,,,,,,,
html-keyboard-response,17,153570,0.0-7.0-8.0,,2077.215,"<p>When you arrive at a new planet, the alien who owns the treasure mine on that planet will greet you!</p><p>The better an alien takes care of their mine the easier it is to dig for gems. Some aliens take better care of their mine than others. So, you won’t get exactly the same amount of gems on each planet.</p><p>What the alien looks like does not tell you anything about how many gems there are on the planet.</p><br><p><img src=""run_exp/static/images/task_images/aliens/instructions_aliens/planet/alien_planet-1.jpg""  height=""600"" width=""auto""></p><button class=""jspsych-html-btn-unchosen""><img src=""run_exp/static/images/task_images/planet-01.jpg"" height=""50""></button><button class=""jspsych-html-btn-chosen""><img src=""run_exp/static/images/task_images/planet-02.jpg"" height=""50""></button><p><b>[press the space bar to lock in your answer]<b><br></p>",32,,,,,,,,,,,,,,,,,,,,,,,
time_out,18,164662,0.0-8.0-0.0,,null,run_exp/static/audio/clip_7_timeout.m4a,null,"<p>If you don't make your choice fast enough, you’ll have to wait a few seconds before you can make another one.</p><p>You can’t dig for more gems or travel to new planets. You just have to sit and wait.</p><br><p><img src='run_exp/static/images/task_images/time_out.jpg'  height='600' width='auto'></p>",,,,,,,,,,,,,,,,,,,,,,
time_out,19,166364,0.0-8.0-1.0,,1699.75,"<p>If you don't make your choice fast enough, you’ll have to wait a few seconds before you can make another one.</p><p>You can’t dig for more gems or travel to new planets. You just have to sit and wait.</p><br><p><img src='run_exp/static/images/task_images/time_out.jpg'  height='600' width='auto'></p>",,,,,,1,,,,,,,,,,,,,,,,,,
html-keyboard-response,20,168027,0.0-8.0-2.0,,1661.33,"<p>If you don't make your choice fast enough, you’ll have to wait a few seconds before you can make another one.</p><p>You can’t dig for more gems or travel to new planets. You just have to sit and wait.</p><br><p><img src='run_exp/static/images/task_images/time_out.jpg'  height='600' width='auto'></p><button class=""jspsych-html-btn-unchosen""><img src=""run_exp/static/images/task_images/planet-01.jpg"" height=""50""></button><button class=""jspsych-html-btn-chosen""><img src=""run_exp/static/images/task_images/planet-02.jpg"" height=""50""></button><p><b>[press the space bar to lock in your answer]<b><br></p>",32,,,,,,,,,,,,,,,,,,,,,,,
instruc_break,21,183699,0.0-9.0-0.0,,null,run_exp/static/audio/clip_8_break.m4a,null,"<p> After digging and traveling for a while, you’ll be able to take a break at home base. </p><p>The game will last 20 minutes no matter what.</p><p>You will visit home base every 5 minutes, so, you will visit home base three times during the game.</p><br><p><img src='run_exp/static/images/task_images/home_base.jpg' height='600' width='auto'></p>",,,,,,,,,,,,,,,,,,,,,,
instruc_break,22,185342,0.0-9.0-1.0,,1640.02,"<p> After digging and traveling for a while, you’ll be able to take a break at home base. </p><p>The game will last 20 minutes no matter what.</p><p>You will visit home base every 5 minutes, so, you will visit home base three times during the game.</p><br><p><img src='run_exp/static/images/task_images/home_base.jpg' height='600' width='auto'></p>",,,,,,1,,,,,,,,,,,,,,,,,,
html-keyboard-response,23,185903,0.0-9.0-2.0,,559.325,"<p> After digging and traveling for a while, you’ll be able to take a break at home base. </p><p>The game will last 20 minutes no matter what.</p><p>You will visit home base every 5 minutes, so, you will visit home base three times during the game.</p><br><p><img src='run_exp/static/images/task_images/home_base.jpg' height='600' width='auto'></p><button class=""jspsych-html-btn-unchosen""><img src=""run_exp/static/images/task_images/planet-01.jpg"" height=""50""></button><button class=""jspsych-html-btn-chosen""><img src=""run_exp/static/images/task_images/planet-02.jpg"" height=""50""></button><p><b>[press the space bar to lock in your answer]<b><br></p>",32,,,,,,,,,,,,,,,,,,,,,,,
instruc_prac_game,24,196031,0.0-10.0-0.0,,null,run_exp/static/audio/clip_9_practice.m4a,null,"<p> Are you ready to play a practice game? </p> <p>In this practice game, you'll be digging up barrels of gems. But, in the real game, you'll be digging up the gems themselves. </p>",,,,,,,,,,,,,,,,,,,,,,
html-button-response,25,197935,0.0-10.0-1.0,,1901.495,"<p> Are you ready to play a practice game? </p> <p>In this practice game, you'll be digging up barrels of gems. But, in the real game, you'll be digging up the gems themselves. </p>",,,,,,0,,,,,,,,,,,,,,,,,,
alien_welcome_prac,26,202941,0.0-11.0-0.0,,null,run_exp/static/images/task_images/aliens/practice_aliens/planet/alien_planet-5.jpg,null,,,,,,,,,,,,,,,,,,,,,,,
land_prac,27,203444,0.0-11.0-1.0,,null,run_exp/static/images/task_images/land.jpg,null,,,,,,102,,,0,,,,,,,,,,,,,,
dig_prac,28,205449,0.0-11.0-2.0,,,,,,,,,,,"[{""stimulus"":""run_exp/static/images/task_images/dig.jpg"",""time"":0.37499999965075403},{""stimulus"":""run_exp/static/images/task_images/land.jpg"",""time"":668.5099999995437},{""stimulus"":""run_exp/static/images/task_images/dig.jpg"",""time"":1335.595000000496}]",[],,,,,,,,,,,,,,,
harvest_prac,29,206451,0.0-11.0-3.0,,null,run_exp/static/images/task_images/barrel_text.jpg,null,,,,,,,,,,,,,,,,,,,,,,,
decision_prac,30,208573,0.0-11.0-4.0,,2119.07,run_exp/static/images/task_images/land.jpg,65,,,,,,,,,,1,,,,,,,,,,,,,
dig_prac,31,210581,0.0-12.0-0.0,,,,,,,,,,,"[{""stimulus"":""run_exp/static/images/task_images/dig.jpg"",""time"":0.32000000099651515},{""stimulus"":""run_exp/static/images/task_images/land.jpg"",""time"":668.9299999998184},{""stimulus"":""run_exp/static/images/task_images/dig.jpg"",""time"":1335.914999999688}]",[],,,,,,,,,,,,,,,
harvest_prac,32,211583,0.0-12.0-1.0,,null,run_exp/static/images/task_images/barrel_text.jpg,null,,,,,,,,,,,,,,,,,,,,,,,
decision_prac,33,212265,0.0-12.0-2.0,,679.985,run_exp/static/images/task_images/land.jpg,65,,,,,,,,,,2,,,,,,,,,,,,,
dig_prac,34,214272,0.0-13.0-0.0,,,,,,,,,,,"[{""stimulus"":""run_exp/static/images/task_images/dig.jpg"",""time"":0.27500000031432137},{""stimulus"":""run_exp/static/images/task_images/land.jpg"",""time"":668.5600000000559},{""stimulus"":""run_exp/static/images/task_images/dig.jpg"",""time"":1335.2900000009104}]",[],,,,,,,,,,,,,,,
harvest_prac,35,215275,0.0-13.0-1.0,,null,run_exp/static/images/task_images/barrel_text.jpg,null,,,,,,,,,,,,,,,,,,,,,,,
decision_prac,36,216726,0.0-13.0-2.0,,1449.02,run_exp/static/images/task_images/land.jpg,65,,,,,,,,,,3,,,,,,,,,,,,,
dig_prac,37,218731,0.0-14.0-0.0,,,,,,,,,,,"[{""stimulus"":""run_exp/static/images/task_images/dig.jpg"",""time"":0.1799999990616925},{""stimulus"":""run_exp/static/images/task_images/land.jpg"",""time"":668.2099999997881},{""stimulus"":""run_exp/static/images/task_images/dig.jpg"",""time"":1335.1050000000978}]",[],,,,,,,,,,,,,,,
harvest_prac,38,219733,0.0-14.0-1.0,,null,run_exp/static/images/task_images/barrel_text.jpg,null,,,,,,,,,,,,,,,,,,,,,,,
decision_prac,39,220989,0.0-14.0-2.0,,1254.245,run_exp/static/images/task_images/land.jpg,76,,,,,,,,,,4,,,,,,,,,,,,,
travel,40,229736,0.0-15.0-0.0,,,,,,,,,,,"[{""stimulus"":""run_exp/static/images/task_images/rocket-01.jpg"",""time"":0.28999999997904524},{""stimulus"":""run_exp/static/images/task_images/rocket-02.jpg"",""time"":972.7750000001979},{""stimulus"":""run_exp/static/images/task_images/rocket-03.jpg"",""time"":1943.794999999227},{""stimulus"":""run_exp/static/images/task_images/rocket-04.jpg"",""time"":2914.8349999995553},{""stimulus"":""run_exp/static/images/task_images/rocket-05.jpg"",""time"":3885.9250000005122},{""stimulus"":""run_exp/static/images/task_images/rocket-06.jpg"",""time"":4856.889999999141},{""stimulus"":""run_exp/static/images/task_images/rocket-07.jpg"",""time"":5827.900000000198},{""stimulus"":""run_exp/static/images/task_images/rocket-08.jpg"",""time"":6798.9049999996205},{""stimulus"":""run_exp/static/images/task_images/rocket-09.jpg"",""time"":7770.044999999285}]",[],0,,,,,,,,,,,,,,
alien_welcome_prac,41,234740,0.0-15.0-1.0,,null,run_exp/static/images/task_images/aliens/practice_aliens/planet/alien_planet-4.jpg,null,,,,,,,,,,,,,,,,,,,,,,,
land_prac,42,235244,0.0-15.0-2.0,,null,run_exp/static/images/task_images/land.jpg,null,,,,,,105,,,0,,,,,,,,,,,,,,
dig_prac,43,237250,0.0-15.0-3.0,,,,,,,,,,,"[{""stimulus"":""run_exp/static/images/task_images/dig.jpg"",""time"":0.35500000015599653},{""stimulus"":""run_exp/static/images/task_images/land.jpg"",""time"":669.2600000005914},{""stimulus"":""run_exp/static/images/task_images/dig.jpg"",""time"":1336.225000000908}]",[],,,,,,,,,,,,,,,
harvest_prac,44,238252,0.0-15.0-4.0,,null,run_exp/static/images/task_images/barrel_text.jpg,null,,,,,,,,,,,,,,,,,,,,,,,
decision_prac,45,239350,0.0-15.0-5.0,,1096.89,run_exp/static/images/task_images/land.jpg,65,,,,,,,,,,,1,,,,,,,,,,,,
quiz_instruc,46,253278,0.0-16.0-0.0,,13921.995,run_exp/static/audio/clip_10_quiz.m4a,,,,,,0,,,,,,,,,,,,,,,,,,
instruc_repeat,47,296054,0.0-16.0-1.0,,null,"<p> Are you ready to play a practice game? </p> <p>In this practice game, you'll be digging up barrels of gems. But, in the real game, you'll be digging up the gems themselves. </p>",null,"<p>In this game, your goal is to collect as many gems as you can. That’s how you will win bonus money. </p> <p>The entire game will last 20 minutes no matter how many gems you collect or how many planets you visit. </p><p>To stay on a planet and dig again, press the letter A on your keyboard. To leave for a new planet, press the letter L.</p><p>The more you dig on a planet, the fewer gems you’ll get with each dig which is why you might consider leaving for a new planet. </p><p>When you arrive at a new planet, you’ll be greeted by an alien. What the alien looks like does not tell you anything about how much treasure is on the planet. </p>",,,,,,,,,,,,,,,,,,,,,,
instruc_repeat_continue,48,297030,0.0-16.0-2.0,,972.37,"<p> Are you ready to play a practice game? </p> <p>In this practice game, you'll be digging up barrels of gems. But, in the real game, you'll be digging up the gems themselves. </p>",,,,,,0,,,,,,,,,,,,,,,,,,
quiz_q_1_ask,49,301958,0.0-16.0-3.0,,4924.875,run_exp/static/audio/clip_11_q1_ask.m4a,,,,,,2,,,,,,,,,,,,,,,,,,
quiz_q_1_fb_correct,50,305806,0.0-17.0-0.0,,null,run_exp/static/audio/clip_12_q1_corrrect.m4a,null,<p>That’s correct. You win extra money by collecting more gems.</p>,,,,,,,,,,,,,,,,,,,,,,
quiz_q_2_ask,51,310774,0.0-17.0-1.0,,4963.55,run_exp/static/audio/clip_14_q2_ask.m4a,,,,,,1,,,,,,,,,,,,,,,,,,
quiz_q_2_fb_correct,52,314766,0.0-18.0-0.0,,null,run_exp/static/audio/clip_15_q2_correct.m4a,null,<p>That’s correct. The experiment is 20 minutes no matter what.</p>,,,,,,,,,,,,,,,,,,,,,,
quiz_q_3_ask,53,317087,0.0-18.0-1.0,,2318.4,run_exp/static/audio/clip_17_q3_ask.m4a,,,,,,1,,,,,,,,,,,,,,,,,,
quiz_q_3_fb_correct,54,321064,0.0-19.0-0.0,,null,run_exp/static/audio/clip_18_q3_correct.m4a,null,<p> That’s correct. You press the letter L to travel to a new planet.</p>,,,,,,,,,,,,,,,,,,,,,,
quiz_q_4_ask,55,327488,0.0-19.0-1.0,,6420.515,run_exp/static/audio/clip_20_q4_ask.m4a,,,,,,0,,,,,,,,,,,,,,,,,,
quiz_q_4_fb_correct,56,332830,0.0-20.0-0.0,,null,run_exp/static/audio/clip_21_q4_correct.m4a,null,<p> That’s correct. The more you dig on a planet the fewer gems you’ll get with each dig. </p>,,,,,,,,,,,,,,,,,,,,,,
quiz_q_5_ask,57,336019,0.0-20.0-1.0,,3185.16,run_exp/static/audio/clip_23_q5_ask.m4a,,,,,,1,,,,,,,,,,,,,,,,,,
quiz_q_5_fb_correct,58,341017,0.0-21.0-0.0,,null,run_exp/static/audio/clip_24_q5_correct.m4a,null,<p> That’s correct. The alien tells you nothing about how much treasure is on the planet.</p>,,,,,,,,,,,,,,,,,,,,,,
quiz_correct,59,344492,0.0-22.0-0.0,,null,run_exp/static/audio/clip_26_correct_quiz.m4a,null,,,,,,,,,,,,,,,,,,,,,,,
quiz_correct_continue,60,348451,0.0-22.0-1.0,,3957.245,<p>Good job! You're now ready to move on to the real game!</p>,,,,,,0,,,,,,,,,,,,,,,,,,
audio-keyboard-response,61,358571,0.0-22.0-2.0,,null,run_exp/static/audio/clip_28_real_game.m4a,null,,,,,,,,,,,,,,,,,,,,,,,
instruc_begin_exp_contine,62,360261,0.0-22.0-3.0,,1688.05,"<p>Now that you know how  to dig for space treasure and travel to new planets,you can start exploring! </p><p>Do you want to go over the instructions again or get started with the real game?</p>",,,,,,1,,,,,,1,,,,,,,,,,,,
alien_welcome,63,365269,0.0-23.0-0.0,,null,run_exp/static/images/task_images/aliens/old_aliens/planet/alien_planet-70.jpg,null,,,,,,,,,,,,70,"70,41,53,27,42,58,60,28,44,32,36,4,77,39,50,15,64,20,5,45,6,80,75,26,7",,,,,,,,,,
land,64,365772,0.0-23.0-1.0,,null,run_exp/static/images/task_images/land.jpg,null,,,,,,106,,,1,,,,,,,,,,,,,,
dig,65,367777,0.0-23.0-2.0,,,,,,,,,,,"[{""stimulus"":""run_exp/static/images/task_images/dig.jpg"",""time"":0.35999999998603016},{""stimulus"":""run_exp/static/images/task_images/land.jpg"",""time"":669.2999999995809},{""stimulus"":""run_exp/static/images/task_images/dig.jpg"",""time"":1336.2399999987101}]",[],1,,,,,,,,,,,,,,
harvest,66,368780,0.0-23.0-3.0,,null,run_exp/static/images/task_images/gems/106.jpg,null,,,,,,21,,,1,,,,,106,0.202139823,0.198113208,,,,,,,
decision,67,370499,0.0-23.0-4.0,,1717.01,run_exp/static/images/task_images/land.jpg,65,,,,,,21,,,1,,,,,,,,10234,1,0,FALSE,,,
dig,68,371788,0.0-24.0-0.0,,,,,,,,,,,"[{""stimulus"":""run_exp/static/images/task_images/dig.jpg"",""time"":0.2899999999208376},{""stimulus"":""run_exp/static/images/task_images/land.jpg"",""time"":428.9750000006752},{""stimulus"":""run_exp/static/images/task_images/dig.jpg"",""time"":856.0099999995437}]",[],1,,,,,,,,,,,,,,
harvest,69,372794,0.0-24.0-1.0,,null,run_exp/static/images/task_images/gems/21.jpg,null,,,,,,4,,,1,,,,,21,0.212610829,0.19047619,,,,,,,
decision,70,373484,0.0-24.0-2.0,,687.195,run_exp/static/images/task_images/land.jpg,65,,,,,,4,,,1,,,,,,,,13218,1,1,FALSE,,,
dig,71,375802,0.0-25.0-0.0,,,,,,,,,,,"[{""stimulus"":""run_exp/static/images/task_images/dig.jpg"",""time"":0.3249999990221113},{""stimulus"":""run_exp/static/images/task_images/land.jpg"",""time"":772.7250000006752},{""stimulus"":""run_exp/static/images/task_images/dig.jpg"",""time"":1541.839999999851}]",[],1,,,,,,,,,,,,,,
harvest,72,376805,0.0-25.0-1.0,,null,run_exp/static/images/task_images/gems/4.jpg,null,,,,,,1,,,1,,,,,4,0.214649157,0.25,,,,,,,
decision,73,377344,0.0-25.0-2.0,,536.91,run_exp/static/images/task_images/land.jpg,65,,,,,,1,,,1,,,,,,,,17078,1,2,FALSE,,,
dig,74,379816,0.0-26.0-0.0,,,,,,,,,,,"[{""stimulus"":""run_exp/static/images/task_images/dig.jpg"",""time"":0.30499999958556145},{""stimulus"":""run_exp/static/images/task_images/land.jpg"",""time"":822.8349999990314},{""stimulus"":""run_exp/static/images/task_images/dig.jpg"",""time"":1643.7649999989662}]",[],1,,,,,,,,,,,,,,
harvest,75,380818,0.0-26.0-1.0,,null,run_exp/static/images/task_images/gems/1.jpg,null,,,,,,0,,,1,,,,,1,0.271618027,0,,,,,,,
decision,76,381714,0.0-26.0-2.0,,893.68,run_exp/static/images/task_images/land.jpg,76,,,,,,0,,,1,,,,,,,,21448,1,3,TRUE,,,
travel,77,390821,0.0-27.0-0.0,,,,,,,,,,,"[{""stimulus"":""run_exp/static/images/task_images/rocket-01.jpg"",""time"":0.25500000081956387},{""stimulus"":""run_exp/static/images/task_images/rocket-02.jpg"",""time"":1012.6700000001583},{""stimulus"":""run_exp/static/images/task_images/rocket-03.jpg"",""time"":2023.9099999999162},{""stimulus"":""run_exp/static/images/task_images/rocket-04.jpg"",""time"":3034.944999999483},{""stimulus"":""run_exp/static/images/task_images/rocket-05.jpg"",""time"":4045.9200000005076},{""stimulus"":""run_exp/static/images/task_images/rocket-06.jpg"",""time"":5056.979999999399},{""stimulus"":""run_exp/static/images/task_images/rocket-07.jpg"",""time"":6068.185000000056},{""stimulus"":""run_exp/static/images/task_images/rocket-08.jpg"",""time"":7078.989999999991},{""stimulus"":""run_exp/static/images/task_images/rocket-09.jpg"",""time"":8089.975000000792}]",[],1,,,,,,,,,,,,,,
alien_welcome,78,395824,0.0-27.0-1.0,,null,run_exp/static/images/task_images/aliens/old_aliens/planet/alien_planet-41.jpg,null,,,,,,,,,,,,41,"70,41,53,27,42,58,60,28,44,32,36,4,77,39,50,15,64,20,5,45,6,80,75,26,7",,,,,,,,,,
land,79,396326,0.0-27.0-2.0,,null,run_exp/static/images/task_images/land.jpg,null,,,,,,92,,,2,,,,,,,,,,,,,,
dig,80,398332,0.0-27.0-3.0,,,,,,,,,,,"[{""stimulus"":""run_exp/static/images/task_images/dig.jpg"",""time"":0.37499999965075403},{""stimulus"":""run_exp/static/images/task_images/land.jpg"",""time"":668.9600000008941},{""stimulus"":""run_exp/static/images/task_images/dig.jpg"",""time"":1335.979999999865}]",[],2,,,,,,,,,,,,,,
harvest,81,399335,0.0-27.0-4.0,,null,run_exp/static/images/task_images/gems/92.jpg,null,,,,,,16,,,2,,,,,92,0.176127621,0.173913043,,,,,,,
decision,82,400131,0.0-27.0-5.0,,794.12,run_exp/static/images/task_images/land.jpg,65,,,,,,16,,,2,,,,,,,,39865,1,0,FALSE,,,
dig,83,402342,0.0-28.0-0.0,,,,,,,,,,,"[{""stimulus"":""run_exp/static/images/task_images/dig.jpg"",""time"":0.25999999896157533},{""stimulus"":""run_exp/static/images/task_images/land.jpg"",""time"":736.3849999983795},{""stimulus"":""run_exp/static/images/task_images/dig.jpg"",""time"":1471.3849999989616}]",[],2,,,,,,,,,,,,,,
harvest,84,403344,0.0-28.0-1.0,,null,run_exp/static/images/task_images/gems/16.jpg,null,,,,,,3,,,2,,,,,16,0.207901587,0.1875,,,,,,,
decision,85,403503,0.0-28.0-2.0,,156.585,run_exp/static/images/task_images/land.jpg,65,,,,,,3,,,2,,,,,,,,43238,1,1,FALSE,,,
dig,86,406349,0.0-29.0-0.0,,,,,,,,,,,"[{""stimulus"":""run_exp/static/images/task_images/dig.jpg"",""time"":0.1649999994551763},{""stimulus"":""run_exp/static/images/task_images/land.jpg"",""time"":948.8849999997765},{""stimulus"":""run_exp/static/images/task_images/dig.jpg"",""time"":1896.1450000006007}]",[],2,,,,,,,,,,,,,,
harvest,87,407351,0.0-29.0-1.0,,null,run_exp/static/images/task_images/gems/3.jpg,null,,,,,,1,,,2,,,,,3,0.203192084,0.333333333,,,,,,,
decision,88,407391,0.0-29.0-2.0,,38.3,run_exp/static/images/task_images/land.jpg,65,,,,,,1,,,2,,,,,,,,47125,1,2,FALSE,,,
dig,89,410358,0.0-30.0-0.0,,,,,,,,,,,"[{""stimulus"":""run_exp/static/images/task_images/dig.jpg"",""time"":0.16000000142958015},{""stimulus"":""run_exp/static/images/task_images/land.jpg"",""time"":988.2600000001257},{""stimulus"":""run_exp/static/images/task_images/dig.jpg"",""time"":1975.4150000008522}]",[],2,,,,,,,,,,,,,,
harvest,90,411360,0.0-30.0-1.0,,null,run_exp/static/images/task_images/gems/1.jpg,null,,,,,,0,,,2,,,,,1,0.153898117,0,,,,,,,
decision,91,411633,0.0-30.0-2.0,,270.98,run_exp/static/images/task_images/land.jpg,65,,,,,,0,,,2,,,,,,,,51367,1,3,FALSE,,,
dig,92,414368,0.0-31.0-0.0,,,,,,,,,,,"[{""stimulus"":""run_exp/static/images/task_images/dig.jpg"",""time"":0.31499999936204404},{""stimulus"":""run_exp/static/images/task_images/land.jpg"",""time"":910.6649999994552},{""stimulus"":""run_exp/static/images/task_images/dig.jpg"",""time"":1819.8099999990081}]",[],2,,,,,,,,,,,,,,
harvest,93,415370,0.0-31.0-1.0,,null,run_exp/static/images/task_images/gems/0.jpg,null,,,,,,0,,,2,,,,,0,0.226601673,NaN,,,,,,,
decision,94,416709,0.0-31.0-2.0,,1337.435,run_exp/static/images/task_images/land.jpg,76,,,,,,0,,,2,,,,,,,,56443,1,4,TRUE,,,
travel,95,425376,0.0-32.0-0.0,,,,,,,,,,,"[{""stimulus"":""run_exp/static/images/task_images/rocket-01.jpg"",""time"":0.2900000000372529},{""stimulus"":""run_exp/static/images/task_images/rocket-02.jpg"",""time"":964.3550000000978},{""stimulus"":""run_exp/static/images/task_images/rocket-03.jpg"",""time"":1926.3599999995204},{""stimulus"":""run_exp/static/images/task_images/rocket-04.jpg"",""time"":2888.4049999996787},{""stimulus"":""run_exp/static/images/task_images/rocket-05.jpg"",""time"":3850.46999999939},{""stimulus"":""run_exp/static/images/task_images/rocket-06.jpg"",""time"":4812.324999999022},{""stimulus"":""run_exp/static/images/task_images/rocket-07.jpg"",""time"":5774.480000000098},{""stimulus"":""run_exp/static/images/task_images/rocket-08.jpg"",""time"":6736.525000000256},{""stimulus"":""run_exp/static/images/task_images/rocket-09.jpg"",""time"":7698.55499999912}]",[],2,,,,,,,,,,,,,,
alien_welcome,96,430379,0.0-32.0-1.0,,null,run_exp/static/images/task_images/aliens/old_aliens/planet/alien_planet-53.jpg,null,,,,,,,,,,,,53,"70,41,53,27,42,58,60,28,44,32,36,4,77,39,50,15,64,20,5,45,6,80,75,26,7",,,,,,,,,,
land,97,430880,0.0-32.0-2.0,,null,run_exp/static/images/task_images/land.jpg,null,,,,,,102,,,3,,,,,,,,,,,,,,
dig,98,432885,0.0-32.0-3.0,,,,,,,,,,,"[{""stimulus"":""run_exp/static/images/task_images/dig.jpg"",""time"":0.37499999965075403},{""stimulus"":""run_exp/static/images/task_images/land.jpg"",""time"":668.3400000002002},{""stimulus"":""run_exp/static/images/task_images/dig.jpg"",""time"":1335.460000000312}]",[],3,,,,,,,,,,,,,,
harvest,99,433887,0.0-32.0-4.0,,null,run_exp/static/images/task_images/gems/102.jpg,null,,,,,,54,,,3,,,,,102,0.533413432,0.529411765,,,,,,,
decision,100,434577,0.0-32.0-5.0,,687.77,run_exp/static/images/task_images/land.jpg,65,,,,,,54,,,3,,,,,,,,74311,1,0,FALSE,,,
dig,101,436894,0.0-33.0-0.0,,,,,,,,,,,"[{""stimulus"":""run_exp/static/images/task_images/dig.jpg"",""time"":0.23500000138301402},{""stimulus"":""run_exp/static/images/task_images/land.jpg"",""time"":771.7400000001071},{""stimulus"":""run_exp/static/images/task_images/dig.jpg"",""time"":1541.3150000004098}]",[],3,,,,,,,,,,,,,,
harvest,102,437897,0.0-33.0-1.0,,null,run_exp/static/images/task_images/gems/54.jpg,null,,,,,,25,,,3,,,,,54,0.471402148,0.462962963,,,,,,,
decision,103,437959,0.0-33.0-2.0,,60.08,run_exp/static/images/task_images/land.jpg,65,,,,,,25,,,3,,,,,,,,77693,1,1,FALSE,,,
dig,104,440903,0.0-34.0-0.0,,,,,,,,,,,"[{""stimulus"":""run_exp/static/images/task_images/dig.jpg"",""time"":0.20500000019092113},{""stimulus"":""run_exp/static/images/task_images/land.jpg"",""time"":980.6050000005635},{""stimulus"":""run_exp/static/images/task_images/dig.jpg"",""time"":1959.624999999418}]",[],3,,,,,,,,,,,,,,
harvest,105,441905,0.0-34.0-1.0,,null,run_exp/static/images/task_images/gems/25.jpg,null,,,,,,15,,,3,,,,,25,0.614175767,0.6,,,,,,,
decision,106,441976,0.0-34.0-2.0,,68.75,run_exp/static/images/task_images/land.jpg,65,,,,,,15,,,3,,,,,,,,81710,1,2,FALSE,,,
dig,107,444915,0.0-35.0-0.0,,,,,,,,,,,"[{""stimulus"":""run_exp/static/images/task_images/dig.jpg"",""time"":0.23999999940861017},{""stimulus"":""run_exp/static/images/task_images/land.jpg"",""time"":978.7799999994459},{""stimulus"":""run_exp/static/images/task_images/dig.jpg"",""time"":1955.6549999996787}]",[],3,,,,,,,,,,,,,,
harvest,108,445917,0.0-35.0-1.0,,null,run_exp/static/images/task_images/gems/15.jpg,null,,,,,,6,,,3,,,,,15,0.403962656,0.4,,,,,,,
decision,109,446913,0.0-35.0-2.0,,993.595,run_exp/static/images/task_images/land.jpg,65,,,,,,6,,,3,,,,,,,,86647,1,3,FALSE,,,
dig,110,448925,0.0-36.0-0.0,,,,,,,,,,,"[{""stimulus"":""run_exp/static/images/task_images/dig.jpg"",""time"":0.2500000010477379},{""stimulus"":""run_exp/static/images/task_images/land.jpg"",""time"":669.3750000012806},{""stimulus"":""run_exp/static/images/task_images/dig.jpg"",""time"":1337.3950000004843}]",[],3,,,,,,,,,,,,,,
harvest,111,449928,0.0-36.0-1.0,,null,run_exp/static/images/task_images/gems/6.jpg,null,,,,,,3,,,3,,,,,6,0.467889328,0.5,,,,,,,
decision,112,450081,0.0-36.0-2.0,,151.45,run_exp/static/images/task_images/land.jpg,65,,,,,,3,,,3,,,,,,,,89815,1,4,FALSE,,,
dig,113,452934,0.0-37.0-0.0,,,,,,,,,,,"[{""stimulus"":""run_exp/static/images/task_images/dig.jpg"",""time"":0.20500000030733645},{""stimulus"":""run_exp/static/images/task_images/land.jpg"",""time"":950.4600000000792},{""stimulus"":""run_exp/static/images/task_images/dig.jpg"",""time"":1899.465000000433}]",[],3,,,,,,,,,,,,,,
harvest,114,453936,0.0-37.0-1.0,,null,run_exp/static/images/task_images/gems/3.jpg,null,,,,,,1,,,3,,,,,3,0.476312925,0.333333333,,,,,,,
decision,115,454534,0.0-37.0-2.0,,595.33,run_exp/static/images/task_images/land.jpg,65,,,,,,1,,,3,,,,,,,,94268,1,5,FALSE,,,
dig,116,456945,0.0-38.0-0.0,,,,,,,,,,,"[{""stimulus"":""run_exp/static/images/task_images/dig.jpg"",""time"":0.41499999864026904},{""stimulus"":""run_exp/static/images/task_images/land.jpg"",""time"":803.2499999989523},{""stimulus"":""run_exp/static/images/task_images/dig.jpg"",""time"":1604.0799999991432}]",[],3,,,,,,,,,,,,,,
harvest,117,457947,0.0-38.0-1.0,,null,run_exp/static/images/task_images/gems/1.jpg,null,,,,,,0,,,3,,,,,1,0.486379902,0,,,,,,,
decision,118,459729,0.0-38.0-2.0,,1779.46,run_exp/static/images/task_images/land.jpg,76,,,,,,0,,,3,,,,,,,,99463,1,6,TRUE,,,
travel,119,467954,0.0-39.0-0.0,,,,,,,,,,,"[{""stimulus"":""run_exp/static/images/task_images/rocket-01.jpg"",""time"":0.27000000048428774},{""stimulus"":""run_exp/static/images/task_images/rocket-02.jpg"",""time"":914.6999999993714},{""stimulus"":""run_exp/static/images/task_images/rocket-03.jpg"",""time"":1827.735000000801},{""stimulus"":""run_exp/static/images/task_images/rocket-04.jpg"",""time"":2740.7450000009267},{""stimulus"":""run_exp/static/images/task_images/rocket-05.jpg"",""time"":3653.7950000001583},{""stimulus"":""run_exp/static/images/task_images/rocket-06.jpg"",""time"":4566.800000000512},{""stimulus"":""run_exp/static/images/task_images/rocket-07.jpg"",""time"":5479.830000000191},{""stimulus"":""run_exp/static/images/task_images/rocket-08.jpg"",""time"":6392.85000000021},{""stimulus"":""run_exp/static/images/task_images/rocket-09.jpg"",""time"":7305.879999999888}]",[],3,,,,,,,,,,,,,,
alien_welcome,120,472957,0.0-39.0-1.0,,null,run_exp/static/images/task_images/aliens/old_aliens/planet/alien_planet-27.jpg,null,,,,,,,,,,,,27,"70,41,53,27,42,58,60,28,44,32,36,4,77,39,50,15,64,20,5,45,6,80,75,26,7",,,,,,,,,,
land,121,473459,0.0-39.0-2.0,,null,run_exp/static/images/task_images/land.jpg,null,,,,,,102,,,4,,,,,,,,,,,,,,
dig,122,475463,0.0-39.0-3.0,,,,,,,,,,,"[{""stimulus"":""run_exp/static/images/task_images/dig.jpg"",""time"":0.32000000099651515},{""stimulus"":""run_exp/static/images/task_images/land.jpg"",""time"":668.4450000011129},{""stimulus"":""run_exp/static/images/task_images/dig.jpg"",""time"":1335.4500000005355}]",[],4,,,,,,,,,,,,,,
harvest,123,476466,0.0-39.0-4.0,,null,run_exp/static/images/task_images/gems/102.jpg,null,,,,,,54,,,4,,,,,102,0.524674873,0.529411765,,,,,,,
decision,124,477107,0.0-39.0-5.0,,639.24,run_exp/static/images/task_images/land.jpg,65,,,,,,54,,,4,,,,,,,,116841,1,0,FALSE,,,
dig,125,479473,0.0-40.0-0.0,,,,,,,,,,,"[{""stimulus"":""run_exp/static/images/task_images/dig.jpg"",""time"":0.35999999998603016},{""stimulus"":""run_exp/static/images/task_images/land.jpg"",""time"":787.7799999987474},{""stimulus"":""run_exp/static/images/task_images/dig.jpg"",""time"":1573.9649999996182}]",[],4,,,,,,,,,,,,,,
harvest,126,480475,0.0-40.0-1.0,,null,run_exp/static/images/task_images/gems/54.jpg,null,,,,,,25,,,4,,,,,54,0.45668013,0.462962963,,,,,,,
decision,127,480658,0.0-40.0-2.0,,181.115,run_exp/static/images/task_images/land.jpg,65,,,,,,25,,,4,,,,,,,,120392,1,1,FALSE,,,
dig,128,483482,0.0-41.0-0.0,,,,,,,,,,,"[{""stimulus"":""run_exp/static/images/task_images/dig.jpg"",""time"":0.25500000081956387},{""stimulus"":""run_exp/static/images/task_images/land.jpg"",""time"":940.555000001099},{""stimulus"":""run_exp/static/images/task_images/dig.jpg"",""time"":1879.495000001043}]",[],4,,,,,,,,,,,,,,
harvest,129,484484,0.0-41.0-1.0,,null,run_exp/static/images/task_images/gems/25.jpg,null,,,,,,12,,,4,,,,,25,0.481643855,0.48,,,,,,,
decision,130,484796,0.0-41.0-2.0,,310.225,run_exp/static/images/task_images/land.jpg,65,,,,,,12,,,4,,,,,,,,124530,1,2,FALSE,,,
dig,131,487490,0.0-42.0-0.0,,,,,,,,,,,"[{""stimulus"":""run_exp/static/images/task_images/dig.jpg"",""time"":0.24499999929685146},{""stimulus"":""run_exp/static/images/task_images/land.jpg"",""time"":897.7250000007916},{""stimulus"":""run_exp/static/images/task_images/dig.jpg"",""time"":1793.6649999992223}]",[],4,,,,,,,,,,,,,,
harvest,132,488493,0.0-42.0-1.0,,null,run_exp/static/images/task_images/gems/12.jpg,null,,,,,,5,,,4,,,,,12,0.436506924,0.416666667,,,,,,,
decision,133,488755,0.0-42.0-2.0,,260.41,run_exp/static/images/task_images/land.jpg,65,,,,,,5,,,4,,,,,,,,128490,1,3,FALSE,,,
dig,134,491502,0.0-43.0-0.0,,,,,,,,,,,"[{""stimulus"":""run_exp/static/images/task_images/dig.jpg"",""time"":0.24499999929685146},{""stimulus"":""run_exp/static/images/task_images/land.jpg"",""time"":914.815000000177},{""stimulus"":""run_exp/static/images/task_images/dig.jpg"",""time"":1827.71999999939}]",[],4,,,,,,,,,,,,,,
harvest,135,492505,0.0-43.0-1.0,,null,run_exp/static/images/task_images/gems/5.jpg,null,,,,,,2,,,4,,,,,5,0.466294322,0.4,,,,,,,
decision,136,493068,0.0-43.0-2.0,,560.555,run_exp/static/images/task_images/land.jpg,65,,,,,,2,,,4,,,,,,,,132802,1,4,FALSE,,,
dig,137,495514,0.0-44.0-0.0,,,,,,,,,,,"[{""stimulus"":""run_exp/static/images/task_images/dig.jpg"",""time"":0.2700000003678724},{""stimulus"":""run_exp/static/images/task_images/land.jpg"",""time"":814.5050000002375},{""stimulus"":""run_exp/static/images/task_images/dig.jpg"",""time"":1627.6749999996973}]",[],4,,,,,,,,,,,,,,
harvest,138,496516,0.0-44.0-1.0,,null,run_exp/static/images/task_images/gems/2.jpg,null,,,,,,1,,,4,,,,,2,0.525371524,0.5,,,,,,,
decision,139,497077,0.0-44.0-2.0,,557.99,run_exp/static/images/task_images/land.jpg,65,,,,,,1,,,4,,,,,,,,136811,1,5,FALSE,,,
dig,140,499530,0.0-45.0-0.0,,,,,,,,,,,"[{""stimulus"":""run_exp/static/images/task_images/dig.jpg"",""time"":0.3750000015133992},{""stimulus"":""run_exp/static/images/task_images/land.jpg"",""time"":815.8800000001211},{""stimulus"":""run_exp/static/images/task_images/dig.jpg"",""time"":1630.0200000004843}]",[],4,,,,,,,,,,,,,,
harvest,141,500532,0.0-45.0-1.0,,null,run_exp/static/images/task_images/gems/1.jpg,null,,,,,,0,,,4,,,,,1,0.415923131,0,,,,,,,
decision,142,502084,0.0-45.0-2.0,,1549.325,run_exp/static/images/task_images/land.jpg,65,,,,,,0,,,4,,,,,,,,141818,1,6,FALSE,,,
dig,143,503540,0.0-46.0-0.0,,,,,,,,,,,"[{""stimulus"":""run_exp/static/images/task_images/dig.jpg"",""time"":0.2699999986216426},{""stimulus"":""run_exp/static/images/task_images/land.jpg"",""time"":484.2849999986356},{""stimulus"":""run_exp/static/images/task_images/dig.jpg"",""time"":967.1149999994086}]",[],4,,,,,,,,,,,,,,
harvest,144,504544,0.0-46.0-1.0,,null,run_exp/static/images/task_images/gems/0.jpg,null,,,,,,0,,,4,,,,,0,0.462618354,NaN,,,,,,,
decision,145,505070,0.0-46.0-2.0,,523.24,run_exp/static/images/task_images/land.jpg,76,,,,,,0,,,4,,,,,,,,144804,1,7,TRUE,,,
travel,146,514549,0.0-47.0-0.0,,,,,,,,,,,"[{""stimulus"":""run_exp/static/images/task_images/rocket-01.jpg"",""time"":0.3050000014482066},{""stimulus"":""run_exp/static/images/task_images/rocket-02.jpg"",""time"":1054.0400000009686},{""stimulus"":""run_exp/static/images/task_images/rocket-03.jpg"",""time"":2106.185000000638},{""stimulus"":""run_exp/static/images/task_images/rocket-04.jpg"",""time"":3158.2200000012526},{""stimulus"":""run_exp/static/images/task_images/rocket-05.jpg"",""time"":4210.250000000116},{""stimulus"":""run_exp/static/images/task_images/rocket-06.jpg"",""time"":5262.34500000102},{""stimulus"":""run_exp/static/images/task_images/rocket-07.jpg"",""time"":6313.310000001453},{""stimulus"":""run_exp/static/images/task_images/rocket-08.jpg"",""time"":7366.065000000177},{""stimulus"":""run_exp/static/images/task_images/rocket-09.jpg"",""time"":8418.01000000129}]",[],4,,,,,,,,,,,,,,
alien_welcome,147,519552,0.0-47.0-1.0,,null,run_exp/static/images/task_images/aliens/old_aliens/planet/alien_planet-42.jpg,null,,,,,,,,,,,,42,"70,41,53,27,42,58,60,28,44,32,36,4,77,39,50,15,64,20,5,45,6,80,75,26,7",,,,,,,,,,
land,148,520056,0.0-47.0-2.0,,null,run_exp/static/images/task_images/land.jpg,null,,,,,,100,,,5,,,,,,,,,,,,,,
dig,149,522060,0.0-47.0-3.0,,,,,,,,,,,"[{""stimulus"":""run_exp/static/images/task_images/dig.jpg"",""time"":0.43499999993946403},{""stimulus"":""run_exp/static/images/task_images/land.jpg"",""time"":668.8649999996414},{""stimulus"":""run_exp/static/images/task_images/dig.jpg"",""time"":1335.829999999958}]",[],5,,,,,,,,,,,,,,
harvest,150,523063,0.0-47.0-4.0,,null,run_exp/static/images/task_images/gems/100.jpg,null,,,,,,52,,,5,,,,,100,0.517230151,0.52,,,,,,,
decision,151,523844,0.0-47.0-5.0,,779.51,run_exp/static/images/task_images/land.jpg,65,,,,,,52,,,5,,,,,,,,163578,1,0,FALSE,,,
dig,152,526069,0.0-48.0-0.0,,,,,,,,,,,"[{""stimulus"":""run_exp/static/images/task_images/dig.jpg"",""time"":0.17499999923165888},{""stimulus"":""run_exp/static/images/task_images/land.jpg"",""time"":741.2949999998091},{""stimulus"":""run_exp/static/images/task_images/dig.jpg"",""time"":1481.7299999995157}]",[],5,,,,,,,,,,,,,,
harvest,153,527071,0.0-48.0-1.0,,null,run_exp/static/images/task_images/gems/52.jpg,null,,,,,,29,,,5,,,,,52,0.566234702,0.557692308,,,,,,,
decision,154,527116,0.0-48.0-2.0,,43.38,run_exp/static/images/task_images/land.jpg,65,,,,,,29,,,5,,,,,,,,166850,1,1,FALSE,,,
dig,155,530076,0.0-49.0-0.0,,,,,,,,,,,"[{""stimulus"":""run_exp/static/images/task_images/dig.jpg"",""time"":0.20500000030733645},{""stimulus"":""run_exp/static/images/task_images/land.jpg"",""time"":986.3000000005122},{""stimulus"":""run_exp/static/images/task_images/dig.jpg"",""time"":1971.1999999999534}]",[],5,,,,,,,,,,,,,,
harvest,156,531078,0.0-49.0-1.0,,null,run_exp/static/images/task_images/gems/29.jpg,null,,,,,,13,,,5,,,,,29,0.464548383,0.448275862,,,,,,,
decision,157,531752,0.0-49.0-2.0,,672.39,run_exp/static/images/task_images/land.jpg,65,,,,,,13,,,5,,,,,,,,171486,1,2,FALSE,,,
dig,158,534083,0.0-50.0-0.0,,,,,,,,,,,"[{""stimulus"":""run_exp/static/images/task_images/dig.jpg"",""time"":0.219999999855645},{""stimulus"":""run_exp/static/images/task_images/land.jpg"",""time"":776.4550000010058},{""stimulus"":""run_exp/static/images/task_images/dig.jpg"",""time"":1551.5450000001583}]",[],5,,,,,,,,,,,,,,
harvest,159,535085,0.0-50.0-1.0,,null,run_exp/static/images/task_images/gems/13.jpg,null,,,,,,7,,,5,,,,,13,0.51597427,0.538461538,,,,,,,
decision,160,535622,0.0-50.0-2.0,,534.435,run_exp/static/images/task_images/land.jpg,65,,,,,,7,,,5,,,,,,,,175356,1,3,FALSE,,,
dig,161,538101,0.0-51.0-0.0,,,,,,,,,,,"[{""stimulus"":""run_exp/static/images/task_images/dig.jpg"",""time"":0.31500000110827386},{""stimulus"":""run_exp/static/images/task_images/land.jpg"",""time"":822.4250000002794},{""stimulus"":""run_exp/static/images/task_images/dig.jpg"",""time"":1643.49000000034}]",[],5,,,,,,,,,,,,,,
harvest,162,539103,0.0-51.0-1.0,,null,run_exp/static/images/task_images/gems/7.jpg,null,,,,,,3,,,5,,,,,7,0.451233024,0.428571429,,,,,,,
decision,163,539269,0.0-51.0-2.0,,163.555,run_exp/static/images/task_images/land.jpg,65,,,,,,3,,,5,,,,,,,,179003,1,4,FALSE,,,
dig,164,542113,0.0-52.0-0.0,,,,,,,,,,,"[{""stimulus"":""run_exp/static/images/task_images/dig.jpg"",""time"":0.32000000099651515},{""stimulus"":""run_exp/static/images/task_images/land.jpg"",""time"":946.4850000003353},{""stimulus"":""run_exp/static/images/task_images/dig.jpg"",""time"":1891.4249999998137}]",[],5,,,,,,,,,,,,,,
harvest,165,543115,0.0-52.0-1.0,,null,run_exp/static/images/task_images/gems/3.jpg,null,,,,,,2,,,5,,,,,3,0.59614382,0.666666667,,,,,,,
decision,166,543732,0.0-52.0-2.0,,614.6,run_exp/static/images/task_images/land.jpg,65,,,,,,2,,,5,,,,,,,,183466,1,5,FALSE,,,
dig,167,546128,0.0-53.0-0.0,,,,,,,,,,,"[{""stimulus"":""run_exp/static/images/task_images/dig.jpg"",""time"":0.8799999996554106},{""stimulus"":""run_exp/static/images/task_images/land.jpg"",""time"":797.945000000298},{""stimulus"":""run_exp/static/images/task_images/dig.jpg"",""time"":1593.9250000010943}]",[],5,,,,,,,,,,,,,,
harvest,168,547132,0.0-53.0-1.0,,null,run_exp/static/images/task_images/gems/2.jpg,null,,,,,,1,,,5,,,,,2,0.455678409,0.5,,,,,,,
decision,169,548443,0.0-53.0-2.0,,1308.655,run_exp/static/images/task_images/land.jpg,65,,,,,,1,,,5,,,,,,,,188177,1,6,FALSE,,,
dig,170,550140,0.0-54.0-0.0,,,,,,,,,,,"[{""stimulus"":""run_exp/static/images/task_images/dig.jpg"",""time"":1.304999999818392},{""stimulus"":""run_exp/static/images/task_images/land.jpg"",""time"":566.0099999987287},{""stimulus"":""run_exp/static/images/task_images/dig.jpg"",""time"":1128.9149999993388}]",[],5,,,,,,,,,,,,,,
harvest,171,551143,0.0-54.0-1.0,,null,run_exp/static/images/task_images/gems/1.jpg,null,,,,,,0,,,5,,,,,1,0.484333479,0,,,,,,,
decision,172,552456,0.0-54.0-2.0,,1311.515,run_exp/static/images/task_images/land.jpg,76,,,,,,0,,,5,,,,,,,,192190,1,7,TRUE,,,
travel,173,561149,0.0-55.0-0.0,,,,,,,,,,,"[{""stimulus"":""run_exp/static/images/task_images/rocket-01.jpg"",""time"":0.2699999986216426},{""stimulus"":""run_exp/static/images/task_images/rocket-02.jpg"",""time"":966.5349999995669},{""stimulus"":""run_exp/static/images/task_images/rocket-03.jpg"",""time"":1931.4099999992177},{""stimulus"":""run_exp/static/images/task_images/rocket-04.jpg"",""time"":2896.44999999844},{""stimulus"":""run_exp/static/images/task_images/rocket-05.jpg"",""time"":3861.4849999995204},{""stimulus"":""run_exp/static/images/task_images/rocket-06.jpg"",""time"":4826.51499999885},{""stimulus"":""run_exp/static/images/task_images/rocket-07.jpg"",""time"":5791.609999998473},{""stimulus"":""run_exp/static/images/task_images/rocket-08.jpg"",""time"":6756.629999999888},{""stimulus"":""run_exp/static/images/task_images/rocket-09.jpg"",""time"":7721.599999998929}]",[],5,,,,,,,,,,,,,,
alien_welcome,174,566152,0.0-55.0-1.0,,null,run_exp/static/images/task_images/aliens/old_aliens/planet/alien_planet-58.jpg,null,,,,,,,,,,,,58,"70,41,53,27,42,58,60,28,44,32,36,4,77,39,50,15,64,20,5,45,6,80,75,26,7",,,,,,,,,,
land,175,566657,0.0-55.0-2.0,,null,run_exp/static/images/task_images/land.jpg,null,,,,,,102,,,6,,,,,,,,,,,,,,
dig,176,568662,0.0-55.0-3.0,,,,,,,,,,,"[{""stimulus"":""run_exp/static/images/task_images/dig.jpg"",""time"":0.4050000007264316},{""stimulus"":""run_exp/static/images/task_images/land.jpg"",""time"":668.8599999997532},{""stimulus"":""run_exp/static/images/task_images/dig.jpg"",""time"":1335.930000001099}]",[],6,,,,,,,,,,,,,,
harvest,177,569666,0.0-55.0-4.0,,null,run_exp/static/images/task_images/gems/102.jpg,null,,,,,,88,,,6,,,,,102,0.860679436,0.862745098,,,,,,,
decision,178,570450,0.0-55.0-5.0,,782.545,run_exp/static/images/task_images/land.jpg,65,,,,,,88,,,6,,,,,,,,210184,1,0,FALSE,,,
dig,179,572674,0.0-56.0-0.0,,,,,,,,,,,"[{""stimulus"":""run_exp/static/images/task_images/dig.jpg"",""time"":0.1649999994551763},{""stimulus"":""run_exp/static/images/task_images/land.jpg"",""time"":740.9449999994831},{""stimulus"":""run_exp/static/images/task_images/dig.jpg"",""time"":1480.0699999995995}]",[],6,,,,,,,,,,,,,,
harvest,180,573676,0.0-56.0-1.0,,null,run_exp/static/images/task_images/gems/88.jpg,null,,,,,,70,,,6,,,,,88,0.800510405,0.795454545,,,,,,,
decision,181,574221,0.0-56.0-2.0,,542.735,run_exp/static/images/task_images/land.jpg,65,,,,,,70,,,6,,,,,,,,213955,1,1,FALSE,,,
dig,182,576686,0.0-57.0-0.0,,,,,,,,,,,"[{""stimulus"":""run_exp/static/images/task_images/dig.jpg"",""time"":0.2899999999208376},{""stimulus"":""run_exp/static/images/task_images/land.jpg"",""time"":820.270000000135},{""stimulus"":""run_exp/static/images/task_images/dig.jpg"",""time"":1639.4299999992363}]",[],6,,,,,,,,,,,,,,
harvest,183,577688,0.0-57.0-1.0,,null,run_exp/static/images/task_images/gems/70.jpg,null,,,,,,57,,,6,,,,,70,0.814704143,0.814285714,,,,,,,
decision,184,577756,0.0-57.0-2.0,,66.125,run_exp/static/images/task_images/land.jpg,65,,,,,,57,,,6,,,,,,,,217490,1,2,FALSE,,,
dig,185,580692,0.0-58.0-0.0,,,,,,,,,,,"[{""stimulus"":""run_exp/static/images/task_images/dig.jpg"",""time"":0.17499999923165888},{""stimulus"":""run_exp/static/images/task_images/land.jpg"",""time"":978.3299999998417},{""stimulus"":""run_exp/static/images/task_images/dig.jpg"",""time"":1955.3549999999814}]",[],6,,,,,,,,,,,,,,
harvest,186,581694,0.0-58.0-1.0,,null,run_exp/static/images/task_images/gems/57.jpg,null,,,,,,51,,,6,,,,,57,0.893641999,0.894736842,,,,,,,
decision,187,581918,0.0-58.0-2.0,,221.4,run_exp/static/images/task_images/land.jpg,65,,,,,,51,,,6,,,,,,,,221652,1,3,FALSE,,,
dig,188,584705,0.0-59.0-0.0,,,,,,,,,,,"[{""stimulus"":""run_exp/static/images/task_images/dig.jpg"",""time"":0.26500000059604645},{""stimulus"":""run_exp/static/images/task_images/land.jpg"",""time"":928.1749999991152},{""stimulus"":""run_exp/static/images/task_images/dig.jpg"",""time"":1854.310000000638}]",[],6,,,,,,,,,,,,,,
harvest,189,585707,0.0-59.0-1.0,,null,run_exp/static/images/task_images/gems/51.jpg,null,,,,,,40,,,6,,,,,51,0.793849579,0.784313725,,,,,,,
decision,190,585781,0.0-59.0-2.0,,72.09,run_exp/static/images/task_images/land.jpg,65,,,,,,40,,,6,,,,,,,,225516,1,4,FALSE,,,
dig,191,588712,0.0-60.0-0.0,,,,,,,,,,,"[{""stimulus"":""run_exp/static/images/task_images/dig.jpg"",""time"":0.20500000030733645},{""stimulus"":""run_exp/static/images/task_images/land.jpg"",""time"":976.5250000000233},{""stimulus"":""run_exp/static/images/task_images/dig.jpg"",""time"":1951.600000000326}]",[],6,,,,,,,,,,,,,,
harvest,192,589715,0.0-60.0-1.0,,null,run_exp/static/images/task_images/gems/40.jpg,null,,,,,,33,,,6,,,,,40,0.817365848,0.825,,,,,,,
decision,193,589991,0.0-60.0-2.0,,273.59,run_exp/static/images/task_images/land.jpg,65,,,,,,33,,,6,,,,,,,,229725,1,5,FALSE,,,
dig,194,592722,0.0-61.0-0.0,,,,,,,,,,,"[{""stimulus"":""run_exp/static/images/task_images/dig.jpg"",""time"":0.3149999992456287},{""stimulus"":""run_exp/static/images/task_images/land.jpg"",""time"":909.8799999991897},{""stimulus"":""run_exp/static/images/task_images/dig.jpg"",""time"":1817.9299999992363}]",[],6,,,,,,,,,,,,,,
harvest,195,593724,0.0-61.0-1.0,,null,run_exp/static/images/task_images/gems/33.jpg,null,,,,,,26,,,6,,,,,33,0.792343439,0.787878788,,,,,,,
decision,196,593906,0.0-61.0-2.0,,179.79,run_exp/static/images/task_images/land.jpg,65,,,,,,26,,,6,,,,,,,,233641,1,6,FALSE,,,
dig,197,596735,0.0-62.0-0.0,,,,,,,,,,,"[{""stimulus"":""run_exp/static/images/task_images/dig.jpg"",""time"":0.30999999947380275},{""stimulus"":""run_exp/static/images/task_images/land.jpg"",""time"":941.9749999997439},{""stimulus"":""run_exp/static/images/task_images/dig.jpg"",""time"":1882.0399999986403}]",[],6,,,,,,,,,,,,,,
harvest,198,597738,0.0-62.0-1.0,,null,run_exp/static/images/task_images/gems/26.jpg,null,,,,,,22,,,6,,,,,26,0.845780774,0.846153846,,,,,,,
decision,199,598035,0.0-62.0-2.0,,295.37,run_exp/static/images/task_images/land.jpg,65,,,,,,22,,,6,,,,,,,,237769,1,7,FALSE,,,
dig,200,600746,0.0-63.0-0.0,,,,,,,,,,,"[{""stimulus"":""run_exp/static/images/task_images/dig.jpg"",""time"":0.26000000070780516},{""stimulus"":""run_exp/static/images/task_images/land.jpg"",""time"":902.5000000001164},{""stimulus"":""run_exp/static/images/task_images/dig.jpg"",""time"":1804.509999999893}]",[],6,,,,,,,,,,,,,,
harvest,201,601748,0.0-63.0-1.0,,null,run_exp/static/images/task_images/gems/22.jpg,null,,,,,,18,,,6,,,,,22,0.817049868,0.818181818,,,,,,,
decision,202,602062,0.0-63.0-2.0,,311.81,run_exp/static/images/task_images/land.jpg,65,,,,,,18,,,6,,,,,,,,241796,1,8,FALSE,,,
dig,203,604755,0.0-64.0-0.0,,,,,,,,,,,"[{""stimulus"":""run_exp/static/images/task_images/dig.jpg"",""time"":0.17500000109430403},{""stimulus"":""run_exp/static/images/task_images/land.jpg"",""time"":897.1950000013458},{""stimulus"":""run_exp/static/images/task_images/dig.jpg"",""time"":1793.1399999997811}]",[],6,,,,,,,,,,,,,,
harvest,204,605757,0.0-64.0-1.0,,null,run_exp/static/images/task_images/gems/18.jpg,null,,,,,,14,,,6,,,,,18,0.793980798,0.777777778,,,,,,,
decision,205,605809,0.0-64.0-2.0,,50.37,run_exp/static/images/task_images/land.jpg,65,,,,,,14,,,6,,,,,,,,245544,1,9,FALSE,,,
dig,206,608765,0.0-65.0-0.0,,,,,,,,,,,"[{""stimulus"":""run_exp/static/images/task_images/dig.jpg"",""time"":0.19499999866820872},{""stimulus"":""run_exp/static/images/task_images/land.jpg"",""time"":985.1499999986263},{""stimulus"":""run_exp/static/images/task_images/dig.jpg"",""time"":1967.2749999989755}]",[],6,,,,,,,,,,,,,,
harvest,207,609767,0.0-65.0-1.0,,null,run_exp/static/images/task_images/gems/14.jpg,null,,,,,,11,,,6,,,,,14,0.79421995,0.785714286,,,,,,,
decision,208,610012,0.0-65.0-2.0,,243.16,run_exp/static/images/task_images/land.jpg,65,,,,,,11,,,6,,,,,,,,249746,1,10,FALSE,,,
dig,209,612774,0.0-66.0-0.0,,,,,,,,,,,"[{""stimulus"":""run_exp/static/images/task_images/dig.jpg"",""time"":0.31999999913387},{""stimulus"":""run_exp/static/images/task_images/land.jpg"",""time"":919.8149999992456},{""stimulus"":""run_exp/static/images/task_images/dig.jpg"",""time"":1837.5399999986403}]",[],6,,,,,,,,,,,,,,
harvest,210,613776,0.0-66.0-1.0,,null,run_exp/static/images/task_images/gems/11.jpg,null,,,,,,9,,,6,,,,,11,0.848311765,0.818181818,,,,,,,
decision,211,613792,0.0-66.0-2.0,,13.08,run_exp/static/images/task_images/land.jpg,65,,,,,,9,,,6,,,,,,,,253526,1,11,FALSE,,,
dig,212,616785,0.0-67.0-0.0,,,,,,,,,,,"[{""stimulus"":""run_exp/static/images/task_images/dig.jpg"",""time"":0.35999999998603016},{""stimulus"":""run_exp/static/images/task_images/land.jpg"",""time"":996.4350000009872},{""stimulus"":""run_exp/static/images/task_images/dig.jpg"",""time"":1991.5050000000047}]",[],6,,,,,,,,,,,,,,
harvest,213,617787,0.0-67.0-1.0,,null,run_exp/static/images/task_images/gems/9.jpg,null,,,,,,7,,,6,,,,,9,0.79610443,0.777777778,,,,,,,
decision,214,618218,0.0-67.0-2.0,,428.52,run_exp/static/images/task_images/land.jpg,65,,,,,,7,,,6,,,,,,,,257952,1,12,FALSE,,,
dig,215,620798,0.0-68.0-0.0,,,,,,,,,,,"[{""stimulus"":""run_exp/static/images/task_images/dig.jpg"",""time"":0.29999999969732016},{""stimulus"":""run_exp/static/images/task_images/land.jpg"",""time"":859.1750000014435},{""stimulus"":""run_exp/static/images/task_images/dig.jpg"",""time"":1716.1900000009919}]",[],6,,,,,,,,,,,,,,
harvest,216,621800,0.0-68.0-1.0,,null,run_exp/static/images/task_images/gems/7.jpg,null,,,,,,5,,,6,,,,,7,0.760355196,0.714285714,,,,,,,
decision,217,622359,0.0-68.0-2.0,,556.24,run_exp/static/images/task_images/land.jpg,65,,,,,,5,,,6,,,,,,,,262093,1,13,FALSE,,,
dig,218,624810,0.0-69.0-0.0,,,,,,,,,,,"[{""stimulus"":""run_exp/static/images/task_images/dig.jpg"",""time"":0.2850000000325963},{""stimulus"":""run_exp/static/images/task_images/land.jpg"",""time"":815.725000000326},{""stimulus"":""run_exp/static/images/task_images/dig.jpg"",""time"":1629.880000000354}]",[],6,,,,,,,,,,,,,,
harvest,219,625813,0.0-69.0-1.0,,null,run_exp/static/images/task_images/gems/5.jpg,null,,,,,,4,,,6,,,,,5,0.840180592,0.8,,,,,,,
decision,220,626741,0.0-69.0-2.0,,925.97,run_exp/static/images/task_images/land.jpg,65,,,,,,4,,,6,,,,,,,,266475,1,14,FALSE,,,
dig,221,628821,0.0-70.0-0.0,,,,,,,,,,,"[{""stimulus"":""run_exp/static/images/task_images/dig.jpg"",""time"":0.26500000059604645},{""stimulus"":""run_exp/static/images/task_images/land.jpg"",""time"":692.5200000004843},{""stimulus"":""run_exp/static/images/task_images/dig.jpg"",""time"":1383.5249999993248}]",[],6,,,,,,,,,,,,,,
harvest,222,629826,0.0-70.0-1.0,,null,run_exp/static/images/task_images/gems/4.jpg,null,,,,,,3,,,6,,,,,4,0.823165451,0.75,,,,,,,
decision,223,630221,0.0-70.0-2.0,,392.865,run_exp/static/images/task_images/land.jpg,65,,,,,,3,,,6,,,,,,,,269955,1,15,FALSE,,,
dig,224,632836,0.0-71.0-0.0,,,,,,,,,,,"[{""stimulus"":""run_exp/static/images/task_images/dig.jpg"",""time"":0.30999999947380275},{""stimulus"":""run_exp/static/images/task_images/land.jpg"",""time"":870.7649999996647},{""stimulus"":""run_exp/static/images/task_images/dig.jpg"",""time"":1739.8899999989662}]",[],6,,,,,,,,,,,,,,
harvest,225,633838,0.0-71.0-1.0,,null,run_exp/static/images/task_images/gems/3.jpg,null,,,,,,2,,,6,,,,,3,0.830103535,0.666666667,,,,,,,
decision,226,634148,0.0-71.0-2.0,,307.37,run_exp/static/images/task_images/land.jpg,65,,,,,,2,,,6,,,,,,,,273882,1,16,FALSE,,,
dig,227,636846,0.0-72.0-0.0,,,,,,,,,,,"[{""stimulus"":""run_exp/static/images/task_images/dig.jpg"",""time"":0.25500000081956387},{""stimulus"":""run_exp/static/images/task_images/land.jpg"",""time"":898.1500000008382},{""stimulus"":""run_exp/static/images/task_images/dig.jpg"",""time"":1795.1950000005309}]",[],6,,,,,,,,,,,,,,
harvest,228,637849,0.0-72.0-1.0,,null,run_exp/static/images/task_images/gems/2.jpg,null,,,,,,2,,,6,,,,,2,0.824368174,1,,,,,,,
decision,229,638237,0.0-72.0-2.0,,385.53,run_exp/static/images/task_images/land.jpg,65,,,,,,2,,,6,,,,,,,,277971,1,17,FALSE,,,
dig,230,640862,0.0-73.0-0.0,,,,,,,,,,,"[{""stimulus"":""run_exp/static/images/task_images/dig.jpg"",""time"":0.32500000088475645},{""stimulus"":""run_exp/static/images/task_images/land.jpg"",""time"":873.1650000008522},{""stimulus"":""run_exp/static/images/task_images/dig.jpg"",""time"":1744.2750000009546}]",[],6,,,,,,,,,,,,,,
harvest,231,641864,0.0-73.0-1.0,,null,run_exp/static/images/task_images/gems/2.jpg,null,,,,,,1,,,6,,,,,2,0.734975125,0.5,,,,,,,
decision,232,642149,0.0-73.0-2.0,,282.01,run_exp/static/images/task_images/land.jpg,65,,,,,,1,,,6,,,,,,,,281883,1,18,FALSE,,,
dig,233,644872,0.0-74.0-0.0,,,,,,,,,,,"[{""stimulus"":""run_exp/static/images/task_images/dig.jpg"",""time"":0.23999999940861017},{""stimulus"":""run_exp/static/images/task_images/land.jpg"",""time"":906.675000000163},{""stimulus"":""run_exp/static/images/task_images/dig.jpg"",""time"":1811.7099999999627}]",[],6,,,,,,,,,,,,,,
harvest,234,645875,0.0-74.0-1.0,,null,run_exp/static/images/task_images/gems/1.jpg,null,,,,,,1,,,6,,,,,1,0.797088884,1,,,,,,,
decision,235,646241,0.0-74.0-2.0,,364.645,run_exp/static/images/task_images/land.jpg,65,,,,,,1,,,6,,,,,,,,285976,1,19,FALSE,,,
dig,236,648885,0.0-75.0-0.0,,,,,,,,,,,"[{""stimulus"":""run_exp/static/images/task_images/dig.jpg"",""time"":0.2699999986216426},{""stimulus"":""run_exp/static/images/task_images/land.jpg"",""time"":879.4099999994505},{""stimulus"":""run_exp/static/images/task_images/dig.jpg"",""time"":1757.4999999996508}]",[],6,,,,,,,,,,,,,,
harvest,237,649887,0.0-75.0-1.0,,null,run_exp/static/images/task_images/gems/1.jpg,null,,,,,,1,,,6,,,,,1,0.855278838,1,,,,,,,
decision,238,650146,0.0-75.0-2.0,,257.54,run_exp/static/images/task_images/land.jpg,65,,,,,,0,,,6,,,,,,,,289881,1,20,FALSE,,,
dig,239,652898,0.0-76.0-0.0,,,,,,,,,,,"[{""stimulus"":""run_exp/static/images/task_images/dig.jpg"",""time"":0.26000000070780516},{""stimulus"":""run_exp/static/images/task_images/land.jpg"",""time"":916.0150000007125},{""stimulus"":""run_exp/static/images/task_images/dig.jpg"",""time"":1830.0650000000605}]",[],6,,,,,,,,,,,,,,
harvest,240,653900,0.0-76.0-1.0,,null,run_exp/static/images/task_images/gems/0.jpg,null,,,,,,0,,,6,,,,,0,0.811097731,NaN,,,,,,,
decision,241,654361,0.0-76.0-2.0,,458.78,run_exp/static/images/task_images/land.jpg,76,,,,,,0,,,6,,,,,,,,294095,1,21,TRUE,,,
travel,242,663910,0.0-77.0-0.0,,,,,,,,,,,"[{""stimulus"":""run_exp/static/images/task_images/rocket-01.jpg"",""time"":0.26000000070780516},{""stimulus"":""run_exp/static/images/task_images/rocket-02.jpg"",""time"":1061.3900000007125},{""stimulus"":""run_exp/static/images/task_images/rocket-03.jpg"",""time"":2121.3800000004703},{""stimulus"":""run_exp/static/images/task_images/rocket-04.jpg"",""time"":3181.3149999998277},{""stimulus"":""run_exp/static/images/task_images/rocket-05.jpg"",""time"":4241.514999999665},{""stimulus"":""run_exp/static/images/task_images/rocket-06.jpg"",""time"":5301.484999999986},{""stimulus"":""run_exp/static/images/task_images/rocket-07.jpg"",""time"":6361.544999999693},{""stimulus"":""run_exp/static/images/task_images/rocket-08.jpg"",""time"":7421.560000000638},{""stimulus"":""run_exp/static/images/task_images/rocket-09.jpg"",""time"":8481.660000001313}]",[],6,,,,,,,,,,,,,,
alien_welcome,243,668913,0.0-77.0-1.0,,null,run_exp/static/images/task_images/aliens/old_aliens/planet/alien_planet-60.jpg,null,,,,,,,,,,,,60,"70,41,53,27,42,58,60,28,44,32,36,4,77,39,50,15,64,20,5,45,6,80,75,26,7",,,,,,,,,,
land,244,669416,0.0-77.0-2.0,,null,run_exp/static/images/task_images/land.jpg,null,,,,,,101,,,7,,,,,,,,,,,,,,
dig,245,671422,0.0-77.0-3.0,,,,,,,,,,,"[{""stimulus"":""run_exp/static/images/task_images/dig.jpg"",""time"":0.35999999998603016},{""stimulus"":""run_exp/static/images/task_images/land.jpg"",""time"":668.5649999999441},{""stimulus"":""run_exp/static/images/task_images/dig.jpg"",""time"":1335.5950000004377}]",[],7,,,,,,,,,,,,,,
harvest,246,672425,0.0-77.0-4.0,,null,run_exp/static/images/task_images/gems/101.jpg,null,,,,,,83,,,7,,,,,101,0.823550629,0.821782178,,,,,,,
decision,247,673281,0.0-77.0-5.0,,853.415,run_exp/static/images/task_images/land.jpg,65,,,,,,83,,,7,,,,,,,,313015,1,0,TRUE,,,
end_of_block_continue,248,682136,0.0-78.0-0.0,,null,run_exp/static/audio/clip_32_block_end.m4a,,,,,,null,,,,,,,,,,,,,,,,,,
alien_welcome,249,687145,0.0-79.0-0.0,,null,run_exp/static/images/task_images/aliens/old_aliens/planet/alien_planet-28.jpg,null,,,,,,,,,,,,28,"70,41,53,27,42,58,60,28,44,32,36,4,77,39,50,15,64,20,5,45,6,80,75,26,7",,,,,,,,,,
land,250,687648,0.0-79.0-1.0,,null,run_exp/static/images/task_images/land.jpg,null,,,,,,98,,,8,,,,,,,,,,,,,,
dig,251,689652,0.0-79.0-2.0,,,,,,,,,,,"[{""stimulus"":""run_exp/static/images/task_images/dig.jpg"",""time"":0.31500000110827386},{""stimulus"":""run_exp/static/images/task_images/land.jpg"",""time"":668.3750000010477},{""stimulus"":""run_exp/static/images/task_images/dig.jpg"",""time"":1335.2549999998882}]",[],8,,,,,,,,,,,,,,
harvest,252,690656,0.0-79.0-3.0,,null,run_exp/static/images/task_images/gems/98.jpg,null,,,,,,12,,,8,,,,,98,0.120937331,0.12244898,,,,,,,
decision,253,691380,0.0-79.0-4.0,,722.155,run_exp/static/images/task_images/land.jpg,65,,,,,,12,,,8,,,,,,,,9238,2,0,FALSE,,,
dig,254,693666,0.0-80.0-0.0,,,,,,,,,,,"[{""stimulus"":""run_exp/static/images/task_images/dig.jpg"",""time"":0.27000000048428774},{""stimulus"":""run_exp/static/images/task_images/land.jpg"",""time"":760.1500000000233},{""stimulus"":""run_exp/static/images/task_images/dig.jpg"",""time"":1519.3900000012945}]",[],8,,,,,,,,,,,,,,
harvest,255,694668,0.0-80.0-1.0,,null,run_exp/static/images/task_images/gems/12.jpg,null,,,,,,2,,,8,,,,,12,0.187752028,0.166666667,,,,,,,
decision,256,694743,0.0-80.0-2.0,,73.01,run_exp/static/images/task_images/land.jpg,65,,,,,,2,,,8,,,,,,,,12601,2,1,FALSE,,,
dig,257,697676,0.0-81.0-0.0,,,,,,,,,,,"[{""stimulus"":""run_exp/static/images/task_images/dig.jpg"",""time"":0.2249999997438863},{""stimulus"":""run_exp/static/images/task_images/land.jpg"",""time"":976.8349999994971},{""stimulus"":""run_exp/static/images/task_images/dig.jpg"",""time"":1951.9149999995716}]",[],8,,,,,,,,,,,,,,
harvest,258,698678,0.0-81.0-1.0,,null,run_exp/static/images/task_images/gems/2.jpg,null,,,,,,1,,,8,,,,,2,0.330855936,0.5,,,,,,,
decision,259,699717,0.0-81.0-2.0,,1037.135,run_exp/static/images/task_images/land.jpg,65,,,,,,1,,,8,,,,,,,,17575,2,2,FALSE,,,
dig,260,701689,0.0-82.0-0.0,,,,,,,,,,,"[{""stimulus"":""run_exp/static/images/task_images/dig.jpg"",""time"":0.29499999980907887},{""stimulus"":""run_exp/static/images/task_images/land.jpg"",""time"":655.840000001248},{""stimulus"":""run_exp/static/images/task_images/dig.jpg"",""time"":1309.7300000007963}]",[],8,,,,,,,,,,,,,,
harvest,261,702691,0.0-82.0-1.0,,null,run_exp/static/images/task_images/gems/1.jpg,null,,,,,,0,,,8,,,,,1,0.196399753,0,,,,,,,
decision,262,703784,0.0-82.0-2.0,,1091.015,run_exp/static/images/task_images/land.jpg,76,,,,,,0,,,8,,,,,,,,21642,2,3,TRUE,,,
travel,263,712694,0.0-83.0-0.0,,,,,,,,,,,"[{""stimulus"":""run_exp/static/images/task_images/rocket-01.jpg"",""time"":0.26500000059604645},{""stimulus"":""run_exp/static/images/task_images/rocket-02.jpg"",""time"":990.7650000004796},{""stimulus"":""run_exp/static/images/task_images/rocket-03.jpg"",""time"":1979.7900000013178},{""stimulus"":""run_exp/static/images/task_images/rocket-04.jpg"",""time"":2968.825000001816},{""stimulus"":""run_exp/static/images/task_images/rocket-05.jpg"",""time"":3957.8900000015274},{""stimulus"":""run_exp/static/images/task_images/rocket-06.jpg"",""time"":4946.860000000102},{""stimulus"":""run_exp/static/images/task_images/rocket-07.jpg"",""time"":5936.050000000279},{""stimulus"":""run_exp/static/images/task_images/rocket-08.jpg"",""time"":6925.89000000048},{""stimulus"":""run_exp/static/images/task_images/rocket-09.jpg"",""time"":7914.0000000006985}]",[],8,,,,,,,,,,,,,,
alien_welcome,264,717696,0.0-83.0-1.0,,null,run_exp/static/images/task_images/aliens/old_aliens/planet/alien_planet-44.jpg,null,,,,,,,,,,,,44,"70,41,53,27,42,58,60,28,44,32,36,4,77,39,50,15,64,20,5,45,6,80,75,26,7",,,,,,,,,,
land,265,718200,0.0-83.0-2.0,,null,run_exp/static/images/task_images/land.jpg,null,,,,,,99,,,9,,,,,,,,,,,,,,
dig,266,720204,0.0-83.0-3.0,,,,,,,,,,,"[{""stimulus"":""run_exp/static/images/task_images/dig.jpg"",""time"":0.34999999846331775},{""stimulus"":""run_exp/static/images/task_images/land.jpg"",""time"":668.5899999993853},{""stimulus"":""run_exp/static/images/task_images/dig.jpg"",""time"":1335.6649999987567}]",[],9,,,,,,,,,,,,,,
harvest,267,721207,0.0-83.0-4.0,,null,run_exp/static/images/task_images/gems/99.jpg,null,,,,,,26,,,9,,,,,99,0.264911431,0.262626263,,,,,,,
decision,268,721915,0.0-83.0-5.0,,705.4,run_exp/static/images/task_images/land.jpg,65,,,,,,26,,,9,,,,,,,,39773,2,0,FALSE,,,
dig,269,724216,0.0-84.0-0.0,,,,,,,,,,,"[{""stimulus"":""run_exp/static/images/task_images/dig.jpg"",""time"":0.29999999969732016},{""stimulus"":""run_exp/static/images/task_images/land.jpg"",""time"":765.7299999991665},{""stimulus"":""run_exp/static/images/task_images/dig.jpg"",""time"":1529.734999999986}]",[],9,,,,,,,,,,,,,,
harvest,270,725218,0.0-84.0-1.0,,null,run_exp/static/images/task_images/gems/26.jpg,null,,,,,,5,,,9,,,,,26,0.181847444,0.192307692,,,,,,,
decision,271,725760,0.0-84.0-2.0,,539.91,run_exp/static/images/task_images/land.jpg,65,,,,,,5,,,9,,,,,,,,43618,2,1,FALSE,,,
dig,272,728230,0.0-85.0-0.0,,,,,,,,,,,"[{""stimulus"":""run_exp/static/images/task_images/dig.jpg"",""time"":0.2649999987334013},{""stimulus"":""run_exp/static/images/task_images/land.jpg"",""time"":821.9499999994878},{""stimulus"":""run_exp/static/images/task_images/dig.jpg"",""time"":1642.0349999989849}]",[],9,,,,,,,,,,,,,,
harvest,273,729232,0.0-85.0-1.0,,null,run_exp/static/images/task_images/gems/5.jpg,null,,,,,,1,,,9,,,,,5,0.212418798,0.2,,,,,,,
decision,274,729520,0.0-85.0-2.0,,286.295,run_exp/static/images/task_images/land.jpg,65,,,,,,1,,,9,,,,,,,,47379,2,2,FALSE,,,
dig,275,732241,0.0-86.0-0.0,,,,,,,,,,,"[{""stimulus"":""run_exp/static/images/task_images/dig.jpg"",""time"":0.26500000059604645},{""stimulus"":""run_exp/static/images/task_images/land.jpg"",""time"":905.435000000638},{""stimulus"":""run_exp/static/images/task_images/dig.jpg"",""time"":1809.4750000000931}]",[],9,,,,,,,,,,,,,,
harvest,276,733243,0.0-86.0-1.0,,null,run_exp/static/images/task_images/gems/1.jpg,null,,,,,,0,,,9,,,,,1,0.17035974,0,,,,,,,
decision,277,734727,0.0-86.0-2.0,,1482.125,run_exp/static/images/task_images/land.jpg,76,,,,,,0,,,9,,,,,,,,52586,2,3,TRUE,,,
travel,278,743251,0.0-87.0-0.0,,,,,,,,,,,"[{""stimulus"":""run_exp/static/images/task_images/rocket-01.jpg"",""time"":0.2750000002561137},{""stimulus"":""run_exp/static/images/task_images/rocket-02.jpg"",""time"":947.3400000005495},{""stimulus"":""run_exp/static/images/task_images/rocket-03.jpg"",""time"":1893.4000000008382},{""stimulus"":""run_exp/static/images/task_images/rocket-04.jpg"",""time"":2839.385000001057},{""stimulus"":""run_exp/static/images/task_images/rocket-05.jpg"",""time"":3785.4350000015693},{""stimulus"":""run_exp/static/images/task_images/rocket-06.jpg"",""time"":4731.310000000987},{""stimulus"":""run_exp/static/images/task_images/rocket-07.jpg"",""time"":5677.489999999991},{""stimulus"":""run_exp/static/images/task_images/rocket-08.jpg"",""time"":6623.460000000661},{""stimulus"":""run_exp/static/images/task_images/rocket-09.jpg"",""time"":7569.5400000003865}]",[],9,,,,,,,,,,,,,,
alien_welcome,279,748254,0.0-87.0-1.0,,null,run_exp/static/images/task_images/aliens/old_aliens/planet/alien_planet-32.jpg,null,,,,,,,,,,,,32,"70,41,53,27,42,58,60,28,44,32,36,4,77,39,50,15,64,20,5,45,6,80,75,26,7",,,,,,,,,,
land,280,748757,0.0-87.0-2.0,,null,run_exp/static/images/task_images/land.jpg,null,,,,,,94,,,10,,,,,,,,,,,,,,
dig,281,750764,0.0-87.0-3.0,,,,,,,,,,,"[{""stimulus"":""run_exp/static/images/task_images/dig.jpg"",""time"":0.39000000106170774},{""stimulus"":""run_exp/static/images/task_images/land.jpg"",""time"":668.8750000012806},{""stimulus"":""run_exp/static/images/task_images/dig.jpg"",""time"":1335.820000000298}]",[],10,,,,,,,,,,,,,,
harvest,282,751766,0.0-87.0-4.0,,null,run_exp/static/images/task_images/gems/94.jpg,null,,,,,,22,,,10,,,,,94,0.23629318,0.234042553,,,,,,,
decision,283,752846,0.0-87.0-5.0,,1077.285,run_exp/static/images/task_images/land.jpg,65,,,,,,22,,,10,,,,,,,,70704,2,0,FALSE,,,
dig,284,754776,0.0-88.0-0.0,,,,,,,,,,,"[{""stimulus"":""run_exp/static/images/task_images/dig.jpg"",""time"":0.25999999896157533},{""stimulus"":""run_exp/static/images/task_images/land.jpg"",""time"":641.9750000004424},{""stimulus"":""run_exp/static/images/task_images/dig.jpg"",""time"":1281.9349999991246}]",[],10,,,,,,,,,,,,,,
harvest,285,755778,0.0-88.0-1.0,,null,run_exp/static/images/task_images/gems/22.jpg,null,,,,,,6,,,10,,,,,22,0.260003539,0.272727273,,,,,,,
decision,286,756702,0.0-88.0-2.0,,921.45,run_exp/static/images/task_images/land.jpg,65,,,,,,6,,,10,,,,,,,,74560,2,1,FALSE,,,
dig,287,758789,0.0-89.0-0.0,,,,,,,,,,,"[{""stimulus"":""run_exp/static/images/task_images/dig.jpg"",""time"":0.3299999990267679},{""stimulus"":""run_exp/static/images/task_images/land.jpg"",""time"":693.8399999999674},{""stimulus"":""run_exp/static/images/task_images/dig.jpg"",""time"":1385.7100000005448}]",[],10,,,,,,,,,,,,,,
harvest,288,759793,0.0-89.0-1.0,,null,run_exp/static/images/task_images/gems/6.jpg,null,,,,,,1,,,10,,,,,6,0.237224028,0.166666667,,,,,,,
decision,289,760243,0.0-89.0-2.0,,447.245,run_exp/static/images/task_images/land.jpg,65,,,,,,1,,,10,,,,,,,,78101,2,2,FALSE,,,
dig,290,762803,0.0-90.0-0.0,,,,,,,,,,,"[{""stimulus"":""run_exp/static/images/task_images/dig.jpg"",""time"":0.2800000002607703},{""stimulus"":""run_exp/static/images/task_images/land.jpg"",""time"":851.3550000006799},{""stimulus"":""run_exp/static/images/task_images/dig.jpg"",""time"":1701.3850000003586}]",[],10,,,,,,,,,,,,,,
harvest,291,763807,0.0-90.0-1.0,,null,run_exp/static/images/task_images/gems/1.jpg,null,,,,,,0,,,10,,,,,1,0.202958204,0,,,,,,,
decision,292,764393,0.0-90.0-2.0,,584.405,run_exp/static/images/task_images/land.jpg,76,,,,,,0,,,10,,,,,,,,82252,2,3,TRUE,,,
travel,293,773816,0.0-91.0-0.0,,,,,,,,,,,"[{""stimulus"":""run_exp/static/images/task_images/rocket-01.jpg"",""time"":0.2749999985098839},{""stimulus"":""run_exp/static/images/task_images/rocket-02.jpg"",""time"":1047.9449999984354},{""stimulus"":""run_exp/static/images/task_images/rocket-03.jpg"",""time"":2094.039999999921},{""stimulus"":""run_exp/static/images/task_images/rocket-04.jpg"",""time"":3140.129999999772},{""stimulus"":""run_exp/static/images/task_images/rocket-05.jpg"",""time"":4186.189999998547},{""stimulus"":""run_exp/static/images/task_images/rocket-06.jpg"",""time"":5232.114999998943},{""stimulus"":""run_exp/static/images/task_images/rocket-07.jpg"",""time"":6278.1749999994645},{""stimulus"":""run_exp/static/images/task_images/rocket-08.jpg"",""time"":7324.169999999809},{""stimulus"":""run_exp/static/images/task_images/rocket-09.jpg"",""time"":8369.234999998356}]",[],10,,,,,,,,,,,,,,
alien_welcome,294,778819,0.0-91.0-1.0,,null,run_exp/static/images/task_images/aliens/old_aliens/planet/alien_planet-36.jpg,null,,,,,,,,,,,,36,"70,41,53,27,42,58,60,28,44,32,36,4,77,39,50,15,64,20,5,45,6,80,75,26,7",,,,,,,,,,
land,295,779322,0.0-91.0-2.0,,null,run_exp/static/images/task_images/land.jpg,null,,,,,,112,,,11,,,,,,,,,,,,,,
dig,296,781327,0.0-91.0-3.0,,,,,,,,,,,"[{""stimulus"":""run_exp/static/images/task_images/dig.jpg"",""time"":0.3550000002142042},{""stimulus"":""run_exp/static/images/task_images/land.jpg"",""time"":668.8049999993527},{""stimulus"":""run_exp/static/images/task_images/dig.jpg"",""time"":1335.784999999334}]",[],11,,,,,,,,,,,,,,
harvest,297,782329,0.0-91.0-4.0,,null,run_exp/static/images/task_images/gems/112.jpg,null,,,,,,91,,,11,,,,,112,0.813407671,0.8125,,,,,,,
decision,298,783356,0.0-91.0-5.0,,1024.055,run_exp/static/images/task_images/land.jpg,65,,,,,,91,,,11,,,,,,,,101214,2,0,FALSE,,,
dig,299,785343,0.0-92.0-0.0,,,,,,,,,,,"[{""stimulus"":""run_exp/static/images/task_images/dig.jpg"",""time"":0.219999999855645},{""stimulus"":""run_exp/static/images/task_images/land.jpg"",""time"":659.2949999994598},{""stimulus"":""run_exp/static/images/task_images/dig.jpg"",""time"":1317.2950000007404}]",[],11,,,,,,,,,,,,,,
harvest,300,786346,0.0-92.0-1.0,,null,run_exp/static/images/task_images/gems/91.jpg,null,,,,,,80,,,11,,,,,91,0.874637502,0.879120879,,,,,,,
decision,301,786779,0.0-92.0-2.0,,430.33,run_exp/static/images/task_images/land.jpg,65,,,,,,80,,,11,,,,,,,,104637,2,1,FALSE,,,
dig,302,789353,0.0-93.0-0.0,,,,,,,,,,,"[{""stimulus"":""run_exp/static/images/task_images/dig.jpg"",""time"":0.1700000010896474},{""stimulus"":""run_exp/static/images/task_images/land.jpg"",""time"":857.8049999995856},{""stimulus"":""run_exp/static/images/task_images/dig.jpg"",""time"":1713.7999999994645}]",[],11,,,,,,,,,,,,,,
harvest,303,790356,0.0-93.0-1.0,,null,run_exp/static/images/task_images/gems/80.jpg,null,,,,,,69,,,11,,,,,80,0.862647183,0.8625,,,,,,,
decision,304,790552,0.0-93.0-2.0,,193.93,run_exp/static/images/task_images/land.jpg,65,,,,,,69,,,11,,,,,,,,108410,2,2,FALSE,,,
dig,305,793364,0.0-94.0-0.0,,,,,,,,,,,"[{""stimulus"":""run_exp/static/images/task_images/dig.jpg"",""time"":0.16999999934341758},{""stimulus"":""run_exp/static/images/task_images/land.jpg"",""time"":936.364999999525},{""stimulus"":""run_exp/static/images/task_images/dig.jpg"",""time"":1871.525000000489}]",[],11,,,,,,,,,,,,,,
harvest,306,794366,0.0-94.0-1.0,,null,run_exp/static/images/task_images/gems/69.jpg,null,,,,,,63,,,11,,,,,69,0.918430297,0.913043478,,,,,,,
decision,307,794853,0.0-94.0-2.0,,484.65,run_exp/static/images/task_images/land.jpg,65,,,,,,63,,,11,,,,,,,,112711,2,3,FALSE,,,
dig,308,797376,0.0-95.0-0.0,,,,,,,,,,,"[{""stimulus"":""run_exp/static/images/task_images/dig.jpg"",""time"":0.27000000048428774},{""stimulus"":""run_exp/static/images/task_images/land.jpg"",""time"":839.9499999996042},{""stimulus"":""run_exp/static/images/task_images/dig.jpg"",""time"":1678.00999999966}]",[],11,,,,,,,,,,,,,,
harvest,309,798378,0.0-95.0-1.0,,null,run_exp/static/images/task_images/gems/63.jpg,null,,,,,,55,,,11,,,,,63,0.875174762,0.873015873,,,,,,,
decision,310,798737,0.0-95.0-2.0,,356.555,run_exp/static/images/task_images/land.jpg,65,,,,,,55,,,11,,,,,,,,116595,2,4,FALSE,,,
dig,311,801389,0.0-96.0-0.0,,,,,,,,,,,"[{""stimulus"":""run_exp/static/images/task_images/dig.jpg"",""time"":0.26000000070780516},{""stimulus"":""run_exp/static/images/task_images/land.jpg"",""time"":882.4800000002142},{""stimulus"":""run_exp/static/images/task_images/dig.jpg"",""time"":1763.469999999972}]",[],11,,,,,,,,,,,,,,
harvest,312,802391,0.0-96.0-1.0,,null,run_exp/static/images/task_images/gems/55.jpg,null,,,,,,44,,,11,,,,,55,0.805508579,0.8,,,,,,,
decision,313,803083,0.0-96.0-2.0,,689.41,run_exp/static/images/task_images/land.jpg,65,,,,,,44,,,11,,,,,,,,120941,2,5,FALSE,,,
dig,314,805402,0.0-97.0-0.0,,,,,,,,,,,"[{""stimulus"":""run_exp/static/images/task_images/dig.jpg"",""time"":0.25500000081956387},{""stimulus"":""run_exp/static/images/task_images/land.jpg"",""time"":771.8899999998976},{""stimulus"":""run_exp/static/images/task_images/dig.jpg"",""time"":1542.04000000027}]",[],11,,,,,,,,,,,,,,
harvest,315,806404,0.0-97.0-1.0,,null,run_exp/static/images/task_images/gems/44.jpg,null,,,,,,35,,,11,,,,,44,0.801441551,0.795454545,,,,,,,
decision,316,806687,0.0-97.0-2.0,,280.87,run_exp/static/images/task_images/land.jpg,65,,,,,,35,,,11,,,,,,,,124547,2,6,FALSE,,,
dig,317,809417,0.0-98.0-0.0,,,,,,,,,,,"[{""stimulus"":""run_exp/static/images/task_images/dig.jpg"",""time"":0.29999999969732016},{""stimulus"":""run_exp/static/images/task_images/land.jpg"",""time"":907.6399999994319},{""stimulus"":""run_exp/static/images/task_images/dig.jpg"",""time"":1813.7000000005355}]",[],11,,,,,,,,,,,,,,
harvest,318,810420,0.0-98.0-1.0,,null,run_exp/static/images/task_images/gems/35.jpg,null,,,,,,31,,,11,,,,,35,0.876132444,0.885714286,,,,,,,
decision,319,810860,0.0-98.0-2.0,,437.165,run_exp/static/images/task_images/land.jpg,65,,,,,,31,,,11,,,,,,,,128718,2,7,FALSE,,,
dig,320,813432,0.0-99.0-0.0,,,,,,,,,,,"[{""stimulus"":""run_exp/static/images/task_images/dig.jpg"",""time"":0.31500000110827386},{""stimulus"":""run_exp/static/images/task_images/land.jpg"",""time"":855.9500000010012},{""stimulus"":""run_exp/static/images/task_images/dig.jpg"",""time"":1710.9550000004238}]",[],11,,,,,,,,,,,,,,
harvest,321,814435,0.0-99.0-1.0,,null,run_exp/static/images/task_images/gems/31.jpg,null,,,,,,24,,,11,,,,,31,0.773097043,0.774193548,,,,,,,
decision,322,814836,0.0-99.0-2.0,,397.08,run_exp/static/images/task_images/land.jpg,65,,,,,,24,,,11,,,,,,,,132694,2,8,FALSE,,,
dig,323,817446,0.0-100.0-0.0,,,,,,,,,,,"[{""stimulus"":""run_exp/static/images/task_images/dig.jpg"",""time"":0.27999999839812517},{""stimulus"":""run_exp/static/images/task_images/land.jpg"",""time"":868.4249999986496},{""stimulus"":""run_exp/static/images/task_images/dig.jpg"",""time"":1735.4649999997346}]",[],11,,,,,,,,,,,,,,
harvest,324,818449,0.0-100.0-1.0,,null,run_exp/static/images/task_images/gems/24.jpg,null,,,,,,20,,,11,,,,,24,0.813032616,0.833333333,,,,,,,
decision,325,818830,0.0-100.0-2.0,,378.955,run_exp/static/images/task_images/land.jpg,65,,,,,,20,,,11,,,,,,,,136688,2,9,FALSE,,,
dig,326,821458,0.0-101.0-0.0,,,,,,,,,,,"[{""stimulus"":""run_exp/static/images/task_images/dig.jpg"",""time"":0.26500000059604645},{""stimulus"":""run_exp/static/images/task_images/land.jpg"",""time"":875.1900000006426},{""stimulus"":""run_exp/static/images/task_images/dig.jpg"",""time"":1748.1900000002934}]",[],11,,,,,,,,,,,,,,
harvest,327,822460,0.0-101.0-1.0,,null,run_exp/static/images/task_images/gems/20.jpg,null,,,,,,16,,,11,,,,,20,0.787278872,0.8,,,,,,,
decision,328,822565,0.0-101.0-2.0,,103.355,run_exp/static/images/task_images/land.jpg,65,,,,,,16,,,11,,,,,,,,140423,2,10,FALSE,,,
dig,329,825467,0.0-102.0-0.0,,,,,,,,,,,"[{""stimulus"":""run_exp/static/images/task_images/dig.jpg"",""time"":0.1900000007590279},{""stimulus"":""run_exp/static/images/task_images/land.jpg"",""time"":966.3500000006752},{""stimulus"":""run_exp/static/images/task_images/dig.jpg"",""time"":1931.3949999996694}]",[],11,,,,,,,,,,,,,,
harvest,330,826469,0.0-102.0-1.0,,null,run_exp/static/images/task_images/gems/16.jpg,null,,,,,,11,,,11,,,,,16,0.685294008,0.6875,,,,,,,
decision,331,827013,0.0-102.0-2.0,,541.765,run_exp/static/images/task_images/land.jpg,65,,,,,,11,,,11,,,,,,,,144871,2,11,FALSE,,,
dig,332,829479,0.0-103.0-0.0,,,,,,,,,,,"[{""stimulus"":""run_exp/static/images/task_images/dig.jpg"",""time"":0.2750000002561137},{""stimulus"":""run_exp/static/images/task_images/land.jpg"",""time"":820.8900000008289},{""stimulus"":""run_exp/static/images/task_images/dig.jpg"",""time"":1639.9299999993527}]",[],11,,,,,,,,,,,,,,
harvest,333,830481,0.0-103.0-1.0,,null,run_exp/static/images/task_images/gems/11.jpg,null,,,,,,9,,,11,,,,,11,0.841313537,0.818181818,,,,,,,
decision,334,830823,0.0-103.0-2.0,,339.355,run_exp/static/images/task_images/land.jpg,65,,,,,,9,,,11,,,,,,,,148681,2,12,FALSE,,,
dig,335,833490,0.0-104.0-0.0,,,,,,,,,,,"[{""stimulus"":""run_exp/static/images/task_images/dig.jpg"",""time"":0.27000000048428774},{""stimulus"":""run_exp/static/images/task_images/land.jpg"",""time"":887.2750000009546},{""stimulus"":""run_exp/static/images/task_images/dig.jpg"",""time"":1773.4650000002002}]",[],11,,,,,,,,,,,,,,
harvest,336,834492,0.0-104.0-1.0,,null,run_exp/static/images/task_images/gems/9.jpg,null,,,,,,7,,,11,,,,,9,0.759556418,0.777777778,,,,,,,
decision,337,835690,0.0-104.0-2.0,,1195.525,run_exp/static/images/task_images/land.jpg,65,,,,,,7,,,11,,,,,,,,153548,2,13,FALSE,,,
dig,338,837502,0.0-105.0-0.0,,,,,,,,,,,"[{""stimulus"":""run_exp/static/images/task_images/dig.jpg"",""time"":0.2850000000325963},{""stimulus"":""run_exp/static/images/task_images/land.jpg"",""time"":602.7400000002235},{""stimulus"":""run_exp/static/images/task_images/dig.jpg"",""time"":1203.8950000004843}]",[],11,,,,,,,,,,,,,,
harvest,339,838504,0.0-105.0-1.0,,null,run_exp/static/images/task_images/gems/7.jpg,null,,,,,,6,,,11,,,,,7,0.801188795,0.857142857,,,,,,,
decision,340,838648,0.0-105.0-2.0,,142.64,run_exp/static/images/task_images/land.jpg,65,,,,,,6,,,11,,,,,,,,156507,2,14,FALSE,,,
dig,341,841511,0.0-106.0-0.0,,,,,,,,,,,"[{""stimulus"":""run_exp/static/images/task_images/dig.jpg"",""time"":0.17999999911990017},{""stimulus"":""run_exp/static/images/task_images/land.jpg"",""time"":953.5350000006147},{""stimulus"":""run_exp/static/images/task_images/dig.jpg"",""time"":1905.559999999241}]",[],11,,,,,,,,,,,,,,
harvest,342,842513,0.0-106.0-1.0,,null,run_exp/static/images/task_images/gems/6.jpg,null,,,,,,5,,,11,,,,,6,0.784378542,0.833333333,,,,,,,
decision,343,843110,0.0-106.0-2.0,,594.24,run_exp/static/images/task_images/land.jpg,65,,,,,,5,,,11,,,,,,,,160968,2,15,FALSE,,,
dig,344,845522,0.0-107.0-0.0,,,,,,,,,,,"[{""stimulus"":""run_exp/static/images/task_images/dig.jpg"",""time"":0.25500000081956387},{""stimulus"":""run_exp/static/images/task_images/land.jpg"",""time"":803.1900000005262},{""stimulus"":""run_exp/static/images/task_images/dig.jpg"",""time"":1603.979999999865}]",[],11,,,,,,,,,,,,,,
harvest,345,846525,0.0-107.0-1.0,,null,run_exp/static/images/task_images/gems/5.jpg,null,,,,,,4,,,11,,,,,5,0.780892222,0.8,,,,,,,
decision,346,846684,0.0-107.0-2.0,,156.3,run_exp/static/images/task_images/land.jpg,65,,,,,,4,,,11,,,,,,,,164542,2,16,FALSE,,,
dig,347,849532,0.0-108.0-0.0,,,,,,,,,,,"[{""stimulus"":""run_exp/static/images/task_images/dig.jpg"",""time"":0.21999999997206032},{""stimulus"":""run_exp/static/images/task_images/land.jpg"",""time"":948.800000000163},{""stimulus"":""run_exp/static/images/task_images/dig.jpg"",""time"":1896.0650000008754}]",[],11,,,,,,,,,,,,,,
harvest,348,850534,0.0-108.0-1.0,,null,run_exp/static/images/task_images/gems/4.jpg,null,,,,,,3,,,11,,,,,4,0.786655267,0.75,,,,,,,
decision,349,850562,0.0-108.0-2.0,,26.11,run_exp/static/images/task_images/land.jpg,65,,,,,,3,,,11,,,,,,,,168420,2,17,FALSE,,,
dig,350,853543,0.0-109.0-0.0,,,,,,,,,,,"[{""stimulus"":""run_exp/static/images/task_images/dig.jpg"",""time"":0.23499999952036887},{""stimulus"":""run_exp/static/images/task_images/land.jpg"",""time"":992.6500000001397},{""stimulus"":""run_exp/static/images/task_images/dig.jpg"",""time"":1983.5000000002328}]",[],11,,,,,,,,,,,,,,
harvest,351,854545,0.0-109.0-1.0,,null,run_exp/static/images/task_images/gems/3.jpg,null,,,,,,2,,,11,,,,,3,0.689001397,0.666666667,,,,,,,
decision,352,854831,0.0-109.0-2.0,,283.29,run_exp/static/images/task_images/land.jpg,65,,,,,,2,,,11,,,,,,,,172690,2,18,FALSE,,,
dig,353,857557,0.0-110.0-0.0,,,,,,,,,,,"[{""stimulus"":""run_exp/static/images/task_images/dig.jpg"",""time"":0.26000000070780516},{""stimulus"":""run_exp/static/images/task_images/land.jpg"",""time"":906.6700000002747},{""stimulus"":""run_exp/static/images/task_images/dig.jpg"",""time"":1811.7450000008103}]",[],11,,,,,,,,,,,,,,
harvest,354,858561,0.0-110.0-1.0,,null,run_exp/static/images/task_images/gems/2.jpg,null,,,,,,2,,,11,,,,,2,0.770571693,1,,,,,,,
decision,355,858863,0.0-110.0-2.0,,299.59,run_exp/static/images/task_images/land.jpg,65,,,,,,2,,,11,,,,,,,,176721,2,19,FALSE,,,
dig,356,861573,0.0-111.0-0.0,,,,,,,,,,,"[{""stimulus"":""run_exp/static/images/task_images/dig.jpg"",""time"":0.25500000081956387},{""stimulus"":""run_exp/static/images/task_images/land.jpg"",""time"":902.6950000006473},{""stimulus"":""run_exp/static/images/task_images/dig.jpg"",""time"":1801.7049999998417}]",[],11,,,,,,,,,,,,,,
harvest,357,862575,0.0-111.0-1.0,,null,run_exp/static/images/task_images/gems/2.jpg,null,,,,,,2,,,11,,,,,2,0.790526349,1,,,,,,,
decision,358,863146,0.0-111.0-2.0,,569.1,run_exp/static/images/task_images/land.jpg,65,,,,,,0,,,11,,,,,,,,181005,2,20,FALSE,,,
dig,359,865587,0.0-112.0-0.0,,,,,,,,,,,"[{""stimulus"":""run_exp/static/images/task_images/dig.jpg"",""time"":0.2649999987334013},{""stimulus"":""run_exp/static/images/task_images/land.jpg"",""time"":812.0899999995017},{""stimulus"":""run_exp/static/images/task_images/dig.jpg"",""time"":1623.2349999990547}]",[],11,,,,,,,,,,,,,,
harvest,360,866589,0.0-112.0-1.0,,null,run_exp/static/images/task_images/gems/0.jpg,null,,,,,,0,,,11,,,,,0,0.833981628,NaN,,,,,,,
decision,361,867635,0.0-112.0-2.0,,1043.96,run_exp/static/images/task_images/land.jpg,76,,,,,,0,,,11,,,,,,,,185494,2,21,TRUE,,,
travel,362,876603,0.0-113.0-0.0,,,,,,,,,,,"[{""stimulus"":""run_exp/static/images/task_images/rocket-01.jpg"",""time"":0.3049999997019768},{""stimulus"":""run_exp/static/images/task_images/rocket-02.jpg"",""time"":996.8750000009313},{""stimulus"":""run_exp/static/images/task_images/rocket-03.jpg"",""time"":1991.9900000004563},{""stimulus"":""run_exp/static/images/task_images/rocket-04.jpg"",""time"":2987.0649999994785},{""stimulus"":""run_exp/static/images/task_images/rocket-05.jpg"",""time"":3983.06500000041},{""stimulus"":""run_exp/static/images/task_images/rocket-06.jpg"",""time"":4977.1949999995995},{""stimulus"":""run_exp/static/images/task_images/rocket-07.jpg"",""time"":5972.125000000233},{""stimulus"":""run_exp/static/images/task_images/rocket-08.jpg"",""time"":6967.215000000782},{""stimulus"":""run_exp/static/images/task_images/rocket-09.jpg"",""time"":7962.224999999395}]",[],11,,,,,,,,,,,,,,
alien_welcome,363,881607,0.0-113.0-1.0,,null,run_exp/static/images/task_images/aliens/old_aliens/planet/alien_planet-4.jpg,null,,,,,,,,,,,,4,"70,41,53,27,42,58,60,28,44,32,36,4,77,39,50,15,64,20,5,45,6,80,75,26,7",,,,,,,,,,
land,364,882112,0.0-113.0-2.0,,null,run_exp/static/images/task_images/land.jpg,null,,,,,,100,,,12,,,,,,,,,,,,,,
dig,365,884116,0.0-113.0-3.0,,,,,,,,,,,"[{""stimulus"":""run_exp/static/images/task_images/dig.jpg"",""time"":0.3550000002142042},{""stimulus"":""run_exp/static/images/task_images/land.jpg"",""time"":668.7800000000279},{""stimulus"":""run_exp/static/images/task_images/dig.jpg"",""time"":1335.6549999988638}]",[],12,,,,,,,,,,,,,,
harvest,366,885119,0.0-113.0-4.0,,null,run_exp/static/images/task_images/gems/100.jpg,null,,,,,,82,,,12,,,,,100,0.824892444,0.82,,,,,,,
decision,367,885643,0.0-113.0-5.0,,522.345,run_exp/static/images/task_images/land.jpg,65,,,,,,82,,,12,,,,,,,,203502,2,0,FALSE,,,
dig,368,888129,0.0-114.0-0.0,,,,,,,,,,,"[{""stimulus"":""run_exp/static/images/task_images/dig.jpg"",""time"":0.29999999958090484},{""stimulus"":""run_exp/static/images/task_images/land.jpg"",""time"":826.3499999993946},{""stimulus"":""run_exp/static/images/task_images/dig.jpg"",""time"":1651.3300000005402}]",[],12,,,,,,,,,,,,,,
harvest,369,889132,0.0-114.0-1.0,,null,run_exp/static/images/task_images/gems/82.jpg,null,,,,,,56,,,12,,,,,82,0.687693705,0.682926829,,,,,,,
decision,370,889632,0.0-114.0-2.0,,498.29,run_exp/static/images/task_images/land.jpg,65,,,,,,56,,,12,,,,,,,,207491,2,1,FALSE,,,
dig,371,892145,0.0-115.0-0.0,,,,,,,,,,,"[{""stimulus"":""run_exp/static/images/task_images/dig.jpg"",""time"":0.2649999987334013},{""stimulus"":""run_exp/static/images/task_images/land.jpg"",""time"":834.6499999989755},{""stimulus"":""run_exp/static/images/task_images/dig.jpg"",""time"":1667.6950000000652}]",[],12,,,,,,,,,,,,,,
harvest,372,893147,0.0-115.0-1.0,,null,run_exp/static/images/task_images/gems/56.jpg,null,,,,,,45,,,12,,,,,56,0.81146657,0.803571429,,,,,,,
decision,373,895090,0.0-115.0-2.0,,1941.18,run_exp/static/images/task_images/land.jpg,65,,,,,,45,,,12,,,,,,,,212948,2,2,FALSE,,,
dig,374,896156,0.0-116.0-0.0,,,,,,,,,,,"[{""stimulus"":""run_exp/static/images/task_images/dig.jpg"",""time"":0.2650000003632158},{""stimulus"":""run_exp/static/images/task_images/land.jpg"",""time"":353.86000000103377},{""stimulus"":""run_exp/static/images/task_images/dig.jpg"",""time"":705.9200000001583}]",[],12,,,,,,,,,,,,,,
harvest,375,897158,0.0-116.0-1.0,,null,run_exp/static/images/task_images/gems/45.jpg,null,,,,,,37,,,12,,,,,45,0.819980377,0.822222222,,,,,,,
decision,376,897735,0.0-116.0-2.0,,574.155,run_exp/static/images/task_images/land.jpg,65,,,,,,37,,,12,,,,,,,,215593,2,3,FALSE,,,
dig,377,900169,0.0-117.0-0.0,,,,,,,,,,,"[{""stimulus"":""run_exp/static/images/task_images/dig.jpg"",""time"":0.24999999906867743},{""stimulus"":""run_exp/static/images/task_images/land.jpg"",""time"":811.2549999987241},{""stimulus"":""run_exp/static/images/task_images/dig.jpg"",""time"":1619.304999998305}]",[],12,,,,,,,,,,,,,,
harvest,378,901171,0.0-117.0-1.0,,null,run_exp/static/images/task_images/gems/37.jpg,null,,,,,,32,,,12,,,,,37,0.866973869,0.864864865,,,,,,,
decision,379,904174,0.0-117.0-2.0,,null,run_exp/static/images/task_images/land.jpg,null,,,,,,32,,,12,,,,,,,,222032,2,4,FALSE,,,
time_out,380,906182,0.0-118.0-0.0,,null,run_exp/static/images/task_images/time_out.jpg,null,,,,,,32,,,,,,,,,,,,,,,,,
decision,381,907231,0.0-118.0-1.0,,1045.815,run_exp/static/images/task_images/land.jpg,65,,,,,,32,,,12,,,,,,,,225089,2,4,FALSE,,,
dig,382,909194,0.0-119.0-0.0,,,,,,,,,,,"[{""stimulus"":""run_exp/static/images/task_images/dig.jpg"",""time"":0.26500000059604645},{""stimulus"":""run_exp/static/images/task_images/land.jpg"",""time"":652.7649999989662},{""stimulus"":""run_exp/static/images/task_images/dig.jpg"",""time"":1303.8099999993574}]",[],12,,,,,,,,,,,,,,
harvest,383,910196,0.0-119.0-1.0,,null,run_exp/static/images/task_images/gems/32.jpg,null,,,,,,27,,,12,,,,,32,0.844168458,0.84375,,,,,,,
decision,384,910373,0.0-119.0-2.0,,172.98,run_exp/static/images/task_images/land.jpg,65,,,,,,27,,,12,,,,,,,,228231,2,5,FALSE,,,
dig,385,913209,0.0-120.0-0.0,,,,,,,,,,,"[{""stimulus"":""run_exp/static/images/task_images/dig.jpg"",""time"":0.4650000010151416},{""stimulus"":""run_exp/static/images/task_images/land.jpg"",""time"":943.774999999674},{""stimulus"":""run_exp/static/images/task_images/dig.jpg"",""time"":1885.920000000624}]",[],12,,,,,,,,,,,,,,
harvest,386,914212,0.0-120.0-1.0,,null,run_exp/static/images/task_images/gems/27.jpg,null,,,,,,23,,,12,,,,,27,0.86889814,0.851851852,,,,,,,
decision,387,914240,0.0-120.0-2.0,,24.9,run_exp/static/images/task_images/land.jpg,65,,,,,,23,,,12,,,,,,,,232098,2,6,FALSE,,,
dig,388,917225,0.0-121.0-0.0,,,,,,,,,,,"[{""stimulus"":""run_exp/static/images/task_images/dig.jpg"",""time"":1.2349999996367842},{""stimulus"":""run_exp/static/images/task_images/land.jpg"",""time"":994.1049999997485},{""stimulus"":""run_exp/static/images/task_images/dig.jpg"",""time"":1986.0749999987893}]",[],12,,,,,,,,,,,,,,
harvest,389,918228,0.0-121.0-1.0,,null,run_exp/static/images/task_images/gems/23.jpg,null,,,,,,16,,,12,,,,,23,0.685620618,0.695652174,,,,,,,
decision,390,918413,0.0-121.0-2.0,,181.415,run_exp/static/images/task_images/land.jpg,65,,,,,,16,,,12,,,,,,,,236271,2,7,FALSE,,,
dig,391,921240,0.0-122.0-0.0,,,,,,,,,,,"[{""stimulus"":""run_exp/static/images/task_images/dig.jpg"",""time"":0.24999999906867743},{""stimulus"":""run_exp/static/images/task_images/land.jpg"",""time"":940.3549999988172},{""stimulus"":""run_exp/static/images/task_images/dig.jpg"",""time"":1879.5649999992456}]",[],12,,,,,,,,,,,,,,
harvest,392,922244,0.0-122.0-1.0,,null,run_exp/static/images/task_images/gems/16.jpg,null,,,,,,12,,,12,,,,,16,0.724389547,0.75,,,,,,,
decision,393,923625,0.0-122.0-2.0,,1378.56,run_exp/static/images/task_images/land.jpg,65,,,,,,12,,,12,,,,,,,,241483,2,8,FALSE,,,
dig,394,925257,0.0-123.0-0.0,,,,,,,,,,,"[{""stimulus"":""run_exp/static/images/task_images/dig.jpg"",""time"":0.26500000059604645},{""stimulus"":""run_exp/static/images/task_images/land.jpg"",""time"":542.1349999997765},{""stimulus"":""run_exp/static/images/task_images/dig.jpg"",""time"":1082.140000000596}]",[],12,,,,,,,,,,,,,,
harvest,395,926259,0.0-123.0-1.0,,null,run_exp/static/images/task_images/gems/12.jpg,null,,,,,,9,,,12,,,,,12,0.775279877,0.75,,,,,,,
decision,396,927253,0.0-123.0-2.0,,992.015,run_exp/static/images/task_images/land.jpg,65,,,,,,9,,,12,,,,,,,,245112,2,9,FALSE,,,
dig,397,929272,0.0-124.0-0.0,,,,,,,,,,,"[{""stimulus"":""run_exp/static/images/task_images/dig.jpg"",""time"":0.3050000013317913},{""stimulus"":""run_exp/static/images/task_images/land.jpg"",""time"":670.7800000002608},{""stimulus"":""run_exp/static/images/task_images/dig.jpg"",""time"":1339.8000000014435}]",[],12,,,,,,,,,,,,,,
harvest,398,930275,0.0-124.0-1.0,,null,run_exp/static/images/task_images/gems/9.jpg,null,,,,,,6,,,12,,,,,9,0.696939533,0.666666667,,,,,,,
decision,399,930553,0.0-124.0-2.0,,274.9,run_exp/static/images/task_images/land.jpg,65,,,,,,6,,,12,,,,,,,,248411,2,10,FALSE,,,
dig,400,933290,0.0-125.0-0.0,,,,,,,,,,,"[{""stimulus"":""run_exp/static/images/task_images/dig.jpg"",""time"":0.32000000099651515},{""stimulus"":""run_exp/static/images/task_images/land.jpg"",""time"":909.9750000005588},{""stimulus"":""run_exp/static/images/task_images/dig.jpg"",""time"":1818.0400000000373}]",[],12,,,,,,,,,,,,,,
harvest,401,934293,0.0-125.0-1.0,,null,run_exp/static/images/task_images/gems/6.jpg,null,,,,,,4,,,12,,,,,6,0.722439778,0.666666667,,,,,,,
decision,402,934467,0.0-125.0-2.0,,171.83,run_exp/static/images/task_images/land.jpg,65,,,,,,4,,,12,,,,,,,,252325,2,11,FALSE,,,
dig,403,937300,0.0-126.0-0.0,,,,,,,,,,,"[{""stimulus"":""run_exp/static/images/task_images/dig.jpg"",""time"":0.1799999992363155},{""stimulus"":""run_exp/static/images/task_images/land.jpg"",""time"":943.3499999996275},{""stimulus"":""run_exp/static/images/task_images/dig.jpg"",""time"":1885.5550000008661}]",[],12,,,,,,,,,,,,,,
harvest,404,938303,0.0-126.0-1.0,,null,run_exp/static/images/task_images/gems/4.jpg,null,,,,,,3,,,12,,,,,4,0.830115711,0.75,,,,,,,
decision,405,939088,0.0-126.0-2.0,,781.83,run_exp/static/images/task_images/land.jpg,76,,,,,,3,,,12,,,,,,,,256946,2,12,TRUE,,,
travel,406,948314,0.0-127.0-0.0,,,,,,,,,,,"[{""stimulus"":""run_exp/static/images/task_images/rocket-01.jpg"",""time"":0.26000000070780516},{""stimulus"":""run_exp/static/images/task_images/rocket-02.jpg"",""time"":1026.1399999998976},{""stimulus"":""run_exp/static/images/task_images/rocket-03.jpg"",""time"":2050.1350000011735},{""stimulus"":""run_exp/static/images/task_images/rocket-04.jpg"",""time"":3074.050000000978},{""stimulus"":""run_exp/static/images/task_images/rocket-05.jpg"",""time"":4098.185000000754},{""stimulus"":""run_exp/static/images/task_images/rocket-06.jpg"",""time"":5121.100000000326},{""stimulus"":""run_exp/static/images/task_images/rocket-07.jpg"",""time"":6145.2400000016205},{""stimulus"":""run_exp/static/images/task_images/rocket-08.jpg"",""time"":7169.320000000764},{""stimulus"":""run_exp/static/images/task_images/rocket-09.jpg"",""time"":8194.32500000042}]",[],12,,,,,,,,,,,,,,
alien_welcome,407,953317,0.0-127.0-1.0,,null,run_exp/static/images/task_images/aliens/old_aliens/planet/alien_planet-77.jpg,null,,,,,,,,,,,,77,"70,41,53,27,42,58,60,28,44,32,36,4,77,39,50,15,64,20,5,45,6,80,75,26,7",,,,,,,,,,
land,408,953820,0.0-127.0-2.0,,null,run_exp/static/images/task_images/land.jpg,null,,,,,,101,,,13,,,,,,,,,,,,,,
dig,409,955826,0.0-127.0-3.0,,,,,,,,,,,"[{""stimulus"":""run_exp/static/images/task_images/dig.jpg"",""time"":0.395000000949949},{""stimulus"":""run_exp/static/images/task_images/land.jpg"",""time"":669.3350000004284},{""stimulus"":""run_exp/static/images/task_images/dig.jpg"",""time"":1336.235000000568}]",[],13,,,,,,,,,,,,,,
harvest,410,956828,0.0-127.0-4.0,,null,run_exp/static/images/task_images/gems/101.jpg,null,,,,,,82,,,13,,,,,101,0.815934228,0.811881188,,,,,,,
decision,411,957976,0.0-127.0-5.0,,1145.13,run_exp/static/images/task_images/land.jpg,65,,,,,,82,,,13,,,,,,,,275834,2,0,FALSE,,,
dig,412,959844,0.0-128.0-0.0,,,,,,,,,,,"[{""stimulus"":""run_exp/static/images/task_images/dig.jpg"",""time"":0.2999999998137355},{""stimulus"":""run_exp/static/images/task_images/land.jpg"",""time"":619.3499999991618},{""stimulus"":""run_exp/static/images/task_images/dig.jpg"",""time"":1237.5199999988545}]",[],13,,,,,,,,,,,,,,
harvest,413,960846,0.0-128.0-1.0,,null,run_exp/static/images/task_images/gems/82.jpg,null,,,,,,71,,,13,,,,,82,0.865148538,0.865853659,,,,,,,
decision,414,963849,0.0-128.0-2.0,,null,run_exp/static/images/task_images/land.jpg,null,,,,,,71,,,13,,,,,,,,281707,2,1,FALSE,,,
time_out,415,965858,0.0-129.0-0.0,,null,run_exp/static/images/task_images/time_out.jpg,null,,,,,,71,,,,,,,,,,,,,,,,,
decision,416,966025,0.0-129.0-1.0,,164.55,run_exp/static/images/task_images/land.jpg,65,,,,,,71,,,13,,,,,,,,283883,2,1,FALSE,,,
dig,417,968866,0.0-130.0-0.0,,,,,,,,,,,"[{""stimulus"":""run_exp/static/images/task_images/dig.jpg"",""time"":0.1750000009778887},{""stimulus"":""run_exp/static/images/task_images/land.jpg"",""time"":946.0800000014715},{""stimulus"":""run_exp/static/images/task_images/dig.jpg"",""time"":1890.9600000006612}]",[],13,,,,,,,,,,,,,,
harvest,418,969869,0.0-130.0-1.0,,null,run_exp/static/images/task_images/gems/71.jpg,null,,,,,,56,,,13,,,,,71,0.783039198,0.788732394,,,,,,,
decision,419,970387,0.0-130.0-2.0,,514.82,run_exp/static/images/task_images/land.jpg,65,,,,,,56,,,13,,,,,,,,288245,2,2,FALSE,,,
dig,420,972880,0.0-131.0-0.0,,,,,,,,,,,"[{""stimulus"":""run_exp/static/images/task_images/dig.jpg"",""time"":0.2699999986216426},{""stimulus"":""run_exp/static/images/task_images/land.jpg"",""time"":829.6899999985471},{""stimulus"":""run_exp/static/images/task_images/dig.jpg"",""time"":1657.709999999497}]",[],13,,,,,,,,,,,,,,
harvest,421,973884,0.0-131.0-1.0,,null,run_exp/static/images/task_images/gems/56.jpg,null,,,,,,47,,,13,,,,,56,0.832489523,0.839285714,,,,,,,
decision,422,974690,0.0-131.0-2.0,,803.74,run_exp/static/images/task_images/land.jpg,65,,,,,,47,,,13,,,,,,,,292549,2,3,FALSE,,,
dig,423,976898,0.0-132.0-0.0,,,,,,,,,,,"[{""stimulus"":""run_exp/static/images/task_images/dig.jpg"",""time"":0.3450000004377216},{""stimulus"":""run_exp/static/images/task_images/land.jpg"",""time"":733.4900000004563},{""stimulus"":""run_exp/static/images/task_images/dig.jpg"",""time"":1465.4200000003912}]",[],13,,,,,,,,,,,,,,
harvest,424,977901,0.0-132.0-1.0,,null,run_exp/static/images/task_images/gems/47.jpg,null,,,,,,38,,,13,,,,,47,0.802626848,0.808510638,,,,,,,
decision,425,978099,0.0-132.0-2.0,,195.48,run_exp/static/images/task_images/land.jpg,65,,,,,,38,,,13,,,,,,,,295957,2,4,FALSE,,,
