trial_type,trial_index,time_elapsed,internal_node_id,interactions,blur_events,focus_events,fullscreenenter_events,fullscreenexit_events,success,rt,stimulus,key_press,prompt,subject_id,participant_id,age,gender,button_pressed,next_reward,animation_sequence,responses,planet,curr_prac_trial,n_prac_rounds,alien,aliens,reward_received,decay_rate_actual,decay_rate_exp,time_in_block,block_num,prt,last_trial_on_planet,button_html,bonus,num_failures
pavlovia,0,15,0.0-0.0,"""event"",""trial"",""time""
""fullscreenenter"",""1"",""2514""
","
","
","""event"",""trial"",""time""
""fullscreenenter"",""1"",""2514""
","
",,,,,,,,,,,,,,,,,,,,,,,,,,,,
fullscreen,1,3374,0.0-1.0,"""event"",""trial"",""time""
""fullscreenenter"",""1"",""2514""
","
","
","""event"",""trial"",""time""
""fullscreenenter"",""1"",""2514""
","
",TRUE,,,,,,,,,,,,,,,,,,,,,,,,,,,
instruc_welcome,2,13200,0.0-2.0,"""event"",""trial"",""time""
""fullscreenenter"",""1"",""2514""
","
","
","""event"",""trial"",""time""
""fullscreenenter"",""1"",""2514""
","
",,null,run_exp/static/audio/clip_1_welcome.m4a,null,"<p>Howdy! In this experiment, you’ll be an explorer traveling through space to collect space treasure.</p><p>Your mission is to collect as much treasure as possible.</p><br><br><p><img src='run_exp/static/images/task_images/opening_img-01.jpg' height='300' width='auto'></p>",9720,3716,16.75,Female,,,,,,,,,,,,,,,,,,,
audio-keyboard-response,3,29821,0.0-3.0,"""event"",""trial"",""time""
""fullscreenenter"",""1"",""2514""
","
","
","""event"",""trial"",""time""
""fullscreenenter"",""1"",""2514""
","
",,null,run_exp/static/audio/clip_2_move.m4a,null,,,,,,,,,,,,,,,,,,,,,,,,
welcome_dec,4,30299,0.0-4.0,"""event"",""trial"",""time""
""fullscreenenter"",""1"",""2514""
","
","
","""event"",""trial"",""time""
""fullscreenenter"",""1"",""2514""
","
",,459.9000001,"<p>Howdy! In this experiment, you’ll be an explorer traveling through space to collect space treasure.</p><p>Your mission is to collect as much treasure as possible.</p><br><br><p><img src='run_exp/static/images/task_images/opening_img-01.jpg' height='300' width='auto'></p>",,,,,,,1,,,,,,,,,,,,,,,,,,
html-keyboard-response,5,31367,0.0-5.0,"""event"",""trial"",""time""
""fullscreenenter"",""1"",""2514""
","
","
","""event"",""trial"",""time""
""fullscreenenter"",""1"",""2514""
","
",,1062.8,"<p>Howdy! In this experiment, you’ll be an explorer traveling through space to collect space treasure.</p><p>Your mission is to collect as much treasure as possible.</p><br><br><p><img src='run_exp/static/images/task_images/opening_img-01.jpg' height='300' width='auto'></p><button class=""jspsych-html-btn-unchosen""><img src=""run_exp/static/images/task_images/planet-01.jpg"" height=""50""></button><button class=""jspsych-html-btn-chosen""><img src=""run_exp/static/images/task_images/planet-02.jpg"" height=""50""></button><p><b>[press the space bar to lock in your answer]<b><br></p>",32,,,,,,,,,,,,,,,,,,,,,,,,
instruc_goal,6,41480,0.0-6.0-0.0,"""event"",""trial"",""time""
""fullscreenenter"",""1"",""2514""
","
","
","""event"",""trial"",""time""
""fullscreenenter"",""1"",""2514""
","
",,null,run_exp/static/audio/clip_3_goal.m4a,null,"<p> As a space explorer, you’ll visit different planets to dig for space treasure, these pink gems.</p> <p> The more treasure you dig up, the more bonus money you’ll win! </p><br><br><p><img src='run_exp/static/images/task_images/pink_gem.jpg' height='300' width='auto'></p>",,,,,,,,,,,,,,,,,,,,,,,
instruc_goal,7,42317,0.0-6.0-1.0,"""event"",""trial"",""time""
""fullscreenenter"",""1"",""2514""
","
","
","""event"",""trial"",""time""
""fullscreenenter"",""1"",""2514""
","
",,827.3000002,"<p> As a space explorer, you’ll visit different planets to dig for space treasure, these pink gems.</p> <p> The more treasure you dig up, the more bonus money you’ll win! </p><br><br><p><img src='run_exp/static/images/task_images/pink_gem.jpg' height='300' width='auto'></p>",,,,,,,1,,,,,,,,,,,,,,,,,,
html-keyboard-response,8,43028,0.0-6.0-2.0,"""event"",""trial"",""time""
""fullscreenenter"",""1"",""2514""
","
","
","""event"",""trial"",""time""
""fullscreenenter"",""1"",""2514""
","
",,707.5,"<p> As a space explorer, you’ll visit different planets to dig for space treasure, these pink gems.</p> <p> The more treasure you dig up, the more bonus money you’ll win! </p><br><br><p><img src='run_exp/static/images/task_images/pink_gem.jpg' height='300' width='auto'></p><button class=""jspsych-html-btn-unchosen""><img src=""run_exp/static/images/task_images/planet-01.jpg"" height=""50""></button><button class=""jspsych-html-btn-chosen""><img src=""run_exp/static/images/task_images/planet-02.jpg"" height=""50""></button><p><b>[press the space bar to lock in your answer]<b><br></p>",32,,,,,,,,,,,,,,,,,,,,,,,,
instruc_dig,9,59085,0.0-7.0-0.0,"""event"",""trial"",""time""
""fullscreenenter"",""1"",""2514""
","
","
","""event"",""trial"",""time""
""fullscreenenter"",""1"",""2514""
","
",,null,run_exp/static/audio/clip_4_dig.m4a,null,,,,,,,100,,,,,,,,,,,,,,,,,
instruc_dig_try,10,59357,0.0-7.0-1.0,"""event"",""trial"",""time""
""fullscreenenter"",""1"",""2514""
","
","
","""event"",""trial"",""time""
""fullscreenenter"",""1"",""2514""
","
",,263.5999999,"<p> When you’ve arrived at a new planet, you will dig once. </p> <p>Then, you get to decide if you want to stay on the planet and dig again or travel to a new planet and dig there.</p> <p> To stay and dig, press the letter <strong>‘A’</strong> on your keyboard. Try pressing it now! </p><p><img src='run_exp/static/images/task_images/land.jpg'  height='700' width='auto'></p>",65,"<p> When you’ve arrived at a new planet, you will dig once. </p> <p>Then, you get to decide if you want to stay on the planet and dig again or travel to a new planet and dig there.</p> <p> To stay and dig, press the letter <strong>‘A’</strong> on your keyboard. Try pressing it now! </p><p><img src='run_exp/static/images/task_images/land.jpg'  height='700' width='auto'></p>",,,,,,100,,,,,,,,,,,,,,,,,
dig_prac,11,61391,0.0-7.0-2.0,"""event"",""trial"",""time""
""fullscreenenter"",""1"",""2514""
","
","
","""event"",""trial"",""time""
""fullscreenenter"",""1"",""2514""
","
",,,,,,,,,,,,"[{""stimulus"":""run_exp/static/images/task_images/dig.jpg"",""time"":1},{""stimulus"":""run_exp/static/images/task_images/land.jpg"",""time"":672.1000003814697},{""stimulus"":""run_exp/static/images/task_images/dig.jpg"",""time"":1343.3000001907349}]",[],,,,,,,,,,,,,,,
instruc_travel,12,97665,0.0-7.0-3.0,"""event"",""trial"",""time""
""fullscreenenter"",""1"",""2514""
","
","
","""event"",""trial"",""time""
""fullscreenenter"",""1"",""2514""
","
",,null,run_exp/static/audio/clip_5_travel.m4a,null,"<p>Every time you dig up gems, there are less gems on the planet, so the more you dig on a planet the fewer gems you’ll get with each dig.</p><p>When gems are running low, you may want to travel to a new planet. </p> <p>  Planets are very far apart in this galaxy, so it will take some time to travel between them. </p> <br><p>There are lots and lots of planets for you to visit, so you won’t be able to return to any planets you’ve seen before. </p><br><p>To leave this planet and travel to a new one, press the letter <strong>‘L’</strong> on your keyboard. Try pressing it now! </p><p><img src='run_exp/static/images/task_images/rocket-01.jpg'  height='600' width='auto'></p>",,,,,,,,,,,,,,,,,,,,,,,
instruc_travel_try,13,97845,0.0-7.0-4.0,"""event"",""trial"",""time""
""fullscreenenter"",""1"",""2514""
","
","
","""event"",""trial"",""time""
""fullscreenenter"",""1"",""2514""
","
",,172.5,"<p>Every time you dig up gems, there are less gems on the planet, so the more you dig on a planet the fewer gems you’ll get with each dig.</p><p>When gems are running low, you may want to travel to a new planet. </p> <p>  Planets are very far apart in this galaxy, so it will take some time to travel between them. </p> <br><p>There are lots and lots of planets for you to visit, so you won’t be able to return to any planets you’ve seen before. </p><br><p>To leave this planet and travel to a new one, press the letter <strong>‘L’</strong> on your keyboard. Try pressing it now! </p><p><img src='run_exp/static/images/task_images/rocket-01.jpg'  height='600' width='auto'></p>",76,"<p>Every time you dig up gems, there are less gems on the planet, so the more you dig on a planet the fewer gems you’ll get with each dig.</p><p>When gems are running low, you may want to travel to a new planet. </p> <p>  Planets are very far apart in this galaxy, so it will take some time to travel between them. </p> <br><p>There are lots and lots of planets for you to visit, so you won’t be able to return to any planets you’ve seen before. </p><br><p>To leave this planet and travel to a new one, press the letter <strong>‘L’</strong> on your keyboard. Try pressing it now! </p><p><img src='run_exp/static/images/task_images/rocket-01.jpg'  height='600' width='auto'></p>",,,,,,,,,,,,,,,,,,,,,,,
travel_prac,14,107852,0.0-7.0-5.0,"""event"",""trial"",""time""
""fullscreenenter"",""1"",""2514""
","
","
","""event"",""trial"",""time""
""fullscreenenter"",""1"",""2514""
","
",,,,,,,,,,,,"[{""stimulus"":""run_exp/static/images/task_images/rocket-01.jpg"",""time"":0.5999999046325684},{""stimulus"":""run_exp/static/images/task_images/rocket-02.jpg"",""time"":1115.6999998092651},{""stimulus"":""run_exp/static/images/task_images/rocket-03.jpg"",""time"":2229.3999996185303},{""stimulus"":""run_exp/static/images/task_images/rocket-04.jpg"",""time"":3341.199999809265},{""stimulus"":""run_exp/static/images/task_images/rocket-05.jpg"",""time"":4453.799999713898},{""stimulus"":""run_exp/static/images/task_images/rocket-06.jpg"",""time"":5562.199999809265},{""stimulus"":""run_exp/static/images/task_images/rocket-07.jpg"",""time"":6671.299999713898},{""stimulus"":""run_exp/static/images/task_images/rocket-08.jpg"",""time"":7784.39999961853},{""stimulus"":""run_exp/static/images/task_images/rocket-09.jpg"",""time"":8896.699999809265}]",[],0,,,,,,,,,,,,,,
instruc_alien_greet,15,135094,0.0-7.0-6.0,"""event"",""trial"",""time""
""fullscreenenter"",""1"",""2514""
","
","
","""event"",""trial"",""time""
""fullscreenenter"",""1"",""2514""
","
",,null,run_exp/static/audio/clip_6_alien.m4a,null,"<p>When you arrive at a new planet, the alien who owns the treasure mine on that planet will greet you!</p><p>The better an alien takes care of their mine the easier it is to dig for gems. Some aliens take better care of their mine than others. So, you won’t get exactly the same amount of gems on each planet.</p><p>What the alien looks like does not tell you anything about how many gems there are on the planet.</p><br><p><img src=""run_exp/static/images/task_images/aliens/instructions_aliens/planet/alien_planet-1.jpg""  height=""600"" width=""auto""></p>",,,,,,,,,,,,,,,,,,,,,,,
instruc_alien_greet,16,136814,0.0-7.0-7.0,"""event"",""trial"",""time""
""fullscreenenter"",""1"",""2514""
","
","
","""event"",""trial"",""time""
""fullscreenenter"",""1"",""2514""
","
",,1708.7,"<p>When you arrive at a new planet, the alien who owns the treasure mine on that planet will greet you!</p><p>The better an alien takes care of their mine the easier it is to dig for gems. Some aliens take better care of their mine than others. So, you won’t get exactly the same amount of gems on each planet.</p><p>What the alien looks like does not tell you anything about how many gems there are on the planet.</p><br><p><img src=""run_exp/static/images/task_images/aliens/instructions_aliens/planet/alien_planet-1.jpg""  height=""600"" width=""auto""></p>",,,,,,,1,,,,,,,,,,,,,,,,,,
html-keyboard-response,17,137578,0.0-7.0-8.0,"""event"",""trial"",""time""
""fullscreenenter"",""1"",""2514""
","
","
","""event"",""trial"",""time""
""fullscreenenter"",""1"",""2514""
","
",,760.3000002,"<p>When you arrive at a new planet, the alien who owns the treasure mine on that planet will greet you!</p><p>The better an alien takes care of their mine the easier it is to dig for gems. Some aliens take better care of their mine than others. So, you won’t get exactly the same amount of gems on each planet.</p><p>What the alien looks like does not tell you anything about how many gems there are on the planet.</p><br><p><img src=""run_exp/static/images/task_images/aliens/instructions_aliens/planet/alien_planet-1.jpg""  height=""600"" width=""auto""></p><button class=""jspsych-html-btn-unchosen""><img src=""run_exp/static/images/task_images/planet-01.jpg"" height=""50""></button><button class=""jspsych-html-btn-chosen""><img src=""run_exp/static/images/task_images/planet-02.jpg"" height=""50""></button><p><b>[press the space bar to lock in your answer]<b><br></p>",32,,,,,,,,,,,,,,,,,,,,,,,,
time_out,18,148754,0.0-8.0-0.0,"""event"",""trial"",""time""
""fullscreenenter"",""1"",""2514""
","
","
","""event"",""trial"",""time""
""fullscreenenter"",""1"",""2514""
","
",,null,run_exp/static/audio/clip_7_timeout.m4a,null,"<p>If you don't make your choice fast enough, you’ll have to wait a few seconds before you can make another one.</p><p>You can’t dig for more gems or travel to new planets. You just have to sit and wait.</p><br><p><img src='run_exp/static/images/task_images/time_out.jpg'  height='600' width='auto'></p>",,,,,,,,,,,,,,,,,,,,,,,
time_out,19,150920,0.0-8.0-1.0,"""event"",""trial"",""time""
""fullscreenenter"",""1"",""2514""
","
","
","""event"",""trial"",""time""
""fullscreenenter"",""1"",""2514""
","
",,2156.7,"<p>If you don't make your choice fast enough, you’ll have to wait a few seconds before you can make another one.</p><p>You can’t dig for more gems or travel to new planets. You just have to sit and wait.</p><br><p><img src='run_exp/static/images/task_images/time_out.jpg'  height='600' width='auto'></p>",,,,,,,1,,,,,,,,,,,,,,,,,,
html-keyboard-response,20,151415,0.0-8.0-2.0,"""event"",""trial"",""time""
""fullscreenenter"",""1"",""2514""
","
","
","""event"",""trial"",""time""
""fullscreenenter"",""1"",""2514""
","
",,491.9000001,"<p>If you don't make your choice fast enough, you’ll have to wait a few seconds before you can make another one.</p><p>You can’t dig for more gems or travel to new planets. You just have to sit and wait.</p><br><p><img src='run_exp/static/images/task_images/time_out.jpg'  height='600' width='auto'></p><button class=""jspsych-html-btn-unchosen""><img src=""run_exp/static/images/task_images/planet-01.jpg"" height=""50""></button><button class=""jspsych-html-btn-chosen""><img src=""run_exp/static/images/task_images/planet-02.jpg"" height=""50""></button><p><b>[press the space bar to lock in your answer]<b><br></p>",32,,,,,,,,,,,,,,,,,,,,,,,,
instruc_break,21,167132,0.0-9.0-0.0,"""event"",""trial"",""time""
""fullscreenenter"",""1"",""2514""
","
","
","""event"",""trial"",""time""
""fullscreenenter"",""1"",""2514""
","
",,null,run_exp/static/audio/clip_8_break.m4a,null,"<p> After digging and traveling for a while, you’ll be able to take a break at home base. </p><p>The game will last 20 minutes no matter what.</p><p>You will visit home base every 5 minutes, so, you will visit home base three times during the game.</p><br><p><img src='run_exp/static/images/task_images/home_base.jpg' height='600' width='auto'></p>",,,,,,,,,,,,,,,,,,,,,,,
instruc_break,22,169863,0.0-9.0-1.0,"""event"",""trial"",""time""
""fullscreenenter"",""1"",""2514""
","
","
","""event"",""trial"",""time""
""fullscreenenter"",""1"",""2514""
","
",,2726.3,"<p> After digging and traveling for a while, you’ll be able to take a break at home base. </p><p>The game will last 20 minutes no matter what.</p><p>You will visit home base every 5 minutes, so, you will visit home base three times during the game.</p><br><p><img src='run_exp/static/images/task_images/home_base.jpg' height='600' width='auto'></p>",,,,,,,1,,,,,,,,,,,,,,,,,,
html-keyboard-response,23,170540,0.0-9.0-2.0,"""event"",""trial"",""time""
""fullscreenenter"",""1"",""2514""
","
","
","""event"",""trial"",""time""
""fullscreenenter"",""1"",""2514""
","
",,674.4000001,"<p> After digging and traveling for a while, you’ll be able to take a break at home base. </p><p>The game will last 20 minutes no matter what.</p><p>You will visit home base every 5 minutes, so, you will visit home base three times during the game.</p><br><p><img src='run_exp/static/images/task_images/home_base.jpg' height='600' width='auto'></p><button class=""jspsych-html-btn-unchosen""><img src=""run_exp/static/images/task_images/planet-01.jpg"" height=""50""></button><button class=""jspsych-html-btn-chosen""><img src=""run_exp/static/images/task_images/planet-02.jpg"" height=""50""></button><p><b>[press the space bar to lock in your answer]<b><br></p>",32,,,,,,,,,,,,,,,,,,,,,,,,
instruc_prac_game,24,180713,0.0-10.0-0.0,"""event"",""trial"",""time""
""fullscreenenter"",""1"",""2514""
","
","
","""event"",""trial"",""time""
""fullscreenenter"",""1"",""2514""
","
",,null,run_exp/static/audio/clip_9_practice.m4a,null,"<p> Are you ready to play a practice game? </p> <p>In this practice game, you'll be digging up barrels of gems. But, in the real game, you'll be digging up the gems themselves. </p>",,,,,,,,,,,,,,,,,,,,,,,
html-button-response,25,181865,0.0-10.0-1.0,"""event"",""trial"",""time""
""fullscreenenter"",""1"",""2514""
","
","
","""event"",""trial"",""time""
""fullscreenenter"",""1"",""2514""
","
",,1147.9,"<p> Are you ready to play a practice game? </p> <p>In this practice game, you'll be digging up barrels of gems. But, in the real game, you'll be digging up the gems themselves. </p>",,,,,,,0,,,,,,,,,,,,,,,,,,
alien_welcome_prac,26,186878,0.0-11.0-0.0,"""event"",""trial"",""time""
""fullscreenenter"",""1"",""2514""
","
","
","""event"",""trial"",""time""
""fullscreenenter"",""1"",""2514""
","
",,null,run_exp/static/images/task_images/aliens/practice_aliens/planet/alien_planet-5.jpg,null,,,,,,,,,,,,,,,,,,,,,,,,
land_prac,27,187391,0.0-11.0-1.0,"""event"",""trial"",""time""
""fullscreenenter"",""1"",""2514""
","
","
","""event"",""trial"",""time""
""fullscreenenter"",""1"",""2514""
","
",,null,run_exp/static/images/task_images/land.jpg,null,,,,,,,99,,,0,,,,,,,,,,,,,,
dig_prac,28,189404,0.0-11.0-2.0,"""event"",""trial"",""time""
""fullscreenenter"",""1"",""2514""
","
","
","""event"",""trial"",""time""
""fullscreenenter"",""1"",""2514""
","
",,,,,,,,,,,,"[{""stimulus"":""run_exp/static/images/task_images/dig.jpg"",""time"":1},{""stimulus"":""run_exp/static/images/task_images/land.jpg"",""time"":675.3000001907349},{""stimulus"":""run_exp/static/images/task_images/dig.jpg"",""time"":1341.9000000953674}]",[],,,,,,,,,,,,,,,
harvest_prac,29,190730,0.0-11.0-3.0,"""event"",""trial"",""time""
""fullscreenenter"",""1"",""2514""
","
","
","""event"",""trial"",""time""
""fullscreenenter"",""1"",""2514""
","
",,null,run_exp/static/images/task_images/barrel_text.jpg,null,,,,,,,,,,,,,,,,,,,,,,,,
decision_prac,30,190863,0.0-11.0-4.0,"""event"",""trial"",""time""
""fullscreenenter"",""1"",""2514""
","
","
","""event"",""trial"",""time""
""fullscreenenter"",""1"",""2514""
","
",,130.5,run_exp/static/images/task_images/land.jpg,65,,,,,,,,,,,1,,,,,,,,,,,,,
dig_prac,31,192871,0.0-12.0-0.0,"""event"",""trial"",""time""
""fullscreenenter"",""1"",""2514""
","
","
","""event"",""trial"",""time""
""fullscreenenter"",""1"",""2514""
","
",,,,,,,,,,,,"[{""stimulus"":""run_exp/static/images/task_images/dig.jpg"",""time"":0.19999980926513672},{""stimulus"":""run_exp/static/images/task_images/land.jpg"",""time"":675.5},{""stimulus"":""run_exp/static/images/task_images/dig.jpg"",""time"":1336.8000001907349}]",[],,,,,,,,,,,,,,,
harvest_prac,32,193875,0.0-12.0-1.0,"""event"",""trial"",""time""
""fullscreenenter"",""1"",""2514""
","
","
","""event"",""trial"",""time""
""fullscreenenter"",""1"",""2514""
","
",,null,run_exp/static/images/task_images/barrel_text.jpg,null,,,,,,,,,,,,,,,,,,,,,,,,
decision_prac,33,194313,0.0-12.0-2.0,"""event"",""trial"",""time""
""fullscreenenter"",""1"",""2514""
","
","
","""event"",""trial"",""time""
""fullscreenenter"",""1"",""2514""
","
",,435.2999997,run_exp/static/images/task_images/land.jpg,65,,,,,,,,,,,2,,,,,,,,,,,,,
dig_prac,34,196330,0.0-13.0-0.0,"""event"",""trial"",""time""
""fullscreenenter"",""1"",""2514""
","
","
","""event"",""trial"",""time""
""fullscreenenter"",""1"",""2514""
","
",,,,,,,,,,,,"[{""stimulus"":""run_exp/static/images/task_images/dig.jpg"",""time"":0.7000002861022949},{""stimulus"":""run_exp/static/images/task_images/land.jpg"",""time"":674.5999999046326},{""stimulus"":""run_exp/static/images/task_images/dig.jpg"",""time"":1339.9000000953674}]",[],,,,,,,,,,,,,,,
harvest_prac,35,197343,0.0-13.0-1.0,"""event"",""trial"",""time""
""fullscreenenter"",""1"",""2514""
","
","
","""event"",""trial"",""time""
""fullscreenenter"",""1"",""2514""
","
",,null,run_exp/static/images/task_images/barrel_text.jpg,null,,,,,,,,,,,,,,,,,,,,,,,,
decision_prac,36,197598,0.0-13.0-2.0,"""event"",""trial"",""time""
""fullscreenenter"",""1"",""2514""
","
","
","""event"",""trial"",""time""
""fullscreenenter"",""1"",""2514""
","
",,252.5999999,run_exp/static/images/task_images/land.jpg,65,,,,,,,,,,,3,,,,,,,,,,,,,
dig_prac,37,199612,0.0-14.0-0.0,"""event"",""trial"",""time""
""fullscreenenter"",""1"",""2514""
","
","
","""event"",""trial"",""time""
""fullscreenenter"",""1"",""2514""
","
",,,,,,,,,,,,"[{""stimulus"":""run_exp/static/images/task_images/dig.jpg"",""time"":0.5},{""stimulus"":""run_exp/static/images/task_images/land.jpg"",""time"":678},{""stimulus"":""run_exp/static/images/task_images/dig.jpg"",""time"":1337.5999999046326}]",[],,,,,,,,,,,,,,,
harvest_prac,38,200617,0.0-14.0-1.0,"""event"",""trial"",""time""
""fullscreenenter"",""1"",""2514""
","
","
","""event"",""trial"",""time""
""fullscreenenter"",""1"",""2514""
","
",,null,run_exp/static/images/task_images/barrel_text.jpg,null,,,,,,,,,,,,,,,,,,,,,,,,
decision_prac,39,200892,0.0-14.0-2.0,"""event"",""trial"",""time""
""fullscreenenter"",""1"",""2514""
","
","
","""event"",""trial"",""time""
""fullscreenenter"",""1"",""2514""
","
",,272.2000003,run_exp/static/images/task_images/land.jpg,65,,,,,,,,,,,4,,,,,,,,,,,,,
dig_prac,40,202907,0.0-15.0-0.0,"""event"",""trial"",""time""
""fullscreenenter"",""1"",""2514""
","
","
","""event"",""trial"",""time""
""fullscreenenter"",""1"",""2514""
","
",,,,,,,,,,,,"[{""stimulus"":""run_exp/static/images/task_images/dig.jpg"",""time"":0.5999999046325684},{""stimulus"":""run_exp/static/images/task_images/land.jpg"",""time"":671.5},{""stimulus"":""run_exp/static/images/task_images/dig.jpg"",""time"":1338.5999999046326}]",[],,,,,,,,,,,,,,,
harvest_prac,41,203918,0.0-15.0-1.0,"""event"",""trial"",""time""
""fullscreenenter"",""1"",""2514""
","
","
","""event"",""trial"",""time""
""fullscreenenter"",""1"",""2514""
","
",,null,run_exp/static/images/task_images/barrel_text.jpg,null,,,,,,,,,,,,,,,,,,,,,,,,
decision_prac,42,204227,0.0-15.0-2.0,"""event"",""trial"",""time""
""fullscreenenter"",""1"",""2514""
","
","
","""event"",""trial"",""time""
""fullscreenenter"",""1"",""2514""
","
",,306.5,run_exp/static/images/task_images/land.jpg,65,,,,,,,,,,,,1,,,,,,,,,,,,
quiz_instruc,43,206497,0.0-16.0-0.0,"""event"",""trial"",""time""
""fullscreenenter"",""1"",""2514""
","
","
","""event"",""trial"",""time""
""fullscreenenter"",""1"",""2514""
","
",,2258.1,run_exp/static/audio/clip_10_quiz.m4a,,,,,,,0,,,,,,,,,,,,,,,,,,
instruc_repeat,44,249315,0.0-16.0-1.0,"""event"",""trial"",""time""
""fullscreenenter"",""1"",""2514""
","
","
","""event"",""trial"",""time""
""fullscreenenter"",""1"",""2514""
","
",,null,"<p> Are you ready to play a practice game? </p> <p>In this practice game, you'll be digging up barrels of gems. But, in the real game, you'll be digging up the gems themselves. </p>",null,"<p>In this game, your goal is to collect as many gems as you can. That’s how you will win bonus money. </p> <p>The entire game will last 20 minutes no matter how many gems you collect or how many planets you visit. </p><p>To stay on a planet and dig again, press the letter A on your keyboard. To leave for a new planet, press the letter L.</p><p>The more you dig on a planet, the fewer gems you’ll get with each dig which is why you might consider leaving for a new planet. </p><p>When you arrive at a new planet, you’ll be greeted by an alien. What the alien looks like does not tell you anything about how much treasure is on the planet. </p>",,,,,,,,,,,,,,,,,,,,,,,
instruc_repeat_continue,45,251700,0.0-16.0-2.0,"""event"",""trial"",""time""
""fullscreenenter"",""1"",""2514""
","
","
","""event"",""trial"",""time""
""fullscreenenter"",""1"",""2514""
","
",,2378.5,"<p> Are you ready to play a practice game? </p> <p>In this practice game, you'll be digging up barrels of gems. But, in the real game, you'll be digging up the gems themselves. </p>",,,,,,,0,,,,,,,,,,,,,,,,,,
quiz_q_1_ask,46,255270,0.0-16.0-3.0,"""event"",""trial"",""time""
""fullscreenenter"",""1"",""2514""
","
","
","""event"",""trial"",""time""
""fullscreenenter"",""1"",""2514""
","
",,3568.6,run_exp/static/audio/clip_11_q1_ask.m4a,,,,,,,2,,,,,,,,,,,,,,,,,,
quiz_q_1_fb_correct,47,259150,0.0-17.0-0.0,"""event"",""trial"",""time""
""fullscreenenter"",""1"",""2514""
","
","
","""event"",""trial"",""time""
""fullscreenenter"",""1"",""2514""
","
",,null,run_exp/static/audio/clip_12_q1_correct.m4a,null,<p>That’s correct. You win extra money by collecting more gems.</p>,,,,,,,,,,,,,,,,,,,,,,,
quiz_q_2_ask,48,260531,0.0-17.0-1.0,"""event"",""trial"",""time""
""fullscreenenter"",""1"",""2514""
","
","
","""event"",""trial"",""time""
""fullscreenenter"",""1"",""2514""
","
",,1373.3,run_exp/static/audio/clip_14_q2_ask.m4a,,,,,,,1,,,,,,,,,,,,,,,,,,
quiz_q_2_fb_correct,49,264571,0.0-18.0-0.0,"""event"",""trial"",""time""
""fullscreenenter"",""1"",""2514""
","
","
","""event"",""trial"",""time""
""fullscreenenter"",""1"",""2514""
","
",,null,run_exp/static/audio/clip_15_q2_correct.m4a,null,<p>That’s correct. The experiment is 20 minutes no matter what.</p>,,,,,,,,,,,,,,,,,,,,,,,
quiz_q_3_ask,50,267551,0.0-18.0-1.0,"""event"",""trial"",""time""
""fullscreenenter"",""1"",""2514""
","
","
","""event"",""trial"",""time""
""fullscreenenter"",""1"",""2514""
","
",,2975.7,run_exp/static/audio/clip_17_q3_ask.m4a,,,,,,,1,,,,,,,,,,,,,,,,,,
quiz_q_3_fb_correct,51,271590,0.0-19.0-0.0,"""event"",""trial"",""time""
""fullscreenenter"",""1"",""2514""
","
","
","""event"",""trial"",""time""
""fullscreenenter"",""1"",""2514""
","
",,null,run_exp/static/audio/clip_18_q3_correct.m4a,null,<p> That’s correct. You press the letter L to travel to a new planet.</p>,,,,,,,,,,,,,,,,,,,,,,,
quiz_q_4_ask,52,275221,0.0-19.0-1.0,"""event"",""trial"",""time""
""fullscreenenter"",""1"",""2514""
","
","
","""event"",""trial"",""time""
""fullscreenenter"",""1"",""2514""
","
",,3626.3,run_exp/static/audio/clip_20_q4_ask.m4a,,,,,,,0,,,,,,,,,,,,,,,,,,
quiz_q_4_fb_correct,53,280590,0.0-20.0-0.0,"""event"",""trial"",""time""
""fullscreenenter"",""1"",""2514""
","
","
","""event"",""trial"",""time""
""fullscreenenter"",""1"",""2514""
","
",,null,run_exp/static/audio/clip_21_q4_correct.m4a,null,<p> That’s correct. The more you dig on a planet the fewer gems you’ll get with each dig. </p>,,,,,,,,,,,,,,,,,,,,,,,
quiz_q_5_ask,54,284242,0.0-20.0-1.0,"""event"",""trial"",""time""
""fullscreenenter"",""1"",""2514""
","
","
","""event"",""trial"",""time""
""fullscreenenter"",""1"",""2514""
","
",,3642.7,run_exp/static/audio/clip_23_q5_ask.m4a,,,,,,,1,,,,,,,,,,,,,,,,,,
quiz_q_5_fb_correct,55,289291,0.0-21.0-0.0,"""event"",""trial"",""time""
""fullscreenenter"",""1"",""2514""
","
","
","""event"",""trial"",""time""
""fullscreenenter"",""1"",""2514""
","
",,null,run_exp/static/audio/clip_24_q5_correct.m4a,null,<p> That’s correct. The alien tells you nothing about how much treasure is on the planet.</p>,,,,,,,,,,,,,,,,,,,,,,,
quiz_correct,56,292810,0.0-22.0-0.0,"""event"",""trial"",""time""
""fullscreenenter"",""1"",""2514""
","
","
","""event"",""trial"",""time""
""fullscreenenter"",""1"",""2514""
","
",,null,run_exp/static/audio/clip_26_correct_quiz.m4a,null,,,,,,,,,,,,,,,,,,,,,,,,
quiz_correct_continue,57,294843,0.0-22.0-1.0,"""event"",""trial"",""time""
""fullscreenenter"",""1"",""2514""
","
","
","""event"",""trial"",""time""
""fullscreenenter"",""1"",""2514""
","
",,2030.2,<p>Good job! You're now ready to move on to the real game!</p>,,,,,,,0,,,,,,,,,,,,,,,,,,
audio-keyboard-response,58,305010,0.0-22.0-2.0,"""event"",""trial"",""time""
""fullscreenenter"",""1"",""2514""
","
","
","""event"",""trial"",""time""
""fullscreenenter"",""1"",""2514""
","
",,null,run_exp/static/audio/clip_28_real_game.m4a,null,,,,,,,,,,,,,,,,,,,,,,,,
instruc_begin_exp_contine,59,306622,0.0-22.0-3.0,"""event"",""trial"",""time""
""fullscreenenter"",""1"",""2514""
","
","
","""event"",""trial"",""time""
""fullscreenenter"",""1"",""2514""
","
",,1606.1,"<p>Now that you know how  to dig for space treasure and travel to new planets,you can start exploring! </p><p>Do you want to go over the instructions again or get started with the real game?</p>",,,,,,,1,,,,,,1,,,,,,,,,,,,
alien_welcome,60,311633,0.0-23.0-0.0,"""event"",""trial"",""time""
""fullscreenenter"",""1"",""2514""
","
","
","""event"",""trial"",""time""
""fullscreenenter"",""1"",""2514""
","
",,null,run_exp/static/images/task_images/aliens/old_aliens/planet/alien_planet-26.jpg,null,,,,,,,,,,,,,26,"26,12,79,58,64,19,48,72,67,35,6,37,59,61,69,7,25,40,28,63,41,8,70,20,80,22,43,32,45,71",,,,,,,,,,
land,61,312144,0.0-23.0-1.0,"""event"",""trial"",""time""
""fullscreenenter"",""1"",""2514""
","
","
","""event"",""trial"",""time""
""fullscreenenter"",""1"",""2514""
","
",,null,run_exp/static/images/task_images/land.jpg,null,,,,,,,103,,,1,,,,,,,,,,,,,,
dig,62,314156,0.0-23.0-2.0,"""event"",""trial"",""time""
""fullscreenenter"",""1"",""2514""
","
","
","""event"",""trial"",""time""
""fullscreenenter"",""1"",""2514""
","
",,,,,,,,,,,,"[{""stimulus"":""run_exp/static/images/task_images/dig.jpg"",""time"":0.7000002861022949},{""stimulus"":""run_exp/static/images/task_images/land.jpg"",""time"":673.4000000953674},{""stimulus"":""run_exp/static/images/task_images/dig.jpg"",""time"":1346}]",[],1,,,,,,,,,,,,,,
harvest,63,315165,0.0-23.0-3.0,"""event"",""trial"",""time""
""fullscreenenter"",""1"",""2514""
","
","
","""event"",""trial"",""time""
""fullscreenenter"",""1"",""2514""
","
",,null,run_exp/static/images/task_images/gems/103.jpg,null,,,,,,,27,,,1,,,,,103,0.258789939,0.262135922,,,,,,,
decision,64,315829,0.0-23.0-4.0,"""event"",""trial"",""time""
""fullscreenenter"",""1"",""2514""
","
","
","""event"",""trial"",""time""
""fullscreenenter"",""1"",""2514""
","
",,658.7999997,run_exp/static/images/task_images/land.jpg,65,,,,,,,27,,,1,,,,,,,,9202,1,0,FALSE,,,
dig,65,318180,0.0-24.0-0.0,"""event"",""trial"",""time""
""fullscreenenter"",""1"",""2514""
","
","
","""event"",""trial"",""time""
""fullscreenenter"",""1"",""2514""
","
",,,,,,,,,,,,"[{""stimulus"":""run_exp/static/images/task_images/dig.jpg"",""time"":0.3000001907348633},{""stimulus"":""run_exp/static/images/task_images/land.jpg"",""time"":784.8000001907349},{""stimulus"":""run_exp/static/images/task_images/dig.jpg"",""time"":1568.1000003814697}]",[],1,,,,,,,,,,,,,,
harvest,66,319191,0.0-24.0-1.0,"""event"",""trial"",""time""
""fullscreenenter"",""1"",""2514""
","
","
","""event"",""trial"",""time""
""fullscreenenter"",""1"",""2514""
","
",,null,run_exp/static/images/task_images/gems/27.jpg,null,,,,,,,4,,,1,,,,,27,0.164236456,0.148148148,,,,,,,
decision,67,319623,0.0-24.0-2.0,"""event"",""trial"",""time""
""fullscreenenter"",""1"",""2514""
","
","
","""event"",""trial"",""time""
""fullscreenenter"",""1"",""2514""
","
",,428.6999998,run_exp/static/images/task_images/land.jpg,65,,,,,,,4,,,1,,,,,,,,12995,1,1,FALSE,,,
dig,68,322216,0.0-25.0-0.0,"""event"",""trial"",""time""
""fullscreenenter"",""1"",""2514""
","
","
","""event"",""trial"",""time""
""fullscreenenter"",""1"",""2514""
","
",,,,,,,,,,,,"[{""stimulus"":""run_exp/static/images/task_images/dig.jpg"",""time"":0.6999998092651367},{""stimulus"":""run_exp/static/images/task_images/land.jpg"",""time"":866.8999996185303},{""stimulus"":""run_exp/static/images/task_images/dig.jpg"",""time"":1724.2999997138977}]",[],1,,,,,,,,,,,,,,
harvest,69,323222,0.0-25.0-1.0,"""event"",""trial"",""time""
""fullscreenenter"",""1"",""2514""
","
","
","""event"",""trial"",""time""
""fullscreenenter"",""1"",""2514""
","
",,null,run_exp/static/images/task_images/gems/4.jpg,null,,,,,,,1,,,1,,,,,4,0.227439095,0.25,,,,,,,
decision,70,323224,0.0-25.0-2.0,"""event"",""trial"",""time""
""fullscreenenter"",""1"",""2514""
","
","
","""event"",""trial"",""time""
""fullscreenenter"",""1"",""2514""
","
",,0.300000191,run_exp/static/images/task_images/land.jpg,65,,,,,,,1,,,1,,,,,,,,16596,1,2,FALSE,,,
dig,71,326233,0.0-26.0-0.0,"""event"",""trial"",""time""
""fullscreenenter"",""1"",""2514""
","
","
","""event"",""trial"",""time""
""fullscreenenter"",""1"",""2514""
","
",,,,,,,,,,,,"[{""stimulus"":""run_exp/static/images/task_images/dig.jpg"",""time"":0.3000001907348633},{""stimulus"":""run_exp/static/images/task_images/land.jpg"",""time"":1006.5999999046326},{""stimulus"":""run_exp/static/images/task_images/dig.jpg"",""time"":2010.3000001907349}]",[],1,,,,,,,,,,,,,,
harvest,72,327245,0.0-26.0-1.0,"""event"",""trial"",""time""
""fullscreenenter"",""1"",""2514""
","
","
","""event"",""trial"",""time""
""fullscreenenter"",""1"",""2514""
","
",,null,run_exp/static/images/task_images/gems/1.jpg,null,,,,,,,0,,,1,,,,,1,0.172402108,0,,,,,,,
decision,73,329284,0.0-26.0-2.0,"""event"",""trial"",""time""
""fullscreenenter"",""1"",""2514""
","
","
","""event"",""trial"",""time""
""fullscreenenter"",""1"",""2514""
","
",,2036.3,run_exp/static/images/task_images/land.jpg,65,,,,,,,0,,,1,,,,,,,,22656,1,3,FALSE,,,
dig,74,330264,0.0-27.0-0.0,"""event"",""trial"",""time""
""fullscreenenter"",""1"",""2514""
","
","
","""event"",""trial"",""time""
""fullscreenenter"",""1"",""2514""
","
",,,,,,,,,,,,"[{""stimulus"":""run_exp/static/images/task_images/dig.jpg"",""time"":0.5999999046325684},{""stimulus"":""run_exp/static/images/task_images/land.jpg"",""time"":324.69999980926514},{""stimulus"":""run_exp/static/images/task_images/dig.jpg"",""time"":646.0999999046326}]",[],1,,,,,,,,,,,,,,
harvest,75,332012,0.0-27.0-1.0,"""event"",""trial"",""time""
""fullscreenenter"",""1"",""2514""
","
","
","""event"",""trial"",""time""
""fullscreenenter"",""1"",""2514""
","
",,null,run_exp/static/images/task_images/gems/0.jpg,null,,,,,,,0,,,1,,,,,0,0.30166834,NaN,,,,,,,
decision,76,333163,0.0-27.0-2.0,"""event"",""trial"",""time""
""fullscreenenter"",""1"",""2514""
","
","
","""event"",""trial"",""time""
""fullscreenenter"",""1"",""2514""
","
",,1148.5,run_exp/static/images/task_images/land.jpg,76,,,,,,,0,,,1,,,,,,,,26535,1,4,TRUE,,,
travel,77,342038,0.0-28.0-0.0,"""event"",""trial"",""time""
""fullscreenenter"",""1"",""2514""
","
","
","""event"",""trial"",""time""
""fullscreenenter"",""1"",""2514""
","
",,,,,,,,,,,,"[{""stimulus"":""run_exp/static/images/task_images/rocket-01.jpg"",""time"":0.6999998092651367},{""stimulus"":""run_exp/static/images/task_images/rocket-02.jpg"",""time"":988.4000000953674},{""stimulus"":""run_exp/static/images/task_images/rocket-03.jpg"",""time"":1980.6999998092651},{""stimulus"":""run_exp/static/images/task_images/rocket-04.jpg"",""time"":2955.5999999046326},{""stimulus"":""run_exp/static/images/task_images/rocket-05.jpg"",""time"":3935.800000190735},{""stimulus"":""run_exp/static/images/task_images/rocket-06.jpg"",""time"":4920.5},{""stimulus"":""run_exp/static/images/task_images/rocket-07.jpg"",""time"":5902.099999904633},{""stimulus"":""run_exp/static/images/task_images/rocket-08.jpg"",""time"":6886},{""stimulus"":""run_exp/static/images/task_images/rocket-09.jpg"",""time"":7870.900000095367}]",[],1,,,,,,,,,,,,,,
alien_welcome,78,347048,0.0-28.0-1.0,"""event"",""trial"",""time""
""fullscreenenter"",""1"",""2514""
","
","
","""event"",""trial"",""time""
""fullscreenenter"",""1"",""2514""
","
",,null,run_exp/static/images/task_images/aliens/old_aliens/planet/alien_planet-12.jpg,null,,,,,,,,,,,,,12,"26,12,79,58,64,19,48,72,67,35,6,37,59,61,69,7,25,40,28,63,41,8,70,20,80,22,43,32,45,71",,,,,,,,,,
land,79,347554,0.0-28.0-2.0,"""event"",""trial"",""time""
""fullscreenenter"",""1"",""2514""
","
","
","""event"",""trial"",""time""
""fullscreenenter"",""1"",""2514""
","
",,null,run_exp/static/images/task_images/land.jpg,null,,,,,,,104,,,2,,,,,,,,,,,,,,
dig,80,349565,0.0-28.0-3.0,"""event"",""trial"",""time""
""fullscreenenter"",""1"",""2514""
","
","
","""event"",""trial"",""time""
""fullscreenenter"",""1"",""2514""
","
",,,,,,,,,,,,"[{""stimulus"":""run_exp/static/images/task_images/dig.jpg"",""time"":0.7000002861022949},{""stimulus"":""run_exp/static/images/task_images/land.jpg"",""time"":671.4000000953674},{""stimulus"":""run_exp/static/images/task_images/dig.jpg"",""time"":1336.7000002861023}]",[],2,,,,,,,,,,,,,,
harvest,81,350571,0.0-28.0-4.0,"""event"",""trial"",""time""
""fullscreenenter"",""1"",""2514""
","
","
","""event"",""trial"",""time""
""fullscreenenter"",""1"",""2514""
","
",,null,run_exp/static/images/task_images/gems/104.jpg,null,,,,,,,22,,,2,,,,,104,0.214705953,0.211538462,,,,,,,
decision,82,350706,0.0-28.0-5.0,"""event"",""trial"",""time""
""fullscreenenter"",""1"",""2514""
","
","
","""event"",""trial"",""time""
""fullscreenenter"",""1"",""2514""
","
",,131.3000002,run_exp/static/images/task_images/land.jpg,65,,,,,,,22,,,2,,,,,,,,44078,1,0,FALSE,,,
dig,83,353591,0.0-29.0-0.0,"""event"",""trial"",""time""
""fullscreenenter"",""1"",""2514""
","
","
","""event"",""trial"",""time""
""fullscreenenter"",""1"",""2514""
","
",,,,,,,,,,,,"[{""stimulus"":""run_exp/static/images/task_images/dig.jpg"",""time"":0.5999999046325684},{""stimulus"":""run_exp/static/images/task_images/land.jpg"",""time"":961.5},{""stimulus"":""run_exp/static/images/task_images/dig.jpg"",""time"":1918.2999997138977}]",[],2,,,,,,,,,,,,,,
harvest,84,354599,0.0-29.0-1.0,"""event"",""trial"",""time""
""fullscreenenter"",""1"",""2514""
","
","
","""event"",""trial"",""time""
""fullscreenenter"",""1"",""2514""
","
",,null,run_exp/static/images/task_images/gems/22.jpg,null,,,,,,,4,,,2,,,,,22,0.191794977,0.181818182,,,,,,,
decision,85,354685,0.0-29.0-2.0,"""event"",""trial"",""time""
""fullscreenenter"",""1"",""2514""
","
","
","""event"",""trial"",""time""
""fullscreenenter"",""1"",""2514""
","
",,82.9000001,run_exp/static/images/task_images/land.jpg,65,,,,,,,4,,,2,,,,,,,,48058,1,1,FALSE,,,
dig,86,357618,0.0-30.0-0.0,"""event"",""trial"",""time""
""fullscreenenter"",""1"",""2514""
","
","
","""event"",""trial"",""time""
""fullscreenenter"",""1"",""2514""
","
",,,,,,,,,,,,"[{""stimulus"":""run_exp/static/images/task_images/dig.jpg"",""time"":0.5999999046325684},{""stimulus"":""run_exp/static/images/task_images/land.jpg"",""time"":976.6999998092651},{""stimulus"":""run_exp/static/images/task_images/dig.jpg"",""time"":1952.9000000953674}]",[],2,,,,,,,,,,,,,,
harvest,87,358629,0.0-30.0-1.0,"""event"",""trial"",""time""
""fullscreenenter"",""1"",""2514""
","
","
","""event"",""trial"",""time""
""fullscreenenter"",""1"",""2514""
","
",,null,run_exp/static/images/task_images/gems/4.jpg,null,,,,,,,1,,,2,,,,,4,0.182830947,0.25,,,,,,,
decision,88,358634,0.0-30.0-2.0,"""event"",""trial"",""time""
""fullscreenenter"",""1"",""2514""
","
","
","""event"",""trial"",""time""
""fullscreenenter"",""1"",""2514""
","
",,2.200000286,run_exp/static/images/task_images/land.jpg,65,,,,,,,1,,,2,,,,,,,,52006,1,2,FALSE,,,
dig,89,361649,0.0-31.0-0.0,"""event"",""trial"",""time""
""fullscreenenter"",""1"",""2514""
","
","
","""event"",""trial"",""time""
""fullscreenenter"",""1"",""2514""
","
",,,,,,,,,,,,"[{""stimulus"":""run_exp/static/images/task_images/dig.jpg"",""time"":0.5999999046325684},{""stimulus"":""run_exp/static/images/task_images/land.jpg"",""time"":1005.5999999046326},{""stimulus"":""run_exp/static/images/task_images/dig.jpg"",""time"":2005.5999999046326}]",[],2,,,,,,,,,,,,,,
harvest,90,362658,0.0-31.0-1.0,"""event"",""trial"",""time""
""fullscreenenter"",""1"",""2514""
","
","
","""event"",""trial"",""time""
""fullscreenenter"",""1"",""2514""
","
",,null,run_exp/static/images/task_images/gems/1.jpg,null,,,,,,,0,,,2,,,,,1,0.273279248,0,,,,,,,
decision,91,363291,0.0-31.0-2.0,"""event"",""trial"",""time""
""fullscreenenter"",""1"",""2514""
","
","
","""event"",""trial"",""time""
""fullscreenenter"",""1"",""2514""
","
",,629,run_exp/static/images/task_images/land.jpg,65,,,,,,,0,,,2,,,,,,,,56663,1,3,FALSE,,,
dig,92,365676,0.0-32.0-0.0,"""event"",""trial"",""time""
""fullscreenenter"",""1"",""2514""
","
","
","""event"",""trial"",""time""
""fullscreenenter"",""1"",""2514""
","
",,,,,,,,,,,,"[{""stimulus"":""run_exp/static/images/task_images/dig.jpg"",""time"":0.5999999046325684},{""stimulus"":""run_exp/static/images/task_images/land.jpg"",""time"":795.3999996185303},{""stimulus"":""run_exp/static/images/task_images/dig.jpg"",""time"":1583.5}]",[],2,,,,,,,,,,,,,,
harvest,93,366688,0.0-32.0-1.0,"""event"",""trial"",""time""
""fullscreenenter"",""1"",""2514""
","
","
","""event"",""trial"",""time""
""fullscreenenter"",""1"",""2514""
","
",,null,run_exp/static/images/task_images/gems/0.jpg,null,,,,,,,0,,,2,,,,,0,0.159331195,NaN,,,,,,,
decision,94,367187,0.0-32.0-2.0,"""event"",""trial"",""time""
""fullscreenenter"",""1"",""2514""
","
","
","""event"",""trial"",""time""
""fullscreenenter"",""1"",""2514""
","
",,495.4000001,run_exp/static/images/task_images/land.jpg,76,,,,,,,0,,,2,,,,,,,,60559,1,4,TRUE,,,
travel,95,376701,0.0-33.0-0.0,"""event"",""trial"",""time""
""fullscreenenter"",""1"",""2514""
","
","
","""event"",""trial"",""time""
""fullscreenenter"",""1"",""2514""
","
",,,,,,,,,,,,"[{""stimulus"":""run_exp/static/images/task_images/rocket-01.jpg"",""time"":0.3000001907348633},{""stimulus"":""run_exp/static/images/task_images/rocket-02.jpg"",""time"":1060.4000000953674},{""stimulus"":""run_exp/static/images/task_images/rocket-03.jpg"",""time"":2115.7000002861023},{""stimulus"":""run_exp/static/images/task_images/rocket-04.jpg"",""time"":3177.2000002861023},{""stimulus"":""run_exp/static/images/task_images/rocket-05.jpg"",""time"":4227.700000286102},{""stimulus"":""run_exp/static/images/task_images/rocket-06.jpg"",""time"":5283.800000190735},{""stimulus"":""run_exp/static/images/task_images/rocket-07.jpg"",""time"":6343.900000095367},{""stimulus"":""run_exp/static/images/task_images/rocket-08.jpg"",""time"":7397.5},{""stimulus"":""run_exp/static/images/task_images/rocket-09.jpg"",""time"":8450.10000038147}]",[],2,,,,,,,,,,,,,,
alien_welcome,96,381709,0.0-33.0-1.0,"""event"",""trial"",""time""
""fullscreenenter"",""1"",""2514""
","
","
","""event"",""trial"",""time""
""fullscreenenter"",""1"",""2514""
","
",,null,run_exp/static/images/task_images/aliens/old_aliens/planet/alien_planet-79.jpg,null,,,,,,,,,,,,,79,"26,12,79,58,64,19,48,72,67,35,6,37,59,61,69,7,25,40,28,63,41,8,70,20,80,22,43,32,45,71",,,,,,,,,,
land,97,382216,0.0-33.0-2.0,"""event"",""trial"",""time""
""fullscreenenter"",""1"",""2514""
","
","
","""event"",""trial"",""time""
""fullscreenenter"",""1"",""2514""
","
",,null,run_exp/static/images/task_images/land.jpg,null,,,,,,,101,,,3,,,,,,,,,,,,,,
dig,98,384235,0.0-33.0-3.0,"""event"",""trial"",""time""
""fullscreenenter"",""1"",""2514""
","
","
","""event"",""trial"",""time""
""fullscreenenter"",""1"",""2514""
","
",,,,,,,,,,,,"[{""stimulus"":""run_exp/static/images/task_images/dig.jpg"",""time"":0.7000002861022949},{""stimulus"":""run_exp/static/images/task_images/land.jpg"",""time"":677.4000000953674},{""stimulus"":""run_exp/static/images/task_images/dig.jpg"",""time"":1339.0999999046326}]",[],3,,,,,,,,,,,,,,
harvest,99,385242,0.0-33.0-4.0,"""event"",""trial"",""time""
""fullscreenenter"",""1"",""2514""
","
","
","""event"",""trial"",""time""
""fullscreenenter"",""1"",""2514""
","
",,null,run_exp/static/images/task_images/gems/101.jpg,null,,,,,,,50,,,3,,,,,101,0.494222886,0.495049505,,,,,,,
decision,100,385345,0.0-33.0-5.0,"""event"",""trial"",""time""
""fullscreenenter"",""1"",""2514""
","
","
","""event"",""trial"",""time""
""fullscreenenter"",""1"",""2514""
","
",,99.69999981,run_exp/static/images/task_images/land.jpg,65,,,,,,,50,,,3,,,,,,,,78717,1,0,FALSE,,,
dig,101,388256,0.0-34.0-0.0,"""event"",""trial"",""time""
""fullscreenenter"",""1"",""2514""
","
","
","""event"",""trial"",""time""
""fullscreenenter"",""1"",""2514""
","
",,,,,,,,,,,,"[{""stimulus"":""run_exp/static/images/task_images/dig.jpg"",""time"":0.5999999046325684},{""stimulus"":""run_exp/static/images/task_images/land.jpg"",""time"":976.0999999046326},{""stimulus"":""run_exp/static/images/task_images/dig.jpg"",""time"":1941.1999998092651}]",[],3,,,,,,,,,,,,,,
harvest,102,389260,0.0-34.0-1.0,"""event"",""trial"",""time""
""fullscreenenter"",""1"",""2514""
","
","
","""event"",""trial"",""time""
""fullscreenenter"",""1"",""2514""
","
",,null,run_exp/static/images/task_images/gems/50.jpg,null,,,,,,,23,,,3,,,,,50,0.457009913,0.46,,,,,,,
decision,103,389422,0.0-34.0-2.0,"""event"",""trial"",""time""
""fullscreenenter"",""1"",""2514""
","
","
","""event"",""trial"",""time""
""fullscreenenter"",""1"",""2514""
","
",,160.3999996,run_exp/static/images/task_images/land.jpg,65,,,,,,,23,,,3,,,,,,,,82794,1,1,FALSE,,,
dig,104,392277,0.0-35.0-0.0,"""event"",""trial"",""time""
""fullscreenenter"",""1"",""2514""
","
","
","""event"",""trial"",""time""
""fullscreenenter"",""1"",""2514""
","
",,,,,,,,,,,,"[{""stimulus"":""run_exp/static/images/task_images/dig.jpg"",""time"":0.6999998092651367},{""stimulus"":""run_exp/static/images/task_images/land.jpg"",""time"":949.5999999046326},{""stimulus"":""run_exp/static/images/task_images/dig.jpg"",""time"":1901.3000001907349}]",[],3,,,,,,,,,,,,,,
harvest,105,393288,0.0-35.0-1.0,"""event"",""trial"",""time""
""fullscreenenter"",""1"",""2514""
","
","
","""event"",""trial"",""time""
""fullscreenenter"",""1"",""2514""
","
",,null,run_exp/static/images/task_images/gems/23.jpg,null,,,,,,,10,,,3,,,,,23,0.420831839,0.434782609,,,,,,,
decision,106,393725,0.0-35.0-2.0,"""event"",""trial"",""time""
""fullscreenenter"",""1"",""2514""
","
","
","""event"",""trial"",""time""
""fullscreenenter"",""1"",""2514""
","
",,433.6999998,run_exp/static/images/task_images/land.jpg,65,,,,,,,10,,,3,,,,,,,,87098,1,2,FALSE,,,
dig,107,396308,0.0-36.0-0.0,"""event"",""trial"",""time""
""fullscreenenter"",""1"",""2514""
","
","
","""event"",""trial"",""time""
""fullscreenenter"",""1"",""2514""
","
",,,,,,,,,,,,"[{""stimulus"":""run_exp/static/images/task_images/dig.jpg"",""time"":0.5999999046325684},{""stimulus"":""run_exp/static/images/task_images/land.jpg"",""time"":863.1999998092651},{""stimulus"":""run_exp/static/images/task_images/dig.jpg"",""time"":1718.8999996185303}]",[],3,,,,,,,,,,,,,,
harvest,108,397321,0.0-36.0-1.0,"""event"",""trial"",""time""
""fullscreenenter"",""1"",""2514""
","
","
","""event"",""trial"",""time""
""fullscreenenter"",""1"",""2514""
","
",,null,run_exp/static/images/task_images/gems/10.jpg,null,,,,,,,5,,,3,,,,,10,0.481848449,0.5,,,,,,,
decision,109,397714,0.0-36.0-2.0,"""event"",""trial"",""time""
""fullscreenenter"",""1"",""2514""
","
","
","""event"",""trial"",""time""
""fullscreenenter"",""1"",""2514""
","
",,390.2999997,run_exp/static/images/task_images/land.jpg,65,,,,,,,5,,,3,,,,,,,,91086,1,3,FALSE,,,
dig,110,400333,0.0-37.0-0.0,"""event"",""trial"",""time""
""fullscreenenter"",""1"",""2514""
","
","
","""event"",""trial"",""time""
""fullscreenenter"",""1"",""2514""
","
",,,,,,,,,,,,"[{""stimulus"":""run_exp/static/images/task_images/dig.jpg"",""time"":0.5999999046325684},{""stimulus"":""run_exp/static/images/task_images/land.jpg"",""time"":874.5999999046326},{""stimulus"":""run_exp/static/images/task_images/dig.jpg"",""time"":1747.7000002861023}]",[],3,,,,,,,,,,,,,,
harvest,111,401338,0.0-37.0-1.0,"""event"",""trial"",""time""
""fullscreenenter"",""1"",""2514""
","
","
","""event"",""trial"",""time""
""fullscreenenter"",""1"",""2514""
","
",,null,run_exp/static/images/task_images/gems/5.jpg,null,,,,,,,2,,,3,,,,,5,0.477515049,0.4,,,,,,,
decision,112,401886,0.0-37.0-2.0,"""event"",""trial"",""time""
""fullscreenenter"",""1"",""2514""
","
","
","""event"",""trial"",""time""
""fullscreenenter"",""1"",""2514""
","
",,544.3000002,run_exp/static/images/task_images/land.jpg,76,,,,,,,2,,,3,,,,,,,,95258,1,4,TRUE,,,
travel,113,411362,0.0-38.0-0.0,"""event"",""trial"",""time""
""fullscreenenter"",""1"",""2514""
","
","
","""event"",""trial"",""time""
""fullscreenenter"",""1"",""2514""
","
",,,,,,,,,,,,"[{""stimulus"":""run_exp/static/images/task_images/rocket-01.jpg"",""time"":0.6000003814697266},{""stimulus"":""run_exp/static/images/task_images/rocket-02.jpg"",""time"":1060.1000003814697},{""stimulus"":""run_exp/static/images/task_images/rocket-03.jpg"",""time"":2108},{""stimulus"":""run_exp/static/images/task_images/rocket-04.jpg"",""time"":3164.1000003814697},{""stimulus"":""run_exp/static/images/task_images/rocket-05.jpg"",""time"":4209.10000038147},{""stimulus"":""run_exp/static/images/task_images/rocket-06.jpg"",""time"":5258.400000095367},{""stimulus"":""run_exp/static/images/task_images/rocket-07.jpg"",""time"":6308.700000286102},{""stimulus"":""run_exp/static/images/task_images/rocket-08.jpg"",""time"":7354.700000286102},{""stimulus"":""run_exp/static/images/task_images/rocket-09.jpg"",""time"":8413.60000038147}]",[],3,,,,,,,,,,,,,,
alien_welcome,114,416369,0.0-38.0-1.0,"""event"",""trial"",""time""
""fullscreenenter"",""1"",""2514""
","
","
","""event"",""trial"",""time""
""fullscreenenter"",""1"",""2514""
","
",,null,run_exp/static/images/task_images/aliens/old_aliens/planet/alien_planet-58.jpg,null,,,,,,,,,,,,,58,"26,12,79,58,64,19,48,72,67,35,6,37,59,61,69,7,25,40,28,63,41,8,70,20,80,22,43,32,45,71",,,,,,,,,,
land,115,416872,0.0-38.0-2.0,"""event"",""trial"",""time""
""fullscreenenter"",""1"",""2514""
","
","
","""event"",""trial"",""time""
""fullscreenenter"",""1"",""2514""
","
",,null,run_exp/static/images/task_images/land.jpg,null,,,,,,,104,,,4,,,,,,,,,,,,,,
dig,116,418881,0.0-38.0-3.0,"""event"",""trial"",""time""
""fullscreenenter"",""1"",""2514""
","
","
","""event"",""trial"",""time""
""fullscreenenter"",""1"",""2514""
","
",,,,,,,,,,,,"[{""stimulus"":""run_exp/static/images/task_images/dig.jpg"",""time"":0.7000002861022949},{""stimulus"":""run_exp/static/images/task_images/land.jpg"",""time"":677.5999999046326},{""stimulus"":""run_exp/static/images/task_images/dig.jpg"",""time"":1337}]",[],4,,,,,,,,,,,,,,
harvest,117,419890,0.0-38.0-4.0,"""event"",""trial"",""time""
""fullscreenenter"",""1"",""2514""
","
","
","""event"",""trial"",""time""
""fullscreenenter"",""1"",""2514""
","
",,null,run_exp/static/images/task_images/gems/104.jpg,null,,,,,,,53,,,4,,,,,104,0.5085548,0.509615385,,,,,,,
decision,118,419893,0.0-38.0-5.0,"""event"",""trial"",""time""
""fullscreenenter"",""1"",""2514""
","
","
","""event"",""trial"",""time""
""fullscreenenter"",""1"",""2514""
","
",,0.400000095,run_exp/static/images/task_images/land.jpg,65,,,,,,,53,,,4,,,,,,,,113268,1,0,FALSE,,,
dig,119,422912,0.0-39.0-0.0,"""event"",""trial"",""time""
""fullscreenenter"",""1"",""2514""
","
","
","""event"",""trial"",""time""
""fullscreenenter"",""1"",""2514""
","
",,,,,,,,,,,,"[{""stimulus"":""run_exp/static/images/task_images/dig.jpg"",""time"":0.6999998092651367},{""stimulus"":""run_exp/static/images/task_images/land.jpg"",""time"":1001.5999999046326},{""stimulus"":""run_exp/static/images/task_images/dig.jpg"",""time"":2001.6999998092651}]",[],4,,,,,,,,,,,,,,
harvest,120,423914,0.0-39.0-1.0,"""event"",""trial"",""time""
""fullscreenenter"",""1"",""2514""
","
","
","""event"",""trial"",""time""
""fullscreenenter"",""1"",""2514""
","
",,null,run_exp/static/images/task_images/gems/53.jpg,null,,,,,,,22,,,4,,,,,53,0.411976008,0.41509434,,,,,,,
decision,121,424415,0.0-39.0-2.0,"""event"",""trial"",""time""
""fullscreenenter"",""1"",""2514""
","
","
","""event"",""trial"",""time""
""fullscreenenter"",""1"",""2514""
","
",,498.3000002,run_exp/static/images/task_images/land.jpg,65,,,,,,,22,,,4,,,,,,,,117787,1,1,FALSE,,,
dig,122,426923,0.0-40.0-0.0,"""event"",""trial"",""time""
""fullscreenenter"",""1"",""2514""
","
","
","""event"",""trial"",""time""
""fullscreenenter"",""1"",""2514""
","
",,,,,,,,,,,,"[{""stimulus"":""run_exp/static/images/task_images/dig.jpg"",""time"":0.19999980926513672},{""stimulus"":""run_exp/static/images/task_images/land.jpg"",""time"":844.8000001907349},{""stimulus"":""run_exp/static/images/task_images/dig.jpg"",""time"":1671}]",[],4,,,,,,,,,,,,,,
harvest,123,427928,0.0-40.0-1.0,"""event"",""trial"",""time""
""fullscreenenter"",""1"",""2514""
","
","
","""event"",""trial"",""time""
""fullscreenenter"",""1"",""2514""
","
",,null,run_exp/static/images/task_images/gems/22.jpg,null,,,,,,,8,,,4,,,,,22,0.361864473,0.363636364,,,,,,,
decision,124,428465,0.0-40.0-2.0,"""event"",""trial"",""time""
""fullscreenenter"",""1"",""2514""
","
","
","""event"",""trial"",""time""
""fullscreenenter"",""1"",""2514""
","
",,533.4000001,run_exp/static/images/task_images/land.jpg,65,,,,,,,8,,,4,,,,,,,,121837,1,2,FALSE,,,
dig,125,430959,0.0-41.0-0.0,"""event"",""trial"",""time""
""fullscreenenter"",""1"",""2514""
","
","
","""event"",""trial"",""time""
""fullscreenenter"",""1"",""2514""
","
",,,,,,,,,,,,"[{""stimulus"":""run_exp/static/images/task_images/dig.jpg"",""time"":0.7000002861022949},{""stimulus"":""run_exp/static/images/task_images/land.jpg"",""time"":830.7000002861023},{""stimulus"":""run_exp/static/images/task_images/dig.jpg"",""time"":1652.8000001907349}]",[],4,,,,,,,,,,,,,,
harvest,126,431972,0.0-41.0-1.0,"""event"",""trial"",""time""
""fullscreenenter"",""1"",""2514""
","
","
","""event"",""trial"",""time""
""fullscreenenter"",""1"",""2514""
","
",,null,run_exp/static/images/task_images/gems/8.jpg,null,,,,,,,4,,,4,,,,,8,0.46704858,0.5,,,,,,,
decision,127,431990,0.0-41.0-2.0,"""event"",""trial"",""time""
""fullscreenenter"",""1"",""2514""
","
","
","""event"",""trial"",""time""
""fullscreenenter"",""1"",""2514""
","
",,15,run_exp/static/images/task_images/land.jpg,65,,,,,,,4,,,4,,,,,,,,125362,1,3,FALSE,,,
dig,128,434991,0.0-42.0-0.0,"""event"",""trial"",""time""
""fullscreenenter"",""1"",""2514""
","
","
","""event"",""trial"",""time""
""fullscreenenter"",""1"",""2514""
","
",,,,,,,,,,,,"[{""stimulus"":""run_exp/static/images/task_images/dig.jpg"",""time"":0.7999997138977051},{""stimulus"":""run_exp/static/images/task_images/land.jpg"",""time"":1001.5999999046326},{""stimulus"":""run_exp/static/images/task_images/dig.jpg"",""time"":1995.0999999046326}]",[],4,,,,,,,,,,,,,,
harvest,129,436003,0.0-42.0-1.0,"""event"",""trial"",""time""
""fullscreenenter"",""1"",""2514""
","
","
","""event"",""trial"",""time""
""fullscreenenter"",""1"",""2514""
","
",,null,run_exp/static/images/task_images/gems/4.jpg,null,,,,,,,2,,,4,,,,,4,0.564612716,0.5,,,,,,,
decision,130,436245,0.0-42.0-2.0,"""event"",""trial"",""time""
""fullscreenenter"",""1"",""2514""
","
","
","""event"",""trial"",""time""
""fullscreenenter"",""1"",""2514""
","
",,239.6999998,run_exp/static/images/task_images/land.jpg,76,,,,,,,2,,,4,,,,,,,,129617,1,4,TRUE,,,
travel,131,446017,0.0-43.0-0.0,"""event"",""trial"",""time""
""fullscreenenter"",""1"",""2514""
","
","
","""event"",""trial"",""time""
""fullscreenenter"",""1"",""2514""
","
",,,,,,,,,,,,"[{""stimulus"":""run_exp/static/images/task_images/rocket-01.jpg"",""time"":0.7000002861022949},{""stimulus"":""run_exp/static/images/task_images/rocket-02.jpg"",""time"":1092.5999999046326},{""stimulus"":""run_exp/static/images/task_images/rocket-03.jpg"",""time"":2170.5999999046326},{""stimulus"":""run_exp/static/images/task_images/rocket-04.jpg"",""time"":3259.7000002861023},{""stimulus"":""run_exp/static/images/task_images/rocket-05.jpg"",""time"":4343.599999904633},{""stimulus"":""run_exp/static/images/task_images/rocket-06.jpg"",""time"":5423.800000190735},{""stimulus"":""run_exp/static/images/task_images/rocket-07.jpg"",""time"":6515.599999904633},{""stimulus"":""run_exp/static/images/task_images/rocket-08.jpg"",""time"":7595.800000190735},{""stimulus"":""run_exp/static/images/task_images/rocket-09.jpg"",""time"":8678.5}]",[],4,,,,,,,,,,,,,,
alien_welcome,132,451029,0.0-43.0-1.0,"""event"",""trial"",""time""
""fullscreenenter"",""1"",""2514""
","
","
","""event"",""trial"",""time""
""fullscreenenter"",""1"",""2514""
","
",,null,run_exp/static/images/task_images/aliens/old_aliens/planet/alien_planet-64.jpg,null,,,,,,,,,,,,,64,"26,12,79,58,64,19,48,72,67,35,6,37,59,61,69,7,25,40,28,63,41,8,70,20,80,22,43,32,45,71",,,,,,,,,,
land,133,451539,0.0-43.0-2.0,"""event"",""trial"",""time""
""fullscreenenter"",""1"",""2514""
","
","
","""event"",""trial"",""time""
""fullscreenenter"",""1"",""2514""
","
",,null,run_exp/static/images/task_images/land.jpg,null,,,,,,,109,,,5,,,,,,,,,,,,,,
dig,134,453547,0.0-43.0-3.0,"""event"",""trial"",""time""
""fullscreenenter"",""1"",""2514""
","
","
","""event"",""trial"",""time""
""fullscreenenter"",""1"",""2514""
","
",,,,,,,,,,,,"[{""stimulus"":""run_exp/static/images/task_images/dig.jpg"",""time"":0.6999998092651367},{""stimulus"":""run_exp/static/images/task_images/land.jpg"",""time"":673},{""stimulus"":""run_exp/static/images/task_images/dig.jpg"",""time"":1337.0999999046326}]",[],5,,,,,,,,,,,,,,
harvest,135,454552,0.0-43.0-4.0,"""event"",""trial"",""time""
""fullscreenenter"",""1"",""2514""
","
","
","""event"",""trial"",""time""
""fullscreenenter"",""1"",""2514""
","
",,null,run_exp/static/images/task_images/gems/109.jpg,null,,,,,,,61,,,5,,,,,109,0.563901885,0.559633028,,,,,,,
decision,136,454696,0.0-43.0-5.0,"""event"",""trial"",""time""
""fullscreenenter"",""1"",""2514""
","
","
","""event"",""trial"",""time""
""fullscreenenter"",""1"",""2514""
","
",,140.4000001,run_exp/static/images/task_images/land.jpg,65,,,,,,,61,,,5,,,,,,,,148068,1,0,FALSE,,,
dig,137,457570,0.0-44.0-0.0,"""event"",""trial"",""time""
""fullscreenenter"",""1"",""2514""
","
","
","""event"",""trial"",""time""
""fullscreenenter"",""1"",""2514""
","
",,,,,,,,,,,,"[{""stimulus"":""run_exp/static/images/task_images/dig.jpg"",""time"":0.5999999046325684},{""stimulus"":""run_exp/static/images/task_images/land.jpg"",""time"":958.2999997138977},{""stimulus"":""run_exp/static/images/task_images/dig.jpg"",""time"":1917.7999997138977}]",[],5,,,,,,,,,,,,,,
harvest,138,458580,0.0-44.0-1.0,"""event"",""trial"",""time""
""fullscreenenter"",""1"",""2514""
","
","
","""event"",""trial"",""time""
""fullscreenenter"",""1"",""2514""
","
",,null,run_exp/static/images/task_images/gems/61.jpg,null,,,,,,,33,,,5,,,,,61,0.543699725,0.540983607,,,,,,,
decision,139,458709,0.0-44.0-2.0,"""event"",""trial"",""time""
""fullscreenenter"",""1"",""2514""
","
","
","""event"",""trial"",""time""
""fullscreenenter"",""1"",""2514""
","
",,125.6999998,run_exp/static/images/task_images/land.jpg,65,,,,,,,33,,,5,,,,,,,,152082,1,1,FALSE,,,
dig,140,461600,0.0-45.0-0.0,"""event"",""trial"",""time""
""fullscreenenter"",""1"",""2514""
","
","
","""event"",""trial"",""time""
""fullscreenenter"",""1"",""2514""
","
",,,,,,,,,,,,"[{""stimulus"":""run_exp/static/images/task_images/dig.jpg"",""time"":0.7999997138977051},{""stimulus"":""run_exp/static/images/task_images/land.jpg"",""time"":967.1999998092651},{""stimulus"":""run_exp/static/images/task_images/dig.jpg"",""time"":1928}]",[],5,,,,,,,,,,,,,,
harvest,141,462607,0.0-45.0-1.0,"""event"",""trial"",""time""
""fullscreenenter"",""1"",""2514""
","
","
","""event"",""trial"",""time""
""fullscreenenter"",""1"",""2514""
","
",,null,run_exp/static/images/task_images/gems/33.jpg,null,,,,,,,16,,,5,,,,,33,0.482434263,0.484848485,,,,,,,
decision,142,462611,0.0-45.0-2.0,"""event"",""trial"",""time""
""fullscreenenter"",""1"",""2514""
","
","
","""event"",""trial"",""time""
""fullscreenenter"",""1"",""2514""
","
",,0.400000095,run_exp/static/images/task_images/land.jpg,65,,,,,,,16,,,5,,,,,,,,155983,1,2,FALSE,,,
dig,143,465628,0.0-46.0-0.0,"""event"",""trial"",""time""
""fullscreenenter"",""1"",""2514""
","
","
","""event"",""trial"",""time""
""fullscreenenter"",""1"",""2514""
","
",,,,,,,,,,,,"[{""stimulus"":""run_exp/static/images/task_images/dig.jpg"",""time"":0.5},{""stimulus"":""run_exp/static/images/task_images/land.jpg"",""time"":1008.0999999046326},{""stimulus"":""run_exp/static/images/task_images/dig.jpg"",""time"":2006.4000000953674}]",[],5,,,,,,,,,,,,,,
harvest,144,466641,0.0-46.0-1.0,"""event"",""trial"",""time""
""fullscreenenter"",""1"",""2514""
","
","
","""event"",""trial"",""time""
""fullscreenenter"",""1"",""2514""
","
",,null,run_exp/static/images/task_images/gems/16.jpg,null,,,,,,,7,,,5,,,,,16,0.442378883,0.4375,,,,,,,
decision,145,467035,0.0-46.0-2.0,"""event"",""trial"",""time""
""fullscreenenter"",""1"",""2514""
","
","
","""event"",""trial"",""time""
""fullscreenenter"",""1"",""2514""
","
",,392.3000002,run_exp/static/images/task_images/land.jpg,65,,,,,,,7,,,5,,,,,,,,160408,1,3,FALSE,,,
dig,146,469657,0.0-47.0-0.0,"""event"",""trial"",""time""
""fullscreenenter"",""1"",""2514""
","
","
","""event"",""trial"",""time""
""fullscreenenter"",""1"",""2514""
","
",,,,,,,,,,,,"[{""stimulus"":""run_exp/static/images/task_images/dig.jpg"",""time"":0.2999997138977051},{""stimulus"":""run_exp/static/images/task_images/land.jpg"",""time"":871},{""stimulus"":""run_exp/static/images/task_images/dig.jpg"",""time"":1741.2999997138977}]",[],5,,,,,,,,,,,,,,
harvest,147,470668,0.0-47.0-1.0,"""event"",""trial"",""time""
""fullscreenenter"",""1"",""2514""
","
","
","""event"",""trial"",""time""
""fullscreenenter"",""1"",""2514""
","
",,null,run_exp/static/images/task_images/gems/7.jpg,null,,,,,,,3,,,5,,,,,7,0.417314387,0.428571429,,,,,,,
decision,148,470932,0.0-47.0-2.0,"""event"",""trial"",""time""
""fullscreenenter"",""1"",""2514""
","
","
","""event"",""trial"",""time""
""fullscreenenter"",""1"",""2514""
","
",,262.5,run_exp/static/images/task_images/land.jpg,65,,,,,,,3,,,5,,,,,,,,164304,1,4,FALSE,,,
dig,149,473677,0.0-48.0-0.0,"""event"",""trial"",""time""
""fullscreenenter"",""1"",""2514""
","
","
","""event"",""trial"",""time""
""fullscreenenter"",""1"",""2514""
","
",,,,,,,,,,,,"[{""stimulus"":""run_exp/static/images/task_images/dig.jpg"",""time"":0.40000009536743164},{""stimulus"":""run_exp/static/images/task_images/land.jpg"",""time"":918.7000002861023},{""stimulus"":""run_exp/static/images/task_images/dig.jpg"",""time"":1828.5}]",[],5,,,,,,,,,,,,,,
harvest,150,474681,0.0-48.0-1.0,"""event"",""trial"",""time""
""fullscreenenter"",""1"",""2514""
","
","
","""event"",""trial"",""time""
""fullscreenenter"",""1"",""2514""
","
",,null,run_exp/static/images/task_images/gems/3.jpg,null,,,,,,,2,,,5,,,,,3,0.520498236,0.666666667,,,,,,,
decision,151,474845,0.0-48.0-2.0,"""event"",""trial"",""time""
""fullscreenenter"",""1"",""2514""
","
","
","""event"",""trial"",""time""
""fullscreenenter"",""1"",""2514""
","
",,161.1000004,run_exp/static/images/task_images/land.jpg,65,,,,,,,2,,,5,,,,,,,,168218,1,5,FALSE,,,
dig,152,477699,0.0-49.0-0.0,"""event"",""trial"",""time""
""fullscreenenter"",""1"",""2514""
","
","
","""event"",""trial"",""time""
""fullscreenenter"",""1"",""2514""
","
",,,,,,,,,,,,"[{""stimulus"":""run_exp/static/images/task_images/dig.jpg"",""time"":0.6999998092651367},{""stimulus"":""run_exp/static/images/task_images/land.jpg"",""time"":951.6999998092651},{""stimulus"":""run_exp/static/images/task_images/dig.jpg"",""time"":1896.3999996185303}]",[],5,,,,,,,,,,,,,,
harvest,153,478711,0.0-49.0-1.0,"""event"",""trial"",""time""
""fullscreenenter"",""1"",""2514""
","
","
","""event"",""trial"",""time""
""fullscreenenter"",""1"",""2514""
","
",,null,run_exp/static/images/task_images/gems/2.jpg,null,,,,,,,1,,,5,,,,,2,0.561885549,0.5,,,,,,,
decision,154,478911,0.0-49.0-2.0,"""event"",""trial"",""time""
""fullscreenenter"",""1"",""2514""
","
","
","""event"",""trial"",""time""
""fullscreenenter"",""1"",""2514""
","
",,197.0999999,run_exp/static/images/task_images/land.jpg,76,,,,,,,1,,,5,,,,,,,,172283,1,6,TRUE,,,
travel,155,488733,0.0-50.0-0.0,"""event"",""trial"",""time""
""fullscreenenter"",""1"",""2514""
","
","
","""event"",""trial"",""time""
""fullscreenenter"",""1"",""2514""
","
",,,,,,,,,,,,"[{""stimulus"":""run_exp/static/images/task_images/rocket-01.jpg"",""time"":0.6000003814697266},{""stimulus"":""run_exp/static/images/task_images/rocket-02.jpg"",""time"":1093.2000002861023},{""stimulus"":""run_exp/static/images/task_images/rocket-03.jpg"",""time"":2180.800000190735},{""stimulus"":""run_exp/static/images/task_images/rocket-04.jpg"",""time"":3275.5},{""stimulus"":""run_exp/static/images/task_images/rocket-05.jpg"",""time"":4361.5},{""stimulus"":""run_exp/static/images/task_images/rocket-06.jpg"",""time"":5452.700000286102},{""stimulus"":""run_exp/static/images/task_images/rocket-07.jpg"",""time"":6541.300000190735},{""stimulus"":""run_exp/static/images/task_images/rocket-08.jpg"",""time"":7634.800000190735},{""stimulus"":""run_exp/static/images/task_images/rocket-09.jpg"",""time"":8719.10000038147}]",[],5,,,,,,,,,,,,,,
alien_welcome,156,493741,0.0-50.0-1.0,"""event"",""trial"",""time""
""fullscreenenter"",""1"",""2514""
","
","
","""event"",""trial"",""time""
""fullscreenenter"",""1"",""2514""
","
",,null,run_exp/static/images/task_images/aliens/old_aliens/planet/alien_planet-19.jpg,null,,,,,,,,,,,,,19,"26,12,79,58,64,19,48,72,67,35,6,37,59,61,69,7,25,40,28,63,41,8,70,20,80,22,43,32,45,71",,,,,,,,,,
land,157,494245,0.0-50.0-2.0,"""event"",""trial"",""time""
""fullscreenenter"",""1"",""2514""
","
","
","""event"",""trial"",""time""
""fullscreenenter"",""1"",""2514""
","
",,null,run_exp/static/images/task_images/land.jpg,null,,,,,,,106,,,6,,,,,,,,,,,,,,
dig,158,496254,0.0-50.0-3.0,"""event"",""trial"",""time""
""fullscreenenter"",""1"",""2514""
","
","
","""event"",""trial"",""time""
""fullscreenenter"",""1"",""2514""
","
",,,,,,,,,,,,"[{""stimulus"":""run_exp/static/images/task_images/dig.jpg"",""time"":0.6999998092651367},{""stimulus"":""run_exp/static/images/task_images/land.jpg"",""time"":672.1999998092651},{""stimulus"":""run_exp/static/images/task_images/dig.jpg"",""time"":1337.6999998092651}]",[],6,,,,,,,,,,,,,,
harvest,159,497262,0.0-50.0-4.0,"""event"",""trial"",""time""
""fullscreenenter"",""1"",""2514""
","
","
","""event"",""trial"",""time""
""fullscreenenter"",""1"",""2514""
","
",,null,run_exp/static/images/task_images/gems/106.jpg,null,,,,,,,83,,,6,,,,,106,0.786973453,0.783018868,,,,,,,
decision,160,497615,0.0-50.0-5.0,"""event"",""trial"",""time""
""fullscreenenter"",""1"",""2514""
","
","
","""event"",""trial"",""time""
""fullscreenenter"",""1"",""2514""
","
",,349.9000001,run_exp/static/images/task_images/land.jpg,65,,,,,,,83,,,6,,,,,,,,190988,1,0,FALSE,,,
dig,161,500280,0.0-51.0-0.0,"""event"",""trial"",""time""
""fullscreenenter"",""1"",""2514""
","
","
","""event"",""trial"",""time""
""fullscreenenter"",""1"",""2514""
","
",,,,,,,,,,,,"[{""stimulus"":""run_exp/static/images/task_images/dig.jpg"",""time"":0.7000002861022949},{""stimulus"":""run_exp/static/images/task_images/land.jpg"",""time"":887.0999999046326},{""stimulus"":""run_exp/static/images/task_images/dig.jpg"",""time"":1777.5999999046326}]",[],6,,,,,,,,,,,,,,
harvest,162,501284,0.0-51.0-1.0,"""event"",""trial"",""time""
""fullscreenenter"",""1"",""2514""
","
","
","""event"",""trial"",""time""
""fullscreenenter"",""1"",""2514""
","
",,null,run_exp/static/images/task_images/gems/83.jpg,null,,,,,,,71,,,6,,,,,83,0.858402323,0.855421687,,,,,,,
decision,163,501536,0.0-51.0-2.0,"""event"",""trial"",""time""
""fullscreenenter"",""1"",""2514""
","
","
","""event"",""trial"",""time""
""fullscreenenter"",""1"",""2514""
","
",,250.3999996,run_exp/static/images/task_images/land.jpg,65,,,,,,,71,,,6,,,,,,,,194908,1,1,FALSE,,,
dig,164,504302,0.0-52.0-0.0,"""event"",""trial"",""time""
""fullscreenenter"",""1"",""2514""
","
","
","""event"",""trial"",""time""
""fullscreenenter"",""1"",""2514""
","
",,,,,,,,,,,,"[{""stimulus"":""run_exp/static/images/task_images/dig.jpg"",""time"":0.5},{""stimulus"":""run_exp/static/images/task_images/land.jpg"",""time"":932.8999996185303},{""stimulus"":""run_exp/static/images/task_images/dig.jpg"",""time"":1841.7999997138977}]",[],6,,,,,,,,,,,,,,
harvest,165,505306,0.0-52.0-1.0,"""event"",""trial"",""time""
""fullscreenenter"",""1"",""2514""
","
","
","""event"",""trial"",""time""
""fullscreenenter"",""1"",""2514""
","
",,null,run_exp/static/images/task_images/gems/71.jpg,null,,,,,,,55,,,6,,,,,71,0.779542112,0.774647887,,,,,,,
decision,166,505899,0.0-52.0-2.0,"""event"",""trial"",""time""
""fullscreenenter"",""1"",""2514""
","
","
","""event"",""trial"",""time""
""fullscreenenter"",""1"",""2514""
","
",,591,run_exp/static/images/task_images/land.jpg,65,,,,,,,55,,,6,,,,,,,,199271,1,2,FALSE,,,
dig,167,508330,0.0-53.0-0.0,"""event"",""trial"",""time""
""fullscreenenter"",""1"",""2514""
","
","
","""event"",""trial"",""time""
""fullscreenenter"",""1"",""2514""
","
",,,,,,,,,,,,"[{""stimulus"":""run_exp/static/images/task_images/dig.jpg"",""time"":0.5999999046325684},{""stimulus"":""run_exp/static/images/task_images/land.jpg"",""time"":810.2999997138977},{""stimulus"":""run_exp/static/images/task_images/dig.jpg"",""time"":1613.4000000953674}]",[],6,,,,,,,,,,,,,,
harvest,168,509340,0.0-53.0-1.0,"""event"",""trial"",""time""
""fullscreenenter"",""1"",""2514""
","
","
","""event"",""trial"",""time""
""fullscreenenter"",""1"",""2514""
","
",,null,run_exp/static/images/task_images/gems/55.jpg,null,,,,,,,42,,,6,,,,,55,0.769649382,0.763636364,,,,,,,
decision,169,510489,0.0-53.0-2.0,"""event"",""trial"",""time""
""fullscreenenter"",""1"",""2514""
","
","
","""event"",""trial"",""time""
""fullscreenenter"",""1"",""2514""
","
",,1146.7,run_exp/static/images/task_images/land.jpg,65,,,,,,,42,,,6,,,,,,,,203861,1,3,FALSE,,,
dig,170,512361,0.0-54.0-0.0,"""event"",""trial"",""time""
""fullscreenenter"",""1"",""2514""
","
","
","""event"",""trial"",""time""
""fullscreenenter"",""1"",""2514""
","
",,,,,,,,,,,,"[{""stimulus"":""run_exp/static/images/task_images/dig.jpg"",""time"":0.5},{""stimulus"":""run_exp/static/images/task_images/land.jpg"",""time"":621.5999999046326},{""stimulus"":""run_exp/static/images/task_images/dig.jpg"",""time"":1238.8000001907349}]",[],6,,,,,,,,,,,,,,
harvest,171,513364,0.0-54.0-1.0,"""event"",""trial"",""time""
""fullscreenenter"",""1"",""2514""
","
","
","""event"",""trial"",""time""
""fullscreenenter"",""1"",""2514""
","
",,null,run_exp/static/images/task_images/gems/42.jpg,null,,,,,,,32,,,6,,,,,42,0.761608678,0.761904762,,,,,,,
decision,172,513616,0.0-54.0-2.0,"""event"",""trial"",""time""
""fullscreenenter"",""1"",""2514""
","
","
","""event"",""trial"",""time""
""fullscreenenter"",""1"",""2514""
","
",,248.5,run_exp/static/images/task_images/land.jpg,65,,,,,,,32,,,6,,,,,,,,206988,1,4,FALSE,,,
dig,173,516382,0.0-55.0-0.0,"""event"",""trial"",""time""
""fullscreenenter"",""1"",""2514""
","
","
","""event"",""trial"",""time""
""fullscreenenter"",""1"",""2514""
","
",,,,,,,,,,,,"[{""stimulus"":""run_exp/static/images/task_images/dig.jpg"",""time"":0.09999990463256836},{""stimulus"":""run_exp/static/images/task_images/land.jpg"",""time"":922.6999998092651},{""stimulus"":""run_exp/static/images/task_images/dig.jpg"",""time"":1839.5}]",[],6,,,,,,,,,,,,,,
harvest,174,517390,0.0-55.0-1.0,"""event"",""trial"",""time""
""fullscreenenter"",""1"",""2514""
","
","
","""event"",""trial"",""time""
""fullscreenenter"",""1"",""2514""
","
",,null,run_exp/static/images/task_images/gems/32.jpg,null,,,,,,,28,,,6,,,,,32,0.876647323,0.875,,,,,,,
decision,175,517404,0.0-55.0-2.0,"""event"",""trial"",""time""
""fullscreenenter"",""1"",""2514""
","
","
","""event"",""trial"",""time""
""fullscreenenter"",""1"",""2514""
","
",,8.5,run_exp/static/images/task_images/land.jpg,65,,,,,,,28,,,6,,,,,,,,210776,1,5,FALSE,,,
dig,176,520407,0.0-56.0-0.0,"""event"",""trial"",""time""
""fullscreenenter"",""1"",""2514""
","
","
","""event"",""trial"",""time""
""fullscreenenter"",""1"",""2514""
","
",,,,,,,,,,,,"[{""stimulus"":""run_exp/static/images/task_images/dig.jpg"",""time"":0.19999980926513672},{""stimulus"":""run_exp/static/images/task_images/land.jpg"",""time"":1003.4000000953674},{""stimulus"":""run_exp/static/images/task_images/dig.jpg"",""time"":2002.9000000953674}]",[],6,,,,,,,,,,,,,,
harvest,177,522249,0.0-56.0-1.0,"""event"",""trial"",""time""
""fullscreenenter"",""1"",""2514""
","
","
","""event"",""trial"",""time""
""fullscreenenter"",""1"",""2514""
","
",,null,run_exp/static/images/task_images/gems/28.jpg,null,,,,,,,21,,,6,,,,,28,0.753569419,0.75,,,,,,,
decision,178,522294,0.0-56.0-2.0,"""event"",""trial"",""time""
""fullscreenenter"",""1"",""2514""
","
","
","""event"",""trial"",""time""
""fullscreenenter"",""1"",""2514""
","
",,40.9000001,run_exp/static/images/task_images/land.jpg,65,,,,,,,21,,,6,,,,,,,,215666,1,6,FALSE,,,
dig,179,525270,0.0-57.0-0.0,"""event"",""trial"",""time""
""fullscreenenter"",""1"",""2514""
","
","
","""event"",""trial"",""time""
""fullscreenenter"",""1"",""2514""
","
",,,,,,,,,,,,"[{""stimulus"":""run_exp/static/images/task_images/dig.jpg"",""time"":0.6999998092651367},{""stimulus"":""run_exp/static/images/task_images/land.jpg"",""time"":990.5},{""stimulus"":""run_exp/static/images/task_images/dig.jpg"",""time"":1982.2999997138977}]",[],6,,,,,,,,,,,,,,
harvest,180,526280,0.0-57.0-1.0,"""event"",""trial"",""time""
""fullscreenenter"",""1"",""2514""
","
","
","""event"",""trial"",""time""
""fullscreenenter"",""1"",""2514""
","
",,null,run_exp/static/images/task_images/gems/21.jpg,null,,,,,,,17,,,6,,,,,21,0.820204807,0.80952381,,,,,,,
decision,181,527059,0.0-57.0-2.0,"""event"",""trial"",""time""
""fullscreenenter"",""1"",""2514""
","
","
","""event"",""trial"",""time""
""fullscreenenter"",""1"",""2514""
","
",,775.8000002,run_exp/static/images/task_images/land.jpg,65,,,,,,,17,,,6,,,,,,,,220431,1,7,FALSE,,,
dig,182,529299,0.0-58.0-0.0,"""event"",""trial"",""time""
""fullscreenenter"",""1"",""2514""
","
","
","""event"",""trial"",""time""
""fullscreenenter"",""1"",""2514""
","
",,,,,,,,,,,,"[{""stimulus"":""run_exp/static/images/task_images/dig.jpg"",""time"":0.5},{""stimulus"":""run_exp/static/images/task_images/land.jpg"",""time"":749.5},{""stimulus"":""run_exp/static/images/task_images/dig.jpg"",""time"":1492.5}]",[],6,,,,,,,,,,,,,,
harvest,183,530305,0.0-58.0-1.0,"""event"",""trial"",""time""
""fullscreenenter"",""1"",""2514""
","
","
","""event"",""trial"",""time""
""fullscreenenter"",""1"",""2514""
","
",,null,run_exp/static/images/task_images/gems/17.jpg,null,,,,,,,14,,,6,,,,,17,0.818970812,0.823529412,,,,,,,
decision,184,530564,0.0-58.0-2.0,"""event"",""trial"",""time""
""fullscreenenter"",""1"",""2514""
","
","
","""event"",""trial"",""time""
""fullscreenenter"",""1"",""2514""
","
",,255.5999999,run_exp/static/images/task_images/land.jpg,65,,,,,,,14,,,6,,,,,,,,223936,1,8,FALSE,,,
dig,185,533324,0.0-59.0-0.0,"""event"",""trial"",""time""
""fullscreenenter"",""1"",""2514""
","
","
","""event"",""trial"",""time""
""fullscreenenter"",""1"",""2514""
","
",,,,,,,,,,,,"[{""stimulus"":""run_exp/static/images/task_images/dig.jpg"",""time"":0.6999998092651367},{""stimulus"":""run_exp/static/images/task_images/land.jpg"",""time"":920.0999999046326},{""stimulus"":""run_exp/static/images/task_images/dig.jpg"",""time"":1837.5}]",[],6,,,,,,,,,,,,,,
harvest,186,534336,0.0-59.0-1.0,"""event"",""trial"",""time""
""fullscreenenter"",""1"",""2514""
","
","
","""event"",""trial"",""time""
""fullscreenenter"",""1"",""2514""
","
",,null,run_exp/static/images/task_images/gems/14.jpg,null,,,,,,,12,,,6,,,,,14,0.835504786,0.857142857,,,,,,,
decision,187,534476,0.0-59.0-2.0,"""event"",""trial"",""time""
""fullscreenenter"",""1"",""2514""
","
","
","""event"",""trial"",""time""
""fullscreenenter"",""1"",""2514""
","
",,139,run_exp/static/images/task_images/land.jpg,76,,,,,,,12,,,6,,,,,,,,227848,1,9,TRUE,,,
travel,188,544347,0.0-60.0-0.0,"""event"",""trial"",""time""
""fullscreenenter"",""1"",""2514""
","
","
","""event"",""trial"",""time""
""fullscreenenter"",""1"",""2514""
","
",,,,,,,,,,,,"[{""stimulus"":""run_exp/static/images/task_images/rocket-01.jpg"",""time"":0.5999999046325684},{""stimulus"":""run_exp/static/images/task_images/rocket-02.jpg"",""time"":1101.1999998092651},{""stimulus"":""run_exp/static/images/task_images/rocket-03.jpg"",""time"":2195.5999999046326},{""stimulus"":""run_exp/static/images/task_images/rocket-04.jpg"",""time"":3289.300000190735},{""stimulus"":""run_exp/static/images/task_images/rocket-05.jpg"",""time"":4390.300000190735},{""stimulus"":""run_exp/static/images/task_images/rocket-06.jpg"",""time"":5478.900000095367},{""stimulus"":""run_exp/static/images/task_images/rocket-07.jpg"",""time"":6579.900000095367},{""stimulus"":""run_exp/static/images/task_images/rocket-08.jpg"",""time"":7679.5},{""stimulus"":""run_exp/static/images/task_images/rocket-09.jpg"",""time"":8770.5}]",[],6,,,,,,,,,,,,,,
alien_welcome,189,549358,0.0-60.0-1.0,"""event"",""trial"",""time""
""fullscreenenter"",""1"",""2514""
","
","
","""event"",""trial"",""time""
""fullscreenenter"",""1"",""2514""
","
",,null,run_exp/static/images/task_images/aliens/old_aliens/planet/alien_planet-48.jpg,null,,,,,,,,,,,,,48,"26,12,79,58,64,19,48,72,67,35,6,37,59,61,69,7,25,40,28,63,41,8,70,20,80,22,43,32,45,71",,,,,,,,,,
land,190,549869,0.0-60.0-2.0,"""event"",""trial"",""time""
""fullscreenenter"",""1"",""2514""
","
","
","""event"",""trial"",""time""
""fullscreenenter"",""1"",""2514""
","
",,null,run_exp/static/images/task_images/land.jpg,null,,,,,,,103,,,7,,,,,,,,,,,,,,
dig,191,551881,0.0-60.0-3.0,"""event"",""trial"",""time""
""fullscreenenter"",""1"",""2514""
","
","
","""event"",""trial"",""time""
""fullscreenenter"",""1"",""2514""
","
",,,,,,,,,,,,"[{""stimulus"":""run_exp/static/images/task_images/dig.jpg"",""time"":0.9000000953674316},{""stimulus"":""run_exp/static/images/task_images/land.jpg"",""time"":675.1999998092651},{""stimulus"":""run_exp/static/images/task_images/dig.jpg"",""time"":1339.9000000953674}]",[],7,,,,,,,,,,,,,,
harvest,192,552890,0.0-60.0-4.0,"""event"",""trial"",""time""
""fullscreenenter"",""1"",""2514""
","
","
","""event"",""trial"",""time""
""fullscreenenter"",""1"",""2514""
","
",,null,run_exp/static/images/task_images/gems/103.jpg,null,,,,,,,90,,,7,,,,,103,0.872423961,0.873786408,,,,,,,
decision,193,553047,0.0-60.0-5.0,"""event"",""trial"",""time""
""fullscreenenter"",""1"",""2514""
","
","
","""event"",""trial"",""time""
""fullscreenenter"",""1"",""2514""
","
",,153.4000001,run_exp/static/images/task_images/land.jpg,65,,,,,,,90,,,7,,,,,,,,246419,1,0,FALSE,,,
dig,194,555910,0.0-61.0-0.0,"""event"",""trial"",""time""
""fullscreenenter"",""1"",""2514""
","
","
","""event"",""trial"",""time""
""fullscreenenter"",""1"",""2514""
","
",,,,,,,,,,,,"[{""stimulus"":""run_exp/static/images/task_images/dig.jpg"",""time"":0.5999999046325684},{""stimulus"":""run_exp/static/images/task_images/land.jpg"",""time"":956.3999996185303},{""stimulus"":""run_exp/static/images/task_images/dig.jpg"",""time"":1903.6999998092651}]",[],7,,,,,,,,,,,,,,
harvest,195,556915,0.0-61.0-1.0,"""event"",""trial"",""time""
""fullscreenenter"",""1"",""2514""
","
","
","""event"",""trial"",""time""
""fullscreenenter"",""1"",""2514""
","
",,null,run_exp/static/images/task_images/gems/90.jpg,null,,,,,,,68,,,7,,,,,90,0.751865795,0.755555556,,,,,,,
decision,196,556939,0.0-61.0-2.0,"""event"",""trial"",""time""
""fullscreenenter"",""1"",""2514""
","
","
","""event"",""trial"",""time""
""fullscreenenter"",""1"",""2514""
","
",,20.80000019,run_exp/static/images/task_images/land.jpg,65,,,,,,,68,,,7,,,,,,,,250311,1,1,FALSE,,,
dig,197,559944,0.0-62.0-0.0,"""event"",""trial"",""time""
""fullscreenenter"",""1"",""2514""
","
","
","""event"",""trial"",""time""
""fullscreenenter"",""1"",""2514""
","
",,,,,,,,,,,,"[{""stimulus"":""run_exp/static/images/task_images/dig.jpg"",""time"":0.7000002861022949},{""stimulus"":""run_exp/static/images/task_images/land.jpg"",""time"":1004},{""stimulus"":""run_exp/static/images/task_images/dig.jpg"",""time"":1996.2000002861023}]",[],7,,,,,,,,,,,,,,
harvest,198,560952,0.0-62.0-1.0,"""event"",""trial"",""time""
""fullscreenenter"",""1"",""2514""
","
","
","""event"",""trial"",""time""
""fullscreenenter"",""1"",""2514""
","
",,null,run_exp/static/images/task_images/gems/68.jpg,null,,,,,,,60,,,7,,,,,68,0.87586198,0.882352941,,,,,,,
decision,199,561172,0.0-62.0-2.0,"""event"",""trial"",""time""
""fullscreenenter"",""1"",""2514""
","
","
","""event"",""trial"",""time""
""fullscreenenter"",""1"",""2514""
","
",,218.2000003,run_exp/static/images/task_images/land.jpg,65,,,,,,,60,,,7,,,,,,,,254544,1,2,FALSE,,,
dig,200,563975,0.0-63.0-0.0,"""event"",""trial"",""time""
""fullscreenenter"",""1"",""2514""
","
","
","""event"",""trial"",""time""
""fullscreenenter"",""1"",""2514""
","
",,,,,,,,,,,,"[{""stimulus"":""run_exp/static/images/task_images/dig.jpg"",""time"":0.8000001907348633},{""stimulus"":""run_exp/static/images/task_images/land.jpg"",""time"":931.7000002861023},{""stimulus"":""run_exp/static/images/task_images/dig.jpg"",""time"":1864.1000003814697}]",[],7,,,,,,,,,,,,,,
harvest,201,564985,0.0-63.0-1.0,"""event"",""trial"",""time""
""fullscreenenter"",""1"",""2514""
","
","
","""event"",""trial"",""time""
""fullscreenenter"",""1"",""2514""
","
",,null,run_exp/static/images/task_images/gems/60.jpg,null,,,,,,,41,,,7,,,,,60,0.68817034,0.683333333,,,,,,,
decision,202,565406,0.0-63.0-2.0,"""event"",""trial"",""time""
""fullscreenenter"",""1"",""2514""
","
","
","""event"",""trial"",""time""
""fullscreenenter"",""1"",""2514""
","
",,418.0999999,run_exp/static/images/task_images/land.jpg,65,,,,,,,41,,,7,,,,,,,,258779,1,3,FALSE,,,
dig,203,568007,0.0-64.0-0.0,"""event"",""trial"",""time""
""fullscreenenter"",""1"",""2514""
","
","
","""event"",""trial"",""time""
""fullscreenenter"",""1"",""2514""
","
",,,,,,,,,,,,"[{""stimulus"":""run_exp/static/images/task_images/dig.jpg"",""time"":0.5999999046325684},{""stimulus"":""run_exp/static/images/task_images/land.jpg"",""time"":869.2999997138977},{""stimulus"":""run_exp/static/images/task_images/dig.jpg"",""time"":1730.5999999046326}]",[],7,,,,,,,,,,,,,,
harvest,204,569198,0.0-64.0-1.0,"""event"",""trial"",""time""
""fullscreenenter"",""1"",""2514""
","
","
","""event"",""trial"",""time""
""fullscreenenter"",""1"",""2514""
","
",,null,run_exp/static/images/task_images/gems/41.jpg,null,,,,,,,32,,,7,,,,,41,0.792049861,0.780487805,,,,,,,
decision,205,569583,0.0-64.0-2.0,"""event"",""trial"",""time""
""fullscreenenter"",""1"",""2514""
","
","
","""event"",""trial"",""time""
""fullscreenenter"",""1"",""2514""
","
",,382.7000003,run_exp/static/images/task_images/land.jpg,65,,,,,,,32,,,7,,,,,,,,262955,1,4,FALSE,,,
dig,206,572224,0.0-65.0-0.0,"""event"",""trial"",""time""
""fullscreenenter"",""1"",""2514""
","
","
","""event"",""trial"",""time""
""fullscreenenter"",""1"",""2514""
","
",,,,,,,,,,,,"[{""stimulus"":""run_exp/static/images/task_images/dig.jpg"",""time"":0.5},{""stimulus"":""run_exp/static/images/task_images/land.jpg"",""time"":877},{""stimulus"":""run_exp/static/images/task_images/dig.jpg"",""time"":1757.3000001907349}]",[],7,,,,,,,,,,,,,,
harvest,207,573229,0.0-65.0-1.0,"""event"",""trial"",""time""
""fullscreenenter"",""1"",""2514""
","
","
","""event"",""trial"",""time""
""fullscreenenter"",""1"",""2514""
","
",,null,run_exp/static/images/task_images/gems/32.jpg,null,,,,,,,26,,,7,,,,,32,0.820649246,0.8125,,,,,,,
decision,208,573594,0.0-65.0-2.0,"""event"",""trial"",""time""
""fullscreenenter"",""1"",""2514""
","
","
","""event"",""trial"",""time""
""fullscreenenter"",""1"",""2514""
","
",,361.2999997,run_exp/static/images/task_images/land.jpg,65,,,,,,,26,,,7,,,,,,,,266967,1,5,FALSE,,,
dig,209,576251,0.0-66.0-0.0,"""event"",""trial"",""time""
""fullscreenenter"",""1"",""2514""
","
","
","""event"",""trial"",""time""
""fullscreenenter"",""1"",""2514""
","
",,,,,,,,,,,,"[{""stimulus"":""run_exp/static/images/task_images/dig.jpg"",""time"":0.7000002861022949},{""stimulus"":""run_exp/static/images/task_images/land.jpg"",""time"":882.5},{""stimulus"":""run_exp/static/images/task_images/dig.jpg"",""time"":1777.3000001907349}]",[],7,,,,,,,,,,,,,,
harvest,210,577257,0.0-66.0-1.0,"""event"",""trial"",""time""
""fullscreenenter"",""1"",""2514""
","
","
","""event"",""trial"",""time""
""fullscreenenter"",""1"",""2514""
","
",,null,run_exp/static/images/task_images/gems/26.jpg,null,,,,,,,20,,,7,,,,,26,0.758790485,0.769230769,,,,,,,
decision,211,577637,0.0-66.0-2.0,"""event"",""trial"",""time""
""fullscreenenter"",""1"",""2514""
","
","
","""event"",""trial"",""time""
""fullscreenenter"",""1"",""2514""
","
",,378.6999998,run_exp/static/images/task_images/land.jpg,65,,,,,,,20,,,7,,,,,,,,271010,1,6,FALSE,,,
dig,212,580272,0.0-67.0-0.0,"""event"",""trial"",""time""
""fullscreenenter"",""1"",""2514""
","
","
","""event"",""trial"",""time""
""fullscreenenter"",""1"",""2514""
","
",,,,,,,,,,,,"[{""stimulus"":""run_exp/static/images/task_images/dig.jpg"",""time"":0.5},{""stimulus"":""run_exp/static/images/task_images/land.jpg"",""time"":880.3000001907349},{""stimulus"":""run_exp/static/images/task_images/dig.jpg"",""time"":1750.4000000953674}]",[],7,,,,,,,,,,,,,,
harvest,213,581278,0.0-67.0-1.0,"""event"",""trial"",""time""
""fullscreenenter"",""1"",""2514""
","
","
","""event"",""trial"",""time""
""fullscreenenter"",""1"",""2514""
","
",,null,run_exp/static/images/task_images/gems/20.jpg,null,,,,,,,17,,,7,,,,,20,0.856873651,0.85,,,,,,,
decision,214,581310,0.0-67.0-2.0,"""event"",""trial"",""time""
""fullscreenenter"",""1"",""2514""
","
","
","""event"",""trial"",""time""
""fullscreenenter"",""1"",""2514""
","
",,28.4000001,run_exp/static/images/task_images/land.jpg,65,,,,,,,17,,,7,,,,,,,,274682,1,7,FALSE,,,
dig,215,584299,0.0-68.0-0.0,"""event"",""trial"",""time""
""fullscreenenter"",""1"",""2514""
","
","
","""event"",""trial"",""time""
""fullscreenenter"",""1"",""2514""
","
",,,,,,,,,,,,"[{""stimulus"":""run_exp/static/images/task_images/dig.jpg"",""time"":0.5999999046325684},{""stimulus"":""run_exp/static/images/task_images/land.jpg"",""time"":995.8000001907349},{""stimulus"":""run_exp/static/images/task_images/dig.jpg"",""time"":1985.0999999046326}]",[],7,,,,,,,,,,,,,,
harvest,216,585308,0.0-68.0-1.0,"""event"",""trial"",""time""
""fullscreenenter"",""1"",""2514""
","
","
","""event"",""trial"",""time""
""fullscreenenter"",""1"",""2514""
","
",,null,run_exp/static/images/task_images/gems/17.jpg,null,,,,,,,15,,,7,,,,,17,0.862860872,0.882352941,,,,,,,
decision,217,585562,0.0-68.0-2.0,"""event"",""trial"",""time""
""fullscreenenter"",""1"",""2514""
","
","
","""event"",""trial"",""time""
""fullscreenenter"",""1"",""2514""
","
",,250.5,run_exp/static/images/task_images/land.jpg,65,,,,,,,15,,,7,,,,,,,,278934,1,8,FALSE,,,
dig,218,588328,0.0-69.0-0.0,"""event"",""trial"",""time""
""fullscreenenter"",""1"",""2514""
","
","
","""event"",""trial"",""time""
""fullscreenenter"",""1"",""2514""
","
",,,,,,,,,,,,"[{""stimulus"":""run_exp/static/images/task_images/dig.jpg"",""time"":1.1000003814697266},{""stimulus"":""run_exp/static/images/task_images/land.jpg"",""time"":926.4000000953674},{""stimulus"":""run_exp/static/images/task_images/dig.jpg"",""time"":1837.2000002861023}]",[],7,,,,,,,,,,,,,,
harvest,219,589333,0.0-69.0-1.0,"""event"",""trial"",""time""
""fullscreenenter"",""1"",""2514""
","
","
","""event"",""trial"",""time""
""fullscreenenter"",""1"",""2514""
","
",,null,run_exp/static/images/task_images/gems/15.jpg,null,,,,,,,11,,,7,,,,,15,0.763671372,0.733333333,,,,,,,
decision,220,589558,0.0-69.0-2.0,"""event"",""trial"",""time""
""fullscreenenter"",""1"",""2514""
","
","
","""event"",""trial"",""time""
""fullscreenenter"",""1"",""2514""
","
",,221.3000002,run_exp/static/images/task_images/land.jpg,65,,,,,,,11,,,7,,,,,,,,282930,1,9,FALSE,,,
dig,221,592354,0.0-70.0-0.0,"""event"",""trial"",""time""
""fullscreenenter"",""1"",""2514""
","
","
","""event"",""trial"",""time""
""fullscreenenter"",""1"",""2514""
","
",,,,,,,,,,,,"[{""stimulus"":""run_exp/static/images/task_images/dig.jpg"",""time"":0.5999999046325684},{""stimulus"":""run_exp/static/images/task_images/land.jpg"",""time"":930.7999997138977},{""stimulus"":""run_exp/static/images/task_images/dig.jpg"",""time"":1857.1999998092651}]",[],7,,,,,,,,,,,,,,
harvest,222,593357,0.0-70.0-1.0,"""event"",""trial"",""time""
""fullscreenenter"",""1"",""2514""
","
","
","""event"",""trial"",""time""
""fullscreenenter"",""1"",""2514""
","
",,null,run_exp/static/images/task_images/gems/11.jpg,null,,,,,,,10,,,7,,,,,11,0.869597765,0.909090909,,,,,,,
decision,223,593462,0.0-70.0-2.0,"""event"",""trial"",""time""
""fullscreenenter"",""1"",""2514""
","
","
","""event"",""trial"",""time""
""fullscreenenter"",""1"",""2514""
","
",,101.2999997,run_exp/static/images/task_images/land.jpg,65,,,,,,,10,,,7,,,,,,,,286834,1,10,FALSE,,,
dig,224,596379,0.0-71.0-0.0,"""event"",""trial"",""time""
""fullscreenenter"",""1"",""2514""
","
","
","""event"",""trial"",""time""
""fullscreenenter"",""1"",""2514""
","
",,,,,,,,,,,,"[{""stimulus"":""run_exp/static/images/task_images/dig.jpg"",""time"":0.5},{""stimulus"":""run_exp/static/images/task_images/land.jpg"",""time"":980.2000002861023},{""stimulus"":""run_exp/static/images/task_images/dig.jpg"",""time"":1941.4000000953674}]",[],7,,,,,,,,,,,,,,
harvest,225,597387,0.0-71.0-1.0,"""event"",""trial"",""time""
""fullscreenenter"",""1"",""2514""
","
","
","""event"",""trial"",""time""
""fullscreenenter"",""1"",""2514""
","
",,null,run_exp/static/images/task_images/gems/10.jpg,null,,,,,,,8,,,7,,,,,10,0.802715685,0.8,,,,,,,
decision,226,597741,0.0-71.0-2.0,"""event"",""trial"",""time""
""fullscreenenter"",""1"",""2514""
","
","
","""event"",""trial"",""time""
""fullscreenenter"",""1"",""2514""
","
",,351.0999999,run_exp/static/images/task_images/land.jpg,65,,,,,,,8,,,7,,,,,,,,291113,1,11,FALSE,,,
dig,227,600414,0.0-72.0-0.0,"""event"",""trial"",""time""
""fullscreenenter"",""1"",""2514""
","
","
","""event"",""trial"",""time""
""fullscreenenter"",""1"",""2514""
","
",,,,,,,,,,,,"[{""stimulus"":""run_exp/static/images/task_images/dig.jpg"",""time"":0.5},{""stimulus"":""run_exp/static/images/task_images/land.jpg"",""time"":892.9000000953674},{""stimulus"":""run_exp/static/images/task_images/dig.jpg"",""time"":1770.3000001907349}]",[],7,,,,,,,,,,,,,,
harvest,228,601419,0.0-72.0-1.0,"""event"",""trial"",""time""
""fullscreenenter"",""1"",""2514""
","
","
","""event"",""trial"",""time""
""fullscreenenter"",""1"",""2514""
","
",,null,run_exp/static/images/task_images/gems/8.jpg,null,,,,,,,7,,,7,,,,,8,0.873571105,0.875,,,,,,,
decision,229,601624,0.0-72.0-2.0,"""event"",""trial"",""time""
""fullscreenenter"",""1"",""2514""
","
","
","""event"",""trial"",""time""
""fullscreenenter"",""1"",""2514""
","
",,201.5999999,run_exp/static/images/task_images/land.jpg,76,,,,,,,7,,,7,,,,,,,,294997,1,12,TRUE,,,
travel,230,611432,0.0-73.0-0.0,"""event"",""trial"",""time""
""fullscreenenter"",""1"",""2514""
","
","
","""event"",""trial"",""time""
""fullscreenenter"",""1"",""2514""
","
",,,,,,,,,,,,"[{""stimulus"":""run_exp/static/images/task_images/rocket-01.jpg"",""time"":1},{""stimulus"":""run_exp/static/images/task_images/rocket-02.jpg"",""time"":1098.1999998092651},{""stimulus"":""run_exp/static/images/task_images/rocket-03.jpg"",""time"":2183.0999999046326},{""stimulus"":""run_exp/static/images/task_images/rocket-04.jpg"",""time"":3275.800000190735},{""stimulus"":""run_exp/static/images/task_images/rocket-05.jpg"",""time"":4360.599999904633},{""stimulus"":""run_exp/static/images/task_images/rocket-06.jpg"",""time"":5446.699999809265},{""stimulus"":""run_exp/static/images/task_images/rocket-07.jpg"",""time"":6533.900000095367},{""stimulus"":""run_exp/static/images/task_images/rocket-08.jpg"",""time"":7621},{""stimulus"":""run_exp/static/images/task_images/rocket-09.jpg"",""time"":8714.099999904633}]",[],7,,,,,,,,,,,,,,
alien_welcome,231,616440,0.0-73.0-1.0,"""event"",""trial"",""time""
""fullscreenenter"",""1"",""2514""
","
","
","""event"",""trial"",""time""
""fullscreenenter"",""1"",""2514""
","
",,null,run_exp/static/images/task_images/aliens/old_aliens/planet/alien_planet-72.jpg,null,,,,,,,,,,,,,72,"26,12,79,58,64,19,48,72,67,35,6,37,59,61,69,7,25,40,28,63,41,8,70,20,80,22,43,32,45,71",,,,,,,,,,
land,232,616959,0.0-73.0-2.0,"""event"",""trial"",""time""
""fullscreenenter"",""1"",""2514""
","
","
","""event"",""trial"",""time""
""fullscreenenter"",""1"",""2514""
","
",,null,run_exp/static/images/task_images/land.jpg,null,,,,,,,104,,,8,,,,,,,,,,,,,,
dig,233,618971,0.0-73.0-3.0,"""event"",""trial"",""time""
""fullscreenenter"",""1"",""2514""
","
","
","""event"",""trial"",""time""
""fullscreenenter"",""1"",""2514""
","
",,,,,,,,,,,,"[{""stimulus"":""run_exp/static/images/task_images/dig.jpg"",""time"":0.6999998092651367},{""stimulus"":""run_exp/static/images/task_images/land.jpg"",""time"":680.1999998092651},{""stimulus"":""run_exp/static/images/task_images/dig.jpg"",""time"":1344.0999999046326}]",[],8,,,,,,,,,,,,,,
harvest,234,619980,0.0-73.0-4.0,"""event"",""trial"",""time""
""fullscreenenter"",""1"",""2514""
","
","
","""event"",""trial"",""time""
""fullscreenenter"",""1"",""2514""
","
",,null,run_exp/static/images/task_images/gems/104.jpg,null,,,,,,,86,,,8,,,,,104,0.829597088,0.826923077,,,,,,,
decision,235,620173,0.0-73.0-5.0,"""event"",""trial"",""time""
""fullscreenenter"",""1"",""2514""
","
","
","""event"",""trial"",""time""
""fullscreenenter"",""1"",""2514""
","
",,189.3000002,run_exp/static/images/task_images/land.jpg,65,,,,,,,86,,,8,,,,,,,,313545,1,0,TRUE,,,
end_of_block_continue,236,629066,0.0-74.0-0.0,"""event"",""trial"",""time""
""fullscreenenter"",""1"",""2514""
","
","
","""event"",""trial"",""time""
""fullscreenenter"",""1"",""2514""
","
",,null,run_exp/static/audio/clip_32_block_end.m4a,,,,,,,null,,,,,,,,,,,,,,,,,,
alien_welcome,237,634090,0.0-75.0-0.0,"""event"",""trial"",""time""
""fullscreenenter"",""1"",""2514""
","
","
","""event"",""trial"",""time""
""fullscreenenter"",""1"",""2514""
","
",,null,run_exp/static/images/task_images/aliens/old_aliens/planet/alien_planet-67.jpg,null,,,,,,,,,,,,,67,"26,12,79,58,64,19,48,72,67,35,6,37,59,61,69,7,25,40,28,63,41,8,70,20,80,22,43,32,45,71",,,,,,,,,,
land,238,634596,0.0-75.0-1.0,"""event"",""trial"",""time""
""fullscreenenter"",""1"",""2514""
","
","
","""event"",""trial"",""time""
""fullscreenenter"",""1"",""2514""
","
",,null,run_exp/static/images/task_images/land.jpg,null,,,,,,,103,,,9,,,,,,,,,,,,,,
dig,239,636605,0.0-75.0-2.0,"""event"",""trial"",""time""
""fullscreenenter"",""1"",""2514""
","
","
","""event"",""trial"",""time""
""fullscreenenter"",""1"",""2514""
","
",,,,,,,,,,,,"[{""stimulus"":""run_exp/static/images/task_images/dig.jpg"",""time"":0.7000002861022949},{""stimulus"":""run_exp/static/images/task_images/land.jpg"",""time"":680.4000000953674},{""stimulus"":""run_exp/static/images/task_images/dig.jpg"",""time"":1341.9000000953674}]",[],9,,,,,,,,,,,,,,
harvest,240,637612,0.0-75.0-3.0,"""event"",""trial"",""time""
""fullscreenenter"",""1"",""2514""
","
","
","""event"",""trial"",""time""
""fullscreenenter"",""1"",""2514""
","
",,null,run_exp/static/images/task_images/gems/103.jpg,null,,,,,,,15,,,9,,,,,103,0.140901377,0.145631068,,,,,,,
decision,241,638111,0.0-75.0-4.0,"""event"",""trial"",""time""
""fullscreenenter"",""1"",""2514""
","
","
","""event"",""trial"",""time""
""fullscreenenter"",""1"",""2514""
","
",,495.8999996,run_exp/static/images/task_images/land.jpg,65,,,,,,,15,,,9,,,,,,,,9028,2,0,FALSE,,,
dig,242,640627,0.0-76.0-0.0,"""event"",""trial"",""time""
""fullscreenenter"",""1"",""2514""
","
","
","""event"",""trial"",""time""
""fullscreenenter"",""1"",""2514""
","
",,,,,,,,,,,,"[{""stimulus"":""run_exp/static/images/task_images/dig.jpg"",""time"":0.8000001907348633},{""stimulus"":""run_exp/static/images/task_images/land.jpg"",""time"":841.9000000953674},{""stimulus"":""run_exp/static/images/task_images/dig.jpg"",""time"":1684.3000001907349}]",[],9,,,,,,,,,,,,,,
harvest,243,641640,0.0-76.0-1.0,"""event"",""trial"",""time""
""fullscreenenter"",""1"",""2514""
","
","
","""event"",""trial"",""time""
""fullscreenenter"",""1"",""2514""
","
",,null,run_exp/static/images/task_images/gems/15.jpg,null,,,,,,,3,,,9,,,,,15,0.22931922,0.2,,,,,,,
decision,244,641908,0.0-76.0-2.0,"""event"",""trial"",""time""
""fullscreenenter"",""1"",""2514""
","
","
","""event"",""trial"",""time""
""fullscreenenter"",""1"",""2514""
","
",,264.6999998,run_exp/static/images/task_images/land.jpg,65,,,,,,,3,,,9,,,,,,,,12825,2,1,FALSE,,,
dig,245,644662,0.0-77.0-0.0,"""event"",""trial"",""time""
""fullscreenenter"",""1"",""2514""
","
","
","""event"",""trial"",""time""
""fullscreenenter"",""1"",""2514""
","
",,,,,,,,,,,,"[{""stimulus"":""run_exp/static/images/task_images/dig.jpg"",""time"":0.6999998092651367},{""stimulus"":""run_exp/static/images/task_images/land.jpg"",""time"":916.0999999046326},{""stimulus"":""run_exp/static/images/task_images/dig.jpg"",""time"":1831.1999998092651}]",[],9,,,,,,,,,,,,,,
harvest,246,645670,0.0-77.0-1.0,"""event"",""trial"",""time""
""fullscreenenter"",""1"",""2514""
","
","
","""event"",""trial"",""time""
""fullscreenenter"",""1"",""2514""
","
",,null,run_exp/static/images/task_images/gems/3.jpg,null,,,,,,,1,,,9,,,,,3,0.268880946,0.333333333,,,,,,,
decision,247,646130,0.0-77.0-2.0,"""event"",""trial"",""time""
""fullscreenenter"",""1"",""2514""
","
","
","""event"",""trial"",""time""
""fullscreenenter"",""1"",""2514""
","
",,457.7000003,run_exp/static/images/task_images/land.jpg,76,,,,,,,1,,,9,,,,,,,,17048,2,2,TRUE,,,
travel,248,655686,0.0-78.0-0.0,"""event"",""trial"",""time""
""fullscreenenter"",""1"",""2514""
","
","
","""event"",""trial"",""time""
""fullscreenenter"",""1"",""2514""
","
",,,,,,,,,,,,"[{""stimulus"":""run_exp/static/images/task_images/rocket-01.jpg"",""time"":0.5},{""stimulus"":""run_exp/static/images/task_images/rocket-02.jpg"",""time"":1070.9000000953674},{""stimulus"":""run_exp/static/images/task_images/rocket-03.jpg"",""time"":2127.5},{""stimulus"":""run_exp/static/images/task_images/rocket-04.jpg"",""time"":3185.5},{""stimulus"":""run_exp/static/images/task_images/rocket-05.jpg"",""time"":4249.700000286102},{""stimulus"":""run_exp/static/images/task_images/rocket-06.jpg"",""time"":5307.400000095367},{""stimulus"":""run_exp/static/images/task_images/rocket-07.jpg"",""time"":6365.599999904633},{""stimulus"":""run_exp/static/images/task_images/rocket-08.jpg"",""time"":7428.099999904633},{""stimulus"":""run_exp/static/images/task_images/rocket-09.jpg"",""time"":8490.900000095367}]",[],9,,,,,,,,,,,,,,
alien_welcome,249,660699,0.0-78.0-1.0,"""event"",""trial"",""time""
""fullscreenenter"",""1"",""2514""
","
","
","""event"",""trial"",""time""
""fullscreenenter"",""1"",""2514""
","
",,null,run_exp/static/images/task_images/aliens/old_aliens/planet/alien_planet-35.jpg,null,,,,,,,,,,,,,35,"26,12,79,58,64,19,48,72,67,35,6,37,59,61,69,7,25,40,28,63,41,8,70,20,80,22,43,32,45,71",,,,,,,,,,
land,250,661206,0.0-78.0-2.0,"""event"",""trial"",""time""
""fullscreenenter"",""1"",""2514""
","
","
","""event"",""trial"",""time""
""fullscreenenter"",""1"",""2514""
","
",,null,run_exp/static/images/task_images/land.jpg,null,,,,,,,95,,,10,,,,,,,,,,,,,,
dig,251,663217,0.0-78.0-3.0,"""event"",""trial"",""time""
""fullscreenenter"",""1"",""2514""
","
","
","""event"",""trial"",""time""
""fullscreenenter"",""1"",""2514""
","
