trial_type,trial_index,time_elapsed,internal_node_id,interactions,blur_events,focus_events,fullscreenenter_events,fullscreenexit_events,success,rt,stimulus,key_press,prompt,subject_id,participant_id,age,gender,button_pressed,next_reward,animation_sequence,responses,planet,curr_prac_trial,n_prac_rounds,alien,aliens,reward_received,decay_rate_actual,decay_rate_exp,time_in_block,block_num,prt,last_trial_on_planet,button_html,bonus,num_failures
pavlovia,0,4,0.0-0.0,"""event"",""trial"",""time""
""fullscreenenter"",""1"",""3652""
","
","
","""event"",""trial"",""time""
""fullscreenenter"",""1"",""3652""
","
",,,,,,,,,,,,,,,,,,,,,,,,,,,,
fullscreen,1,4610,0.0-1.0,"""event"",""trial"",""time""
""fullscreenenter"",""1"",""3652""
","
","
","""event"",""trial"",""time""
""fullscreenenter"",""1"",""3652""
","
",TRUE,,,,,,,,,,,,,,,,,,,,,,,,,,,
instruc_welcome,2,15628,0.0-2.0,"""event"",""trial"",""time""
""fullscreenenter"",""1"",""3652""
","
","
","""event"",""trial"",""time""
""fullscreenenter"",""1"",""3652""
","
",,null,run_exp/static/audio/clip_1_welcome.m4a,null,"<p>Howdy! In this experiment, you’ll be an explorer traveling through space to collect space treasure.</p><p>Your mission is to collect as much treasure as possible.</p><br><br><p><img src='run_exp/static/images/task_images/opening_img-01.jpg' height='300' width='auto'></p>",12546,294,23.83,Female,,,,,,,,,,,,,,,,,,,
audio-keyboard-response,3,32267,0.0-3.0,"""event"",""trial"",""time""
""fullscreenenter"",""1"",""3652""
","
","
","""event"",""trial"",""time""
""fullscreenenter"",""1"",""3652""
","
",,null,run_exp/static/audio/clip_2_move.m4a,null,,,,,,,,,,,,,,,,,,,,,,,,
welcome_dec,4,39925,0.0-4.0,"""event"",""trial"",""time""
""fullscreenenter"",""1"",""3652""
","
","
","""event"",""trial"",""time""
""fullscreenenter"",""1"",""3652""
","
",,7654.3,"<p>Howdy! In this experiment, you’ll be an explorer traveling through space to collect space treasure.</p><p>Your mission is to collect as much treasure as possible.</p><br><br><p><img src='run_exp/static/images/task_images/opening_img-01.jpg' height='300' width='auto'></p>",,,,,,,1,,,,,,,,,,,,,,,,,,
html-keyboard-response,5,41800,0.0-5.0,"""event"",""trial"",""time""
""fullscreenenter"",""1"",""3652""
","
","
","""event"",""trial"",""time""
""fullscreenenter"",""1"",""3652""
","
",,1873.6,"<p>Howdy! In this experiment, you’ll be an explorer traveling through space to collect space treasure.</p><p>Your mission is to collect as much treasure as possible.</p><br><br><p><img src='run_exp/static/images/task_images/opening_img-01.jpg' height='300' width='auto'></p><button class=""jspsych-html-btn-unchosen""><img src=""run_exp/static/images/task_images/planet-01.jpg"" height=""50""></button><button class=""jspsych-html-btn-chosen""><img src=""run_exp/static/images/task_images/planet-02.jpg"" height=""50""></button><p><b>[press the space bar to lock in your answer]<b><br></p>",32,,,,,,,,,,,,,,,,,,,,,,,,
instruc_goal,6,51887,0.0-6.0-0.0,"""event"",""trial"",""time""
""fullscreenenter"",""1"",""3652""
","
","
","""event"",""trial"",""time""
""fullscreenenter"",""1"",""3652""
","
",,null,run_exp/static/audio/clip_3_goal.m4a,null,"<p> As a space explorer, you’ll visit different planets to dig for space treasure, these pink gems.</p> <p> The more treasure you dig up, the more bonus money you’ll win! </p><br><br><p><img src='run_exp/static/images/task_images/pink_gem.jpg' height='300' width='auto'></p>",,,,,,,,,,,,,,,,,,,,,,,
instruc_goal,7,64630,0.0-6.0-1.0,"""event"",""trial"",""time""
""fullscreenenter"",""1"",""3652""
","
","
","""event"",""trial"",""time""
""fullscreenenter"",""1"",""3652""
","
",,12742.2,"<p> As a space explorer, you’ll visit different planets to dig for space treasure, these pink gems.</p> <p> The more treasure you dig up, the more bonus money you’ll win! </p><br><br><p><img src='run_exp/static/images/task_images/pink_gem.jpg' height='300' width='auto'></p>",,,,,,,1,,,,,,,,,,,,,,,,,,
html-keyboard-response,8,65355,0.0-6.0-2.0,"""event"",""trial"",""time""
""fullscreenenter"",""1"",""3652""
","
","
","""event"",""trial"",""time""
""fullscreenenter"",""1"",""3652""
","
",,722.8,"<p> As a space explorer, you’ll visit different planets to dig for space treasure, these pink gems.</p> <p> The more treasure you dig up, the more bonus money you’ll win! </p><br><br><p><img src='run_exp/static/images/task_images/pink_gem.jpg' height='300' width='auto'></p><button class=""jspsych-html-btn-unchosen""><img src=""run_exp/static/images/task_images/planet-01.jpg"" height=""50""></button><button class=""jspsych-html-btn-chosen""><img src=""run_exp/static/images/task_images/planet-02.jpg"" height=""50""></button><p><b>[press the space bar to lock in your answer]<b><br></p>",32,,,,,,,,,,,,,,,,,,,,,,,,
instruc_dig,9,81355,0.0-7.0-0.0,"""event"",""trial"",""time""
""fullscreenenter"",""1"",""3652""
","
","
","""event"",""trial"",""time""
""fullscreenenter"",""1"",""3652""
","
",,null,run_exp/static/audio/clip_4_dig.m4a,null,,,,,,,100,,,,,,,,,,,,,,,,,
instruc_dig_try,10,83047,0.0-7.0-1.0,"""event"",""trial"",""time""
""fullscreenenter"",""1"",""3652""
","
","
","""event"",""trial"",""time""
""fullscreenenter"",""1"",""3652""
","
",,1691,"<p> When you’ve arrived at a new planet, you will dig once. </p> <p>Then, you get to decide if you want to stay on the planet and dig again or travel to a new planet and dig there.</p> <p> To stay and dig, press the letter <strong>‘A’</strong> on your keyboard. Try pressing it now! </p><p><img src='run_exp/static/images/task_images/land.jpg'  height='700' width='auto'></p>",65,"<p> When you’ve arrived at a new planet, you will dig once. </p> <p>Then, you get to decide if you want to stay on the planet and dig again or travel to a new planet and dig there.</p> <p> To stay and dig, press the letter <strong>‘A’</strong> on your keyboard. Try pressing it now! </p><p><img src='run_exp/static/images/task_images/land.jpg'  height='700' width='auto'></p>",,,,,,100,,,,,,,,,,,,,,,,,
dig_prac,11,85070,0.0-7.0-2.0,"""event"",""trial"",""time""
""fullscreenenter"",""1"",""3652""
","
","
","""event"",""trial"",""time""
""fullscreenenter"",""1"",""3652""
","
",,,,,,,,,,,,"[{""stimulus"":""run_exp/static/images/task_images/dig.jpg"",""time"":0.2999999523162842},{""stimulus"":""run_exp/static/images/task_images/land.jpg"",""time"":675.5},{""stimulus"":""run_exp/static/images/task_images/dig.jpg"",""time"":1343}]",[],,,,,,,,,,,,,,,
instruc_travel,12,121354,0.0-7.0-3.0,"""event"",""trial"",""time""
""fullscreenenter"",""1"",""3652""
","
","
","""event"",""trial"",""time""
""fullscreenenter"",""1"",""3652""
","
",,null,run_exp/static/audio/clip_5_travel.m4a,null,"<p>Every time you dig up gems, there are less gems on the planet, so the more you dig on a planet the fewer gems you’ll get with each dig.</p><p>When gems are running low, you may want to travel to a new planet. </p> <p>  Planets are very far apart in this galaxy, so it will take some time to travel between them. </p> <br><p>There are lots and lots of planets for you to visit, so you won’t be able to return to any planets you’ve seen before. </p><br><p>To leave this planet and travel to a new one, press the letter <strong>‘L’</strong> on your keyboard. Try pressing it now! </p><p><img src='run_exp/static/images/task_images/rocket-01.jpg'  height='600' width='auto'></p>",,,,,,,,,,,,,,,,,,,,,,,
instruc_travel_try,13,122224,0.0-7.0-4.0,"""event"",""trial"",""time""
""fullscreenenter"",""1"",""3652""
","
","
","""event"",""trial"",""time""
""fullscreenenter"",""1"",""3652""
","
",,867.5,"<p>Every time you dig up gems, there are less gems on the planet, so the more you dig on a planet the fewer gems you’ll get with each dig.</p><p>When gems are running low, you may want to travel to a new planet. </p> <p>  Planets are very far apart in this galaxy, so it will take some time to travel between them. </p> <br><p>There are lots and lots of planets for you to visit, so you won’t be able to return to any planets you’ve seen before. </p><br><p>To leave this planet and travel to a new one, press the letter <strong>‘L’</strong> on your keyboard. Try pressing it now! </p><p><img src='run_exp/static/images/task_images/rocket-01.jpg'  height='600' width='auto'></p>",76,"<p>Every time you dig up gems, there are less gems on the planet, so the more you dig on a planet the fewer gems you’ll get with each dig.</p><p>When gems are running low, you may want to travel to a new planet. </p> <p>  Planets are very far apart in this galaxy, so it will take some time to travel between them. </p> <br><p>There are lots and lots of planets for you to visit, so you won’t be able to return to any planets you’ve seen before. </p><br><p>To leave this planet and travel to a new one, press the letter <strong>‘L’</strong> on your keyboard. Try pressing it now! </p><p><img src='run_exp/static/images/task_images/rocket-01.jpg'  height='600' width='auto'></p>",,,,,,,,,,,,,,,,,,,,,,,
travel_prac,14,132236,0.0-7.0-5.0,"""event"",""trial"",""time""
""fullscreenenter"",""1"",""3652""
","
","
","""event"",""trial"",""time""
""fullscreenenter"",""1"",""3652""
","
",,,,,,,,,,,,"[{""stimulus"":""run_exp/static/images/task_images/rocket-01.jpg"",""time"":0.20000004768371582},{""stimulus"":""run_exp/static/images/task_images/rocket-02.jpg"",""time"":1125},{""stimulus"":""run_exp/static/images/task_images/rocket-03.jpg"",""time"":2233.600000023842},{""stimulus"":""run_exp/static/images/task_images/rocket-04.jpg"",""time"":3343},{""stimulus"":""run_exp/static/images/task_images/rocket-05.jpg"",""time"":4448.399999976158},{""stimulus"":""run_exp/static/images/task_images/rocket-06.jpg"",""time"":5566},{""stimulus"":""run_exp/static/images/task_images/rocket-07.jpg"",""time"":6674.100000023842},{""stimulus"":""run_exp/static/images/task_images/rocket-08.jpg"",""time"":7780.100000023842},{""stimulus"":""run_exp/static/images/task_images/rocket-09.jpg"",""time"":8889.899999976158}]",[],0,,,,,,,,,,,,,,
instruc_alien_greet,15,159445,0.0-7.0-6.0,"""event"",""trial"",""time""
""fullscreenenter"",""1"",""3652""
","
","
","""event"",""trial"",""time""
""fullscreenenter"",""1"",""3652""
","
",,null,run_exp/static/audio/clip_6_alien.m4a,null,"<p>When you arrive at a new planet, the alien who owns the treasure mine on that planet will greet you!</p><p>The better an alien takes care of their mine the easier it is to dig for gems. Some aliens take better care of their mine than others. So, you won’t get exactly the same amount of gems on each planet.</p><p>What the alien looks like does not tell you anything about how many gems there are on the planet.</p><br><p><img src=""run_exp/static/images/task_images/aliens/instructions_aliens/planet/alien_planet-1.jpg""  height=""600"" width=""auto""></p>",,,,,,,,,,,,,,,,,,,,,,,
instruc_alien_greet,16,167914,0.0-7.0-7.0,"""event"",""trial"",""time""
""fullscreenenter"",""1"",""3652""
","
","
","""event"",""trial"",""time""
""fullscreenenter"",""1"",""3652""
","
",,8466.7,"<p>When you arrive at a new planet, the alien who owns the treasure mine on that planet will greet you!</p><p>The better an alien takes care of their mine the easier it is to dig for gems. Some aliens take better care of their mine than others. So, you won’t get exactly the same amount of gems on each planet.</p><p>What the alien looks like does not tell you anything about how many gems there are on the planet.</p><br><p><img src=""run_exp/static/images/task_images/aliens/instructions_aliens/planet/alien_planet-1.jpg""  height=""600"" width=""auto""></p>",,,,,,,1,,,,,,,,,,,,,,,,,,
html-keyboard-response,17,168914,0.0-7.0-8.0,"""event"",""trial"",""time""
""fullscreenenter"",""1"",""3652""
","
","
","""event"",""trial"",""time""
""fullscreenenter"",""1"",""3652""
","
",,998.3000001,"<p>When you arrive at a new planet, the alien who owns the treasure mine on that planet will greet you!</p><p>The better an alien takes care of their mine the easier it is to dig for gems. Some aliens take better care of their mine than others. So, you won’t get exactly the same amount of gems on each planet.</p><p>What the alien looks like does not tell you anything about how many gems there are on the planet.</p><br><p><img src=""run_exp/static/images/task_images/aliens/instructions_aliens/planet/alien_planet-1.jpg""  height=""600"" width=""auto""></p><button class=""jspsych-html-btn-unchosen""><img src=""run_exp/static/images/task_images/planet-01.jpg"" height=""50""></button><button class=""jspsych-html-btn-chosen""><img src=""run_exp/static/images/task_images/planet-02.jpg"" height=""50""></button><p><b>[press the space bar to lock in your answer]<b><br></p>",32,,,,,,,,,,,,,,,,,,,,,,,,
time_out,18,180064,0.0-8.0-0.0,"""event"",""trial"",""time""
""fullscreenenter"",""1"",""3652""
","
","
","""event"",""trial"",""time""
""fullscreenenter"",""1"",""3652""
","
",,null,run_exp/static/audio/clip_7_timeout.m4a,null,"<p>If you don't make your choice fast enough, you’ll have to wait a few seconds before you can make another one.</p><p>You can’t dig for more gems or travel to new planets. You just have to sit and wait.</p><br><p><img src='run_exp/static/images/task_images/time_out.jpg'  height='600' width='auto'></p>",,,,,,,,,,,,,,,,,,,,,,,
time_out,19,181367,0.0-8.0-1.0,"""event"",""trial"",""time""
""fullscreenenter"",""1"",""3652""
","
","
","""event"",""trial"",""time""
""fullscreenenter"",""1"",""3652""
","
",,1300,"<p>If you don't make your choice fast enough, you’ll have to wait a few seconds before you can make another one.</p><p>You can’t dig for more gems or travel to new planets. You just have to sit and wait.</p><br><p><img src='run_exp/static/images/task_images/time_out.jpg'  height='600' width='auto'></p>",,,,,,,1,,,,,,,,,,,,,,,,,,
html-keyboard-response,20,182705,0.0-8.0-2.0,"""event"",""trial"",""time""
""fullscreenenter"",""1"",""3652""
","
","
","""event"",""trial"",""time""
""fullscreenenter"",""1"",""3652""
","
",,1336.8,"<p>If you don't make your choice fast enough, you’ll have to wait a few seconds before you can make another one.</p><p>You can’t dig for more gems or travel to new planets. You just have to sit and wait.</p><br><p><img src='run_exp/static/images/task_images/time_out.jpg'  height='600' width='auto'></p><button class=""jspsych-html-btn-unchosen""><img src=""run_exp/static/images/task_images/planet-01.jpg"" height=""50""></button><button class=""jspsych-html-btn-chosen""><img src=""run_exp/static/images/task_images/planet-02.jpg"" height=""50""></button><p><b>[press the space bar to lock in your answer]<b><br></p>",32,,,,,,,,,,,,,,,,,,,,,,,,
instruc_break,21,198385,0.0-9.0-0.0,"""event"",""trial"",""time""
""fullscreenenter"",""1"",""3652""
","
","
","""event"",""trial"",""time""
""fullscreenenter"",""1"",""3652""
","
",,null,run_exp/static/audio/clip_8_break.m4a,null,"<p> After digging and traveling for a while, you’ll be able to take a break at home base. </p><p>The game will last 20 minutes no matter what.</p><p>You will visit home base every 5 minutes, so, you will visit home base three times during the game.</p><br><p><img src='run_exp/static/images/task_images/home_base.jpg' height='600' width='auto'></p>",,,,,,,,,,,,,,,,,,,,,,,
instruc_break,22,199917,0.0-9.0-1.0,"""event"",""trial"",""time""
""fullscreenenter"",""1"",""3652""
","
","
","""event"",""trial"",""time""
""fullscreenenter"",""1"",""3652""
","
",,1529.2,"<p> After digging and traveling for a while, you’ll be able to take a break at home base. </p><p>The game will last 20 minutes no matter what.</p><p>You will visit home base every 5 minutes, so, you will visit home base three times during the game.</p><br><p><img src='run_exp/static/images/task_images/home_base.jpg' height='600' width='auto'></p>",,,,,,,1,,,,,,,,,,,,,,,,,,
html-keyboard-response,23,200639,0.0-9.0-2.0,"""event"",""trial"",""time""
""fullscreenenter"",""1"",""3652""
","
","
","""event"",""trial"",""time""
""fullscreenenter"",""1"",""3652""
","
",,720.6,"<p> After digging and traveling for a while, you’ll be able to take a break at home base. </p><p>The game will last 20 minutes no matter what.</p><p>You will visit home base every 5 minutes, so, you will visit home base three times during the game.</p><br><p><img src='run_exp/static/images/task_images/home_base.jpg' height='600' width='auto'></p><button class=""jspsych-html-btn-unchosen""><img src=""run_exp/static/images/task_images/planet-01.jpg"" height=""50""></button><button class=""jspsych-html-btn-chosen""><img src=""run_exp/static/images/task_images/planet-02.jpg"" height=""50""></button><p><b>[press the space bar to lock in your answer]<b><br></p>",32,,,,,,,,,,,,,,,,,,,,,,,,
instruc_prac_game,24,210786,0.0-10.0-0.0,"""event"",""trial"",""time""
""fullscreenenter"",""1"",""3652""
","
","
","""event"",""trial"",""time""
""fullscreenenter"",""1"",""3652""
","
",,null,run_exp/static/audio/clip_9_practice.m4a,null,"<p> Are you ready to play a practice game? </p> <p>In this practice game, you'll be digging up barrels of gems. But, in the real game, you'll be digging up the gems themselves. </p>",,,,,,,,,,,,,,,,,,,,,,,
html-button-response,25,211949,0.0-10.0-1.0,"""event"",""trial"",""time""
""fullscreenenter"",""1"",""3652""
","
","
","""event"",""trial"",""time""
""fullscreenenter"",""1"",""3652""
","
",,1161.8,"<p> Are you ready to play a practice game? </p> <p>In this practice game, you'll be digging up barrels of gems. But, in the real game, you'll be digging up the gems themselves. </p>",,,,,,,0,,,,,,,,,,,,,,,,,,
alien_welcome_prac,26,216956,0.0-11.0-0.0,"""event"",""trial"",""time""
""fullscreenenter"",""1"",""3652""
","
","
","""event"",""trial"",""time""
""fullscreenenter"",""1"",""3652""
","
",,null,run_exp/static/images/task_images/aliens/practice_aliens/planet/alien_planet-5.jpg,null,,,,,,,,,,,,,,,,,,,,,,,,
land_prac,27,217462,0.0-11.0-1.0,"""event"",""trial"",""time""
""fullscreenenter"",""1"",""3652""
","
","
","""event"",""trial"",""time""
""fullscreenenter"",""1"",""3652""
","
",,null,run_exp/static/images/task_images/land.jpg,null,,,,,,,116,,,0,,,,,,,,,,,,,,
dig_prac,28,219479,0.0-11.0-2.0,"""event"",""trial"",""time""
""fullscreenenter"",""1"",""3652""
","
","
","""event"",""trial"",""time""
""fullscreenenter"",""1"",""3652""
","
",,,,,,,,,,,,"[{""stimulus"":""run_exp/static/images/task_images/dig.jpg"",""time"":0.3999999761581421},{""stimulus"":""run_exp/static/images/task_images/land.jpg"",""time"":669.7999999523163},{""stimulus"":""run_exp/static/images/task_images/dig.jpg"",""time"":1345.5}]",[],,,,,,,,,,,,,,,
harvest_prac,29,220490,0.0-11.0-3.0,"""event"",""trial"",""time""
""fullscreenenter"",""1"",""3652""
","
","
","""event"",""trial"",""time""
""fullscreenenter"",""1"",""3652""
","
",,null,run_exp/static/images/task_images/barrel_text.jpg,null,,,,,,,,,,,,,,,,,,,,,,,,
decision_prac,30,221073,0.0-11.0-4.0,"""event"",""trial"",""time""
""fullscreenenter"",""1"",""3652""
","
","
","""event"",""trial"",""time""
""fullscreenenter"",""1"",""3652""
","
",,581,run_exp/static/images/task_images/land.jpg,65,,,,,,,,,,,1,,,,,,,,,,,,,
dig_prac,31,223093,0.0-12.0-0.0,"""event"",""trial"",""time""
""fullscreenenter"",""1"",""3652""
","
","
","""event"",""trial"",""time""
""fullscreenenter"",""1"",""3652""
","
",,,,,,,,,,,,"[{""stimulus"":""run_exp/static/images/task_images/dig.jpg"",""time"":0.30000007152557373},{""stimulus"":""run_exp/static/images/task_images/land.jpg"",""time"":673.6000000238419},{""stimulus"":""run_exp/static/images/task_images/dig.jpg"",""time"":1347.3999999761581}]",[],,,,,,,,,,,,,,,
harvest_prac,32,224095,0.0-12.0-1.0,"""event"",""trial"",""time""
""fullscreenenter"",""1"",""3652""
","
","
","""event"",""trial"",""time""
""fullscreenenter"",""1"",""3652""
","
",,null,run_exp/static/images/task_images/barrel_text.jpg,null,,,,,,,,,,,,,,,,,,,,,,,,
decision_prac,33,224388,0.0-12.0-2.0,"""event"",""trial"",""time""
""fullscreenenter"",""1"",""3652""
","
","
","""event"",""trial"",""time""
""fullscreenenter"",""1"",""3652""
","
",,291.3,run_exp/static/images/task_images/land.jpg,65,,,,,,,,,,,2,,,,,,,,,,,,,
dig_prac,34,226402,0.0-13.0-0.0,"""event"",""trial"",""time""
""fullscreenenter"",""1"",""3652""
","
","
","""event"",""trial"",""time""
""fullscreenenter"",""1"",""3652""
","
",,,,,,,,,,,,"[{""stimulus"":""run_exp/static/images/task_images/dig.jpg"",""time"":0.3999999761581421},{""stimulus"":""run_exp/static/images/task_images/land.jpg"",""time"":681.3999999761581},{""stimulus"":""run_exp/static/images/task_images/dig.jpg"",""time"":1337.6000000238419}]",[],,,,,,,,,,,,,,,
harvest_prac,35,227416,0.0-13.0-1.0,"""event"",""trial"",""time""
""fullscreenenter"",""1"",""3652""
","
","
","""event"",""trial"",""time""
""fullscreenenter"",""1"",""3652""
","
",,null,run_exp/static/images/task_images/barrel_text.jpg,null,,,,,,,,,,,,,,,,,,,,,,,,
decision_prac,36,227655,0.0-13.0-2.0,"""event"",""trial"",""time""
""fullscreenenter"",""1"",""3652""
","
","
","""event"",""trial"",""time""
""fullscreenenter"",""1"",""3652""
","
",,236.5,run_exp/static/images/task_images/land.jpg,65,,,,,,,,,,,3,,,,,,,,,,,,,
dig_prac,37,229666,0.0-14.0-0.0,"""event"",""trial"",""time""
""fullscreenenter"",""1"",""3652""
","
","
","""event"",""trial"",""time""
""fullscreenenter"",""1"",""3652""
","
",,,,,,,,,,,,"[{""stimulus"":""run_exp/static/images/task_images/dig.jpg"",""time"":0.3999999761581421},{""stimulus"":""run_exp/static/images/task_images/land.jpg"",""time"":677.1999999284744},{""stimulus"":""run_exp/static/images/task_images/dig.jpg"",""time"":1345}]",[],,,,,,,,,,,,,,,
harvest_prac,38,230670,0.0-14.0-1.0,"""event"",""trial"",""time""
""fullscreenenter"",""1"",""3652""
","
","
","""event"",""trial"",""time""
""fullscreenenter"",""1"",""3652""
","
",,null,run_exp/static/images/task_images/barrel_text.jpg,null,,,,,,,,,,,,,,,,,,,,,,,,
decision_prac,39,231393,0.0-14.0-2.0,"""event"",""trial"",""time""
""fullscreenenter"",""1"",""3652""
","
","
","""event"",""trial"",""time""
""fullscreenenter"",""1"",""3652""
","
",,720.4,run_exp/static/images/task_images/land.jpg,65,,,,,,,,,,,4,,,,,,,,,,,,,
dig_prac,40,233401,0.0-15.0-0.0,"""event"",""trial"",""time""
""fullscreenenter"",""1"",""3652""
","
","
","""event"",""trial"",""time""
""fullscreenenter"",""1"",""3652""
","
",,,,,,,,,,,,"[{""stimulus"":""run_exp/static/images/task_images/dig.jpg"",""time"":0.30000007152557373},{""stimulus"":""run_exp/static/images/task_images/land.jpg"",""time"":679.7000000476837},{""stimulus"":""run_exp/static/images/task_images/dig.jpg"",""time"":1335.4000000953674}]",[],,,,,,,,,,,,,,,
harvest_prac,41,234403,0.0-15.0-1.0,"""event"",""trial"",""time""
""fullscreenenter"",""1"",""3652""
","
","
","""event"",""trial"",""time""
""fullscreenenter"",""1"",""3652""
","
",,null,run_exp/static/images/task_images/barrel_text.jpg,null,,,,,,,,,,,,,,,,,,,,,,,,
decision_prac,42,234840,0.0-15.0-2.0,"""event"",""trial"",""time""
""fullscreenenter"",""1"",""3652""
","
","
","""event"",""trial"",""time""
""fullscreenenter"",""1"",""3652""
","
",,434.6,run_exp/static/images/task_images/land.jpg,65,,,,,,,,,,,,1,,,,,,,,,,,,
quiz_instruc,43,240006,0.0-16.0-0.0,"""event"",""trial"",""time""
""fullscreenenter"",""1"",""3652""
","
","
","""event"",""trial"",""time""
""fullscreenenter"",""1"",""3652""
","
",,5158.8,run_exp/static/audio/clip_10_quiz.m4a,,,,,,,0,,,,,,,,,,,,,,,,,,
instruc_repeat,44,282785,0.0-16.0-1.0,"""event"",""trial"",""time""
""fullscreenenter"",""1"",""3652""
","
","
","""event"",""trial"",""time""
""fullscreenenter"",""1"",""3652""
","
",,null,"<p> Are you ready to play a practice game? </p> <p>In this practice game, you'll be digging up barrels of gems. But, in the real game, you'll be digging up the gems themselves. </p>",null,"<p>In this game, your goal is to collect as many gems as you can. That’s how you will win bonus money. </p> <p>The entire game will last 20 minutes no matter how many gems you collect or how many planets you visit. </p><p>To stay on a planet and dig again, press the letter A on your keyboard. To leave for a new planet, press the letter L.</p><p>The more you dig on a planet, the fewer gems you’ll get with each dig which is why you might consider leaving for a new planet. </p><p>When you arrive at a new planet, you’ll be greeted by an alien. What the alien looks like does not tell you anything about how much treasure is on the planet. </p>",,,,,,,,,,,,,,,,,,,,,,,
instruc_repeat_continue,45,284231,0.0-16.0-2.0,"""event"",""trial"",""time""
""fullscreenenter"",""1"",""3652""
","
","
","""event"",""trial"",""time""
""fullscreenenter"",""1"",""3652""
","
",,1444.7,"<p> Are you ready to play a practice game? </p> <p>In this practice game, you'll be digging up barrels of gems. But, in the real game, you'll be digging up the gems themselves. </p>",,,,,,,0,,,,,,,,,,,,,,,,,,
quiz_q_1_ask,46,292987,0.0-16.0-3.0,"""event"",""trial"",""time""
""fullscreenenter"",""1"",""3652""
","
","
","""event"",""trial"",""time""
""fullscreenenter"",""1"",""3652""
","
",,8754.4,run_exp/static/audio/clip_11_q1_ask.m4a,,,,,,,2,,,,,,,,,,,,,,,,,,
quiz_q_1_fb_correct,47,296864,0.0-17.0-0.0,"""event"",""trial"",""time""
""fullscreenenter"",""1"",""3652""
","
","
","""event"",""trial"",""time""
""fullscreenenter"",""1"",""3652""
","
",,null,run_exp/static/audio/clip_12_q1_correct.m4a,null,<p>That’s correct. You win extra money by collecting more gems.</p>,,,,,,,,,,,,,,,,,,,,,,,
quiz_q_2_ask,48,300921,0.0-17.0-1.0,"""event"",""trial"",""time""
""fullscreenenter"",""1"",""3652""
","
","
","""event"",""trial"",""time""
""fullscreenenter"",""1"",""3652""
","
",,4056.1,run_exp/static/audio/clip_14_q2_ask.m4a,,,,,,,1,,,,,,,,,,,,,,,,,,
quiz_q_2_fb_correct,49,304945,0.0-18.0-0.0,"""event"",""trial"",""time""
""fullscreenenter"",""1"",""3652""
","
","
","""event"",""trial"",""time""
""fullscreenenter"",""1"",""3652""
","
",,null,run_exp/static/audio/clip_15_q2_correct.m4a,null,<p>That’s correct. The experiment is 20 minutes no matter what.</p>,,,,,,,,,,,,,,,,,,,,,,,
quiz_q_3_ask,50,308585,0.0-18.0-1.0,"""event"",""trial"",""time""
""fullscreenenter"",""1"",""3652""
","
","
","""event"",""trial"",""time""
""fullscreenenter"",""1"",""3652""
","
",,3638.9,run_exp/static/audio/clip_17_q3_ask.m4a,,,,,,,1,,,,,,,,,,,,,,,,,,
quiz_q_3_fb_correct,51,312585,0.0-19.0-0.0,"""event"",""trial"",""time""
""fullscreenenter"",""1"",""3652""
","
","
","""event"",""trial"",""time""
""fullscreenenter"",""1"",""3652""
","
",,null,run_exp/static/audio/clip_18_q3_correct.m4a,null,<p> That’s correct. You press the letter L to travel to a new planet.</p>,,,,,,,,,,,,,,,,,,,,,,,
quiz_q_4_ask,52,317076,0.0-19.0-1.0,"""event"",""trial"",""time""
""fullscreenenter"",""1"",""3652""
","
","
","""event"",""trial"",""time""
""fullscreenenter"",""1"",""3652""
","
",,4488.5,run_exp/static/audio/clip_20_q4_ask.m4a,,,,,,,0,,,,,,,,,,,,,,,,,,
quiz_q_4_fb_correct,53,322424,0.0-20.0-0.0,"""event"",""trial"",""time""
""fullscreenenter"",""1"",""3652""
","
","
","""event"",""trial"",""time""
""fullscreenenter"",""1"",""3652""
","
",,null,run_exp/static/audio/clip_21_q4_correct.m4a,null,<p> That’s correct. The more you dig on a planet the fewer gems you’ll get with each dig. </p>,,,,,,,,,,,,,,,,,,,,,,,
quiz_q_5_ask,54,326727,0.0-20.0-1.0,"""event"",""trial"",""time""
""fullscreenenter"",""1"",""3652""
","
","
","""event"",""trial"",""time""
""fullscreenenter"",""1"",""3652""
","
",,4301.1,run_exp/static/audio/clip_23_q5_ask.m4a,,,,,,,1,,,,,,,,,,,,,,,,,,
quiz_q_5_fb_correct,55,331765,0.0-21.0-0.0,"""event"",""trial"",""time""
""fullscreenenter"",""1"",""3652""
","
","
","""event"",""trial"",""time""
""fullscreenenter"",""1"",""3652""
","
",,null,run_exp/static/audio/clip_24_q5_correct.m4a,null,<p> That’s correct. The alien tells you nothing about how much treasure is on the planet.</p>,,,,,,,,,,,,,,,,,,,,,,,
quiz_correct,56,335285,0.0-22.0-0.0,"""event"",""trial"",""time""
""fullscreenenter"",""1"",""3652""
","
","
","""event"",""trial"",""time""
""fullscreenenter"",""1"",""3652""
","
",,null,run_exp/static/audio/clip_26_correct_quiz.m4a,null,,,,,,,,,,,,,,,,,,,,,,,,
quiz_correct_continue,57,336825,0.0-22.0-1.0,"""event"",""trial"",""time""
""fullscreenenter"",""1"",""3652""
","
","
","""event"",""trial"",""time""
""fullscreenenter"",""1"",""3652""
","
",,1538.5,<p>Good job! You're now ready to move on to the real game!</p>,,,,,,,0,,,,,,,,,,,,,,,,,,
audio-keyboard-response,58,346965,0.0-22.0-2.0,"""event"",""trial"",""time""
""fullscreenenter"",""1"",""3652""
","
","
","""event"",""trial"",""time""
""fullscreenenter"",""1"",""3652""
","
",,null,run_exp/static/audio/clip_28_real_game.m4a,null,,,,,,,,,,,,,,,,,,,,,,,,
instruc_begin_exp_contine,59,347945,0.0-22.0-3.0,"""event"",""trial"",""time""
""fullscreenenter"",""1"",""3652""
","
","
","""event"",""trial"",""time""
""fullscreenenter"",""1"",""3652""
","
",,977.9000001,"<p>Now that you know how  to dig for space treasure and travel to new planets,you can start exploring! </p><p>Do you want to go over the instructions again or get started with the real game?</p>",,,,,,,1,,,,,,1,,,,,,,,,,,,
alien_welcome,60,352954,0.0-23.0-0.0,"""event"",""trial"",""time""
""fullscreenenter"",""1"",""3652""
","
","
","""event"",""trial"",""time""
""fullscreenenter"",""1"",""3652""
","
",,null,run_exp/static/images/task_images/aliens/old_aliens/planet/alien_planet-29.jpg,null,,,,,,,,,,,,,29,"29,15,76,78,64,40,13,60,1,43,57,44,62,28,38,45,30,32,58,39,22,70,49,23,47,48,8,61,42,17,5,20,6,50,74,27,63,18,65,26",,,,,,,,,,
land,61,353469,0.0-23.0-1.0,"""event"",""trial"",""time""
""fullscreenenter"",""1"",""3652""
","
","
","""event"",""trial"",""time""
""fullscreenenter"",""1"",""3652""
","
",,null,run_exp/static/images/task_images/land.jpg,null,,,,,,,93,,,1,,,,,,,,,,,,,,
dig,62,355485,0.0-23.0-2.0,"""event"",""trial"",""time""
""fullscreenenter"",""1"",""3652""
","
","
","""event"",""trial"",""time""
""fullscreenenter"",""1"",""3652""
","
",,,,,,,,,,,,"[{""stimulus"":""run_exp/static/images/task_images/dig.jpg"",""time"":0.20000004768371582},{""stimulus"":""run_exp/static/images/task_images/land.jpg"",""time"":668.5},{""stimulus"":""run_exp/static/images/task_images/dig.jpg"",""time"":1343.3999999761581}]",[],1,,,,,,,,,,,,,,
harvest,63,356501,0.0-23.0-3.0,"""event"",""trial"",""time""
""fullscreenenter"",""1"",""3652""
","
","
","""event"",""trial"",""time""
""fullscreenenter"",""1"",""3652""
","
",,null,run_exp/static/images/task_images/gems/93.jpg,null,,,,,,,19,,,1,,,,,93,0.207361924,0.204301075,,,,,,,
decision,64,357146,0.0-23.0-4.0,"""event"",""trial"",""time""
""fullscreenenter"",""1"",""3652""
","
","
","""event"",""trial"",""time""
""fullscreenenter"",""1"",""3652""
","
",,641.5999999,run_exp/static/images/task_images/land.jpg,65,,,,,,,19,,,1,,,,,,,,9200,1,0,FALSE,,,
dig,65,359522,0.0-24.0-0.0,"""event"",""trial"",""time""
""fullscreenenter"",""1"",""3652""
","
","
","""event"",""trial"",""time""
""fullscreenenter"",""1"",""3652""
","
",,,,,,,,,,,,"[{""stimulus"":""run_exp/static/images/task_images/dig.jpg"",""time"":0.2999999523162842},{""stimulus"":""run_exp/static/images/task_images/land.jpg"",""time"":792.7999999523163},{""stimulus"":""run_exp/static/images/task_images/dig.jpg"",""time"":1576.1000000238419}]",[],1,,,,,,,,,,,,,,
harvest,66,360534,0.0-24.0-1.0,"""event"",""trial"",""time""
""fullscreenenter"",""1"",""3652""
","
","
","""event"",""trial"",""time""
""fullscreenenter"",""1"",""3652""
","
",,null,run_exp/static/images/task_images/gems/19.jpg,null,,,,,,,2,,,1,,,,,19,0.084591875,0.105263158,,,,,,,
decision,67,361201,0.0-24.0-2.0,"""event"",""trial"",""time""
""fullscreenenter"",""1"",""3652""
","
","
","""event"",""trial"",""time""
""fullscreenenter"",""1"",""3652""
","
",,665.1999999,run_exp/static/images/task_images/land.jpg,76,,,,,,,2,,,1,,,,,,,,13256,1,1,TRUE,,,
travel,68,370557,0.0-25.0-0.0,"""event"",""trial"",""time""
""fullscreenenter"",""1"",""3652""
","
","
","""event"",""trial"",""time""
""fullscreenenter"",""1"",""3652""
","
",,,,,,,,,,,,"[{""stimulus"":""run_exp/static/images/task_images/rocket-01.jpg"",""time"":0.5},{""stimulus"":""run_exp/static/images/task_images/rocket-02.jpg"",""time"":1049.9000000953674},{""stimulus"":""run_exp/static/images/task_images/rocket-03.jpg"",""time"":2091.3000000715256},{""stimulus"":""run_exp/static/images/task_images/rocket-04.jpg"",""time"":3121.8000000715256},{""stimulus"":""run_exp/static/images/task_images/rocket-05.jpg"",""time"":4155.900000095367},{""stimulus"":""run_exp/static/images/task_images/rocket-06.jpg"",""time"":5193.900000095367},{""stimulus"":""run_exp/static/images/task_images/rocket-07.jpg"",""time"":6227.900000095367},{""stimulus"":""run_exp/static/images/task_images/rocket-08.jpg"",""time"":7263.400000095367},{""stimulus"":""run_exp/static/images/task_images/rocket-09.jpg"",""time"":8311.5}]",[],1,,,,,,,,,,,,,,
alien_welcome,69,375575,0.0-25.0-1.0,"""event"",""trial"",""time""
""fullscreenenter"",""1"",""3652""
","
","
","""event"",""trial"",""time""
""fullscreenenter"",""1"",""3652""
","
",,null,run_exp/static/images/task_images/aliens/old_aliens/planet/alien_planet-15.jpg,null,,,,,,,,,,,,,15,"29,15,76,78,64,40,13,60,1,43,57,44,62,28,38,45,30,32,58,39,22,70,49,23,47,48,8,61,42,17,5,20,6,50,74,27,63,18,65,26",,,,,,,,,,
land,70,376079,0.0-25.0-2.0,"""event"",""trial"",""time""
""fullscreenenter"",""1"",""3652""
","
","
","""event"",""trial"",""time""
""fullscreenenter"",""1"",""3652""
","
",,null,run_exp/static/images/task_images/land.jpg,null,,,,,,,102,,,2,,,,,,,,,,,,,,
dig,71,378089,0.0-25.0-3.0,"""event"",""trial"",""time""
""fullscreenenter"",""1"",""3652""
","
","
","""event"",""trial"",""time""
""fullscreenenter"",""1"",""3652""
","
",,,,,,,,,,,,"[{""stimulus"":""run_exp/static/images/task_images/dig.jpg"",""time"":0.6000000238418579},{""stimulus"":""run_exp/static/images/task_images/land.jpg"",""time"":683.6000000238419},{""stimulus"":""run_exp/static/images/task_images/dig.jpg"",""time"":1336.5}]",[],2,,,,,,,,,,,,,,
harvest,72,379093,0.0-25.0-4.0,"""event"",""trial"",""time""
""fullscreenenter"",""1"",""3652""
","
","
","""event"",""trial"",""time""
""fullscreenenter"",""1"",""3652""
","
",,null,run_exp/static/images/task_images/gems/102.jpg,null,,,,,,,17,,,2,,,,,102,0.170171816,0.166666667,,,,,,,
decision,73,379624,0.0-25.0-5.0,"""event"",""trial"",""time""
""fullscreenenter"",""1"",""3652""
","
","
","""event"",""trial"",""time""
""fullscreenenter"",""1"",""3652""
","
",,528.2,run_exp/static/images/task_images/land.jpg,65,,,,,,,17,,,2,,,,,,,,31678,1,0,FALSE,,,
dig,74,382110,0.0-26.0-0.0,"""event"",""trial"",""time""
""fullscreenenter"",""1"",""3652""
","
","
","""event"",""trial"",""time""
""fullscreenenter"",""1"",""3652""
","
",,,,,,,,,,,,"[{""stimulus"":""run_exp/static/images/task_images/dig.jpg"",""time"":0.40000009536743164},{""stimulus"":""run_exp/static/images/task_images/land.jpg"",""time"":830.3000000715256},{""stimulus"":""run_exp/static/images/task_images/dig.jpg"",""time"":1658.6000000238419}]",[],2,,,,,,,,,,,,,,
harvest,75,383115,0.0-26.0-1.0,"""event"",""trial"",""time""
""fullscreenenter"",""1"",""3652""
","
","
","""event"",""trial"",""time""
""fullscreenenter"",""1"",""3652""
","
",,null,run_exp/static/images/task_images/gems/17.jpg,null,,,,,,,3,,,2,,,,,17,0.192562857,0.176470588,,,,,,,
decision,76,384018,0.0-26.0-2.0,"""event"",""trial"",""time""
""fullscreenenter"",""1"",""3652""
","
","
","""event"",""trial"",""time""
""fullscreenenter"",""1"",""3652""
","
",,901.6999999,run_exp/static/images/task_images/land.jpg,65,,,,,,,3,,,2,,,,,,,,36072,1,1,FALSE,,,
dig,77,386134,0.0-27.0-0.0,"""event"",""trial"",""time""
""fullscreenenter"",""1"",""3652""
","
","
","""event"",""trial"",""time""
""fullscreenenter"",""1"",""3652""
","
",,,,,,,,,,,,"[{""stimulus"":""run_exp/static/images/task_images/dig.jpg"",""time"":0.19999992847442627},{""stimulus"":""run_exp/static/images/task_images/land.jpg"",""time"":712.1999999284744},{""stimulus"":""run_exp/static/images/task_images/dig.jpg"",""time"":1405.1999999284744}]",[],2,,,,,,,,,,,,,,
harvest,78,387151,0.0-27.0-1.0,"""event"",""trial"",""time""
""fullscreenenter"",""1"",""3652""
","
","
","""event"",""trial"",""time""
""fullscreenenter"",""1"",""3652""
","
",,null,run_exp/static/images/task_images/gems/3.jpg,null,,,,,,,0,,,2,,,,,3,0.158795022,0,,,,,,,
decision,79,387610,0.0-27.0-2.0,"""event"",""trial"",""time""
""fullscreenenter"",""1"",""3652""
","
","
","""event"",""trial"",""time""
""fullscreenenter"",""1"",""3652""
","
",,456.1,run_exp/static/images/task_images/land.jpg,76,,,,,,,0,,,2,,,,,,,,39664,1,2,TRUE,,,
travel,80,397160,0.0-28.0-0.0,"""event"",""trial"",""time""
""fullscreenenter"",""1"",""3652""
","
","
","""event"",""trial"",""time""
""fullscreenenter"",""1"",""3652""
","
",,,,,,,,,,,,"[{""stimulus"":""run_exp/static/images/task_images/rocket-01.jpg"",""time"":0.3999999761581421},{""stimulus"":""run_exp/static/images/task_images/rocket-02.jpg"",""time"":1070.8999999761581},{""stimulus"":""run_exp/static/images/task_images/rocket-03.jpg"",""time"":2134.2000000476837},{""stimulus"":""run_exp/static/images/task_images/rocket-04.jpg"",""time"":3194.2999999523163},{""stimulus"":""run_exp/static/images/task_images/rocket-05.jpg"",""time"":4245.899999976158},{""stimulus"":""run_exp/static/images/task_images/rocket-06.jpg"",""time"":5317.100000023842},{""stimulus"":""run_exp/static/images/task_images/rocket-07.jpg"",""time"":6366.299999952316},{""stimulus"":""run_exp/static/images/task_images/rocket-08.jpg"",""time"":7430.899999976158},{""stimulus"":""run_exp/static/images/task_images/rocket-09.jpg"",""time"":8496.600000023842}]",[],2,,,,,,,,,,,,,,
alien_welcome,81,402168,0.0-28.0-1.0,"""event"",""trial"",""time""
""fullscreenenter"",""1"",""3652""
","
","
","""event"",""trial"",""time""
""fullscreenenter"",""1"",""3652""
","
",,null,run_exp/static/images/task_images/aliens/old_aliens/planet/alien_planet-76.jpg,null,,,,,,,,,,,,,76,"29,15,76,78,64,40,13,60,1,43,57,44,62,28,38,45,30,32,58,39,22,70,49,23,47,48,8,61,42,17,5,20,6,50,74,27,63,18,65,26",,,,,,,,,,
land,82,402672,0.0-28.0-2.0,"""event"",""trial"",""time""
""fullscreenenter"",""1"",""3652""
","
","
","""event"",""trial"",""time""
""fullscreenenter"",""1"",""3652""
","
",,null,run_exp/static/images/task_images/land.jpg,null,,,,,,,102,,,3,,,,,,,,,,,,,,
dig,83,404689,0.0-28.0-3.0,"""event"",""trial"",""time""
""fullscreenenter"",""1"",""3652""
","
","
","""event"",""trial"",""time""
""fullscreenenter"",""1"",""3652""
","
",,,,,,,,,,,,"[{""stimulus"":""run_exp/static/images/task_images/dig.jpg"",""time"":0.2999999523162842},{""stimulus"":""run_exp/static/images/task_images/land.jpg"",""time"":683.6000000238419},{""stimulus"":""run_exp/static/images/task_images/dig.jpg"",""time"":1338.3999999761581}]",[],3,,,,,,,,,,,,,,
harvest,84,405704,0.0-28.0-4.0,"""event"",""trial"",""time""
""fullscreenenter"",""1"",""3652""
","
","
","""event"",""trial"",""time""
""fullscreenenter"",""1"",""3652""
","
",,null,run_exp/static/images/task_images/gems/102.jpg,null,,,,,,,49,,,3,,,,,102,0.482968018,0.480392157,,,,,,,
decision,85,406075,0.0-28.0-5.0,"""event"",""trial"",""time""
""fullscreenenter"",""1"",""3652""
","
","
","""event"",""trial"",""time""
""fullscreenenter"",""1"",""3652""
","
",,368.8,run_exp/static/images/task_images/land.jpg,65,,,,,,,49,,,3,,,,,,,,58129,1,0,FALSE,,,
dig,86,408727,0.0-29.0-0.0,"""event"",""trial"",""time""
""fullscreenenter"",""1"",""3652""
","
","
","""event"",""trial"",""time""
""fullscreenenter"",""1"",""3652""
","
",,,,,,,,,,,,"[{""stimulus"":""run_exp/static/images/task_images/dig.jpg"",""time"":0.3999999761581421},{""stimulus"":""run_exp/static/images/task_images/land.jpg"",""time"":888.8000000715256},{""stimulus"":""run_exp/static/images/task_images/dig.jpg"",""time"":1765.5}]",[],3,,,,,,,,,,,,,,
harvest,87,409740,0.0-29.0-1.0,"""event"",""trial"",""time""
""fullscreenenter"",""1"",""3652""
","
","
","""event"",""trial"",""time""
""fullscreenenter"",""1"",""3652""
","
",,null,run_exp/static/images/task_images/gems/49.jpg,null,,,,,,,20,,,3,,,,,49,0.41043231,0.408163265,,,,,,,
decision,88,410278,0.0-29.0-2.0,"""event"",""trial"",""time""
""fullscreenenter"",""1"",""3652""
","
","
","""event"",""trial"",""time""
""fullscreenenter"",""1"",""3652""
","
",,535.8,run_exp/static/images/task_images/land.jpg,65,,,,,,,20,,,3,,,,,,,,62332,1,1,FALSE,,,
dig,89,412752,0.0-30.0-0.0,"""event"",""trial"",""time""
""fullscreenenter"",""1"",""3652""
","
","
","""event"",""trial"",""time""
""fullscreenenter"",""1"",""3652""
","
",,,,,,,,,,,,"[{""stimulus"":""run_exp/static/images/task_images/dig.jpg"",""time"":0.3999999761581421},{""stimulus"":""run_exp/static/images/task_images/land.jpg"",""time"":834.2000000476837},{""stimulus"":""run_exp/static/images/task_images/dig.jpg"",""time"":1652.3999999761581}]",[],3,,,,,,,,,,,,,,
harvest,90,413757,0.0-30.0-1.0,"""event"",""trial"",""time""
""fullscreenenter"",""1"",""3652""
","
","
","""event"",""trial"",""time""
""fullscreenenter"",""1"",""3652""
","
",,null,run_exp/static/images/task_images/gems/20.jpg,null,,,,,,,11,,,3,,,,,20,0.566937033,0.55,,,,,,,
decision,91,414281,0.0-30.0-2.0,"""event"",""trial"",""time""
""fullscreenenter"",""1"",""3652""
","
","
","""event"",""trial"",""time""
""fullscreenenter"",""1"",""3652""
","
",,521.4,run_exp/static/images/task_images/land.jpg,65,,,,,,,11,,,3,,,,,,,,66335,1,2,FALSE,,,
dig,92,416774,0.0-31.0-0.0,"""event"",""trial"",""time""
""fullscreenenter"",""1"",""3652""
","
","
","""event"",""trial"",""time""
""fullscreenenter"",""1"",""3652""
","
",,,,,,,,,,,,"[{""stimulus"":""run_exp/static/images/task_images/dig.jpg"",""time"":0.6000000238418579},{""stimulus"":""run_exp/static/images/task_images/land.jpg"",""time"":836.1000000238419},{""stimulus"":""run_exp/static/images/task_images/dig.jpg"",""time"":1654.8999999761581}]",[],3,,,,,,,,,,,,,,
harvest,93,417778,0.0-31.0-1.0,"""event"",""trial"",""time""
""fullscreenenter"",""1"",""3652""
","
","
","""event"",""trial"",""time""
""fullscreenenter"",""1"",""3652""
","
",,null,run_exp/static/images/task_images/gems/11.jpg,null,,,,,,,5,,,3,,,,,11,0.412249626,0.454545455,,,,,,,
decision,94,418645,0.0-31.0-2.0,"""event"",""trial"",""time""
""fullscreenenter"",""1"",""3652""
","
","
","""event"",""trial"",""time""
""fullscreenenter"",""1"",""3652""
","
",,863.4000001,run_exp/static/images/task_images/land.jpg,76,,,,,,,5,,,3,,,,,,,,70699,1,3,TRUE,,,
travel,95,427791,0.0-32.0-0.0,"""event"",""trial"",""time""
""fullscreenenter"",""1"",""3652""
","
","
","""event"",""trial"",""time""
""fullscreenenter"",""1"",""3652""
","
",,,,,,,,,,,,"[{""stimulus"":""run_exp/static/images/task_images/rocket-01.jpg"",""time"":0.3999999761581421},{""stimulus"":""run_exp/static/images/task_images/rocket-02.jpg"",""time"":1024},{""stimulus"":""run_exp/static/images/task_images/rocket-03.jpg"",""time"":2038.3999999761581},{""stimulus"":""run_exp/static/images/task_images/rocket-04.jpg"",""time"":3053.0999999046326},{""stimulus"":""run_exp/static/images/task_images/rocket-05.jpg"",""time"":4069.399999976158},{""stimulus"":""run_exp/static/images/task_images/rocket-06.jpg"",""time"":5087.099999904633},{""stimulus"":""run_exp/static/images/task_images/rocket-07.jpg"",""time"":6093.299999952316},{""stimulus"":""run_exp/static/images/task_images/rocket-08.jpg"",""time"":7115.099999904633},{""stimulus"":""run_exp/static/images/task_images/rocket-09.jpg"",""time"":8129.799999952316}]",[],3,,,,,,,,,,,,,,
alien_welcome,96,432795,0.0-32.0-1.0,"""event"",""trial"",""time""
""fullscreenenter"",""1"",""3652""
","
","
","""event"",""trial"",""time""
""fullscreenenter"",""1"",""3652""
","
",,null,run_exp/static/images/task_images/aliens/old_aliens/planet/alien_planet-78.jpg,null,,,,,,,,,,,,,78,"29,15,76,78,64,40,13,60,1,43,57,44,62,28,38,45,30,32,58,39,22,70,49,23,47,48,8,61,42,17,5,20,6,50,74,27,63,18,65,26",,,,,,,,,,
land,97,433312,0.0-32.0-2.0,"""event"",""trial"",""time""
""fullscreenenter"",""1"",""3652""
","
","
","""event"",""trial"",""time""
""fullscreenenter"",""1"",""3652""
","
",,null,run_exp/static/images/task_images/land.jpg,null,,,,,,,92,,,4,,,,,,,,,,,,,,
dig,98,435325,0.0-32.0-3.0,"""event"",""trial"",""time""
""fullscreenenter"",""1"",""3652""
","
","
","""event"",""trial"",""time""
""fullscreenenter"",""1"",""3652""
","
",,,,,,,,,,,,"[{""stimulus"":""run_exp/static/images/task_images/dig.jpg"",""time"":0.5},{""stimulus"":""run_exp/static/images/task_images/land.jpg"",""time"":682.1000000238419},{""stimulus"":""run_exp/static/images/task_images/dig.jpg"",""time"":1336.8999999761581}]",[],4,,,,,,,,,,,,,,
harvest,99,436343,0.0-32.0-4.0,"""event"",""trial"",""time""
""fullscreenenter"",""1"",""3652""
","
","
","""event"",""trial"",""time""
""fullscreenenter"",""1"",""3652""
","
",,null,run_exp/static/images/task_images/gems/92.jpg,null,,,,,,,47,,,4,,,,,92,0.506518444,0.510869565,,,,,,,
decision,100,436900,0.0-32.0-5.0,"""event"",""trial"",""time""
""fullscreenenter"",""1"",""3652""
","
","
","""event"",""trial"",""time""
""fullscreenenter"",""1"",""3652""
","
",,555,run_exp/static/images/task_images/land.jpg,65,,,,,,,47,,,4,,,,,,,,88954,1,0,FALSE,,,
dig,101,439367,0.0-33.0-0.0,"""event"",""trial"",""time""
""fullscreenenter"",""1"",""3652""
","
","
","""event"",""trial"",""time""
""fullscreenenter"",""1"",""3652""
","
",,,,,,,,,,,,"[{""stimulus"":""run_exp/static/images/task_images/dig.jpg"",""time"":0.5},{""stimulus"":""run_exp/static/images/task_images/land.jpg"",""time"":827.7000000476837},{""stimulus"":""run_exp/static/images/task_images/dig.jpg"",""time"":1645}]",[],4,,,,,,,,,,,,,,
harvest,102,440371,0.0-33.0-1.0,"""event"",""trial"",""time""
""fullscreenenter"",""1"",""3652""
","
","
","""event"",""trial"",""time""
""fullscreenenter"",""1"",""3652""
","
",,null,run_exp/static/images/task_images/gems/47.jpg,null,,,,,,,24,,,4,,,,,47,0.513069475,0.510638298,,,,,,,
decision,103,440946,0.0-33.0-2.0,"""event"",""trial"",""time""
""fullscreenenter"",""1"",""3652""
","
","
","""event"",""trial"",""time""
""fullscreenenter"",""1"",""3652""
","
",,572.4,run_exp/static/images/task_images/land.jpg,65,,,,,,,24,,,4,,,,,,,,93000,1,1,FALSE,,,
dig,104,443389,0.0-34.0-0.0,"""event"",""trial"",""time""
""fullscreenenter"",""1"",""3652""
","
","
","""event"",""trial"",""time""
""fullscreenenter"",""1"",""3652""
","
",,,,,,,,,,,,"[{""stimulus"":""run_exp/static/images/task_images/dig.jpg"",""time"":0.6000000238418579},{""stimulus"":""run_exp/static/images/task_images/land.jpg"",""time"":816.5},{""stimulus"":""run_exp/static/images/task_images/dig.jpg"",""time"":1632.7000000476837}]",[],4,,,,,,,,,,,,,,
harvest,105,444396,0.0-34.0-1.0,"""event"",""trial"",""time""
""fullscreenenter"",""1"",""3652""
","
","
","""event"",""trial"",""time""
""fullscreenenter"",""1"",""3652""
","
",,null,run_exp/static/images/task_images/gems/24.jpg,null,,,,,,,14,,,4,,,,,24,0.592902021,0.583333333,,,,,,,
decision,106,445001,0.0-34.0-2.0,"""event"",""trial"",""time""
""fullscreenenter"",""1"",""3652""
","
","
","""event"",""trial"",""time""
""fullscreenenter"",""1"",""3652""
","
",,602.9,run_exp/static/images/task_images/land.jpg,65,,,,,,,14,,,4,,,,,,,,97055,1,2,FALSE,,,
dig,107,447420,0.0-35.0-0.0,"""event"",""trial"",""time""
""fullscreenenter"",""1"",""3652""
","
","
","""event"",""trial"",""time""
""fullscreenenter"",""1"",""3652""
","
",,,,,,,,,,,,"[{""stimulus"":""run_exp/static/images/task_images/dig.jpg"",""time"":0.5999999046325684},{""stimulus"":""run_exp/static/images/task_images/land.jpg"",""time"":813.2999999523163},{""stimulus"":""run_exp/static/images/task_images/dig.jpg"",""time"":1612.7999999523163}]",[],4,,,,,,,,,,,,,,
harvest,108,448437,0.0-35.0-1.0,"""event"",""trial"",""time""
""fullscreenenter"",""1"",""3652""
","
","
","""event"",""trial"",""time""
""fullscreenenter"",""1"",""3652""
","
",,null,run_exp/static/images/task_images/gems/14.jpg,null,,,,,,,7,,,4,,,,,14,0.495178396,0.5,,,,,,,
decision,109,448568,0.0-35.0-2.0,"""event"",""trial"",""time""
""fullscreenenter"",""1"",""3652""
","
","
","""event"",""trial"",""time""
""fullscreenenter"",""1"",""3652""
","
",,128.9,run_exp/static/images/task_images/land.jpg,76,,,,,,,7,,,4,,,,,,,,100622,1,3,TRUE,,,
travel,110,458441,0.0-36.0-0.0,"""event"",""trial"",""time""
""fullscreenenter"",""1"",""3652""
","
","
","""event"",""trial"",""time""
""fullscreenenter"",""1"",""3652""
","
",,,,,,,,,,,,"[{""stimulus"":""run_exp/static/images/task_images/rocket-01.jpg"",""time"":0.5},{""stimulus"":""run_exp/static/images/task_images/rocket-02.jpg"",""time"":1110.1000000238419},{""stimulus"":""run_exp/static/images/task_images/rocket-03.jpg"",""time"":2205.600000023842},{""stimulus"":""run_exp/static/images/task_images/rocket-04.jpg"",""time"":3293.8000000715256},{""stimulus"":""run_exp/static/images/task_images/rocket-05.jpg"",""time"":4387.200000047684},{""stimulus"":""run_exp/static/images/task_images/rocket-06.jpg"",""time"":5494},{""stimulus"":""run_exp/static/images/task_images/rocket-07.jpg"",""time"":6592.600000023842},{""stimulus"":""run_exp/static/images/task_images/rocket-08.jpg"",""time"":7689.200000047684},{""stimulus"":""run_exp/static/images/task_images/rocket-09.jpg"",""time"":8772.5}]",[],4,,,,,,,,,,,,,,
alien_welcome,111,463444,0.0-36.0-1.0,"""event"",""trial"",""time""
""fullscreenenter"",""1"",""3652""
","
","
","""event"",""trial"",""time""
""fullscreenenter"",""1"",""3652""
","
",,null,run_exp/static/images/task_images/aliens/old_aliens/planet/alien_planet-64.jpg,null,,,,,,,,,,,,,64,"29,15,76,78,64,40,13,60,1,43,57,44,62,28,38,45,30,32,58,39,22,70,49,23,47,48,8,61,42,17,5,20,6,50,74,27,63,18,65,26",,,,,,,,,,
land,112,463947,0.0-36.0-2.0,"""event"",""trial"",""time""
""fullscreenenter"",""1"",""3652""
","
","
","""event"",""trial"",""time""
""fullscreenenter"",""1"",""3652""
","
",,null,run_exp/static/images/task_images/land.jpg,null,,,,,,,95,,,5,,,,,,,,,,,,,,
dig,113,465962,0.0-36.0-3.0,"""event"",""trial"",""time""
""fullscreenenter"",""1"",""3652""
","
","
","""event"",""trial"",""time""
""fullscreenenter"",""1"",""3652""
","
",,,,,,,,,,,,"[{""stimulus"":""run_exp/static/images/task_images/dig.jpg"",""time"":0.20000004768371582},{""stimulus"":""run_exp/static/images/task_images/land.jpg"",""time"":682.6000000238419},{""stimulus"":""run_exp/static/images/task_images/dig.jpg"",""time"":1337.3000000715256}]",[],5,,,,,,,,,,,,,,
harvest,114,466966,0.0-36.0-4.0,"""event"",""trial"",""time""
""fullscreenenter"",""1"",""3652""
","
","
","""event"",""trial"",""time""
""fullscreenenter"",""1"",""3652""
","
",,null,run_exp/static/images/task_images/gems/95.jpg,null,,,,,,,50,,,5,,,,,95,0.527281326,0.526315789,,,,,,,
decision,115,467478,0.0-36.0-5.0,"""event"",""trial"",""time""
""fullscreenenter"",""1"",""3652""
","
","
","""event"",""trial"",""time""
""fullscreenenter"",""1"",""3652""
","
",,510.0999999,run_exp/static/images/task_images/land.jpg,65,,,,,,,50,,,5,,,,,,,,119532,1,0,FALSE,,,
dig,116,469978,0.0-37.0-0.0,"""event"",""trial"",""time""
""fullscreenenter"",""1"",""3652""
","
","
","""event"",""trial"",""time""
""fullscreenenter"",""1"",""3652""
","
",,,,,,,,,,,,"[{""stimulus"":""run_exp/static/images/task_images/dig.jpg"",""time"":0.6000000238418579},{""stimulus"":""run_exp/static/images/task_images/land.jpg"",""time"":843.5},{""stimulus"":""run_exp/static/images/task_images/dig.jpg"",""time"":1675}]",[],5,,,,,,,,,,,,,,
harvest,117,470996,0.0-37.0-1.0,"""event"",""trial"",""time""
""fullscreenenter"",""1"",""3652""
","
","
","""event"",""trial"",""time""
""fullscreenenter"",""1"",""3652""
","
",,null,run_exp/static/images/task_images/gems/50.jpg,null,,,,,,,26,,,5,,,,,50,0.510438013,0.52,,,,,,,
decision,118,471520,0.0-37.0-2.0,"""event"",""trial"",""time""
""fullscreenenter"",""1"",""3652""
","
","
","""event"",""trial"",""time""
""fullscreenenter"",""1"",""3652""
","
",,522.1,run_exp/static/images/task_images/land.jpg,65,,,,,,,26,,,5,,,,,,,,123574,1,1,FALSE,,,
dig,119,474004,0.0-38.0-0.0,"""event"",""trial"",""time""
""fullscreenenter"",""1"",""3652""
","
","
","""event"",""trial"",""time""
""fullscreenenter"",""1"",""3652""
","
",,,,,,,,,,,,"[{""stimulus"":""run_exp/static/images/task_images/dig.jpg"",""time"":0.5},{""stimulus"":""run_exp/static/images/task_images/land.jpg"",""time"":831.5},{""stimulus"":""run_exp/static/images/task_images/dig.jpg"",""time"":1660.4000000953674}]",[],5,,,,,,,,,,,,,,
harvest,120,475010,0.0-38.0-1.0,"""event"",""trial"",""time""
""fullscreenenter"",""1"",""3652""
","
","
","""event"",""trial"",""time""
""fullscreenenter"",""1"",""3652""
","
",,null,run_exp/static/images/task_images/gems/26.jpg,null,,,,,,,14,,,5,,,,,26,0.545429333,0.538461538,,,,,,,
decision,121,475630,0.0-38.0-2.0,"""event"",""trial"",""time""
""fullscreenenter"",""1"",""3652""
","
","
","""event"",""trial"",""time""
""fullscreenenter"",""1"",""3652""
","
",,617.8,run_exp/static/images/task_images/land.jpg,65,,,,,,,14,,,5,,,,,,,,127685,1,2,FALSE,,,
dig,122,478033,0.0-39.0-0.0,"""event"",""trial"",""time""
""fullscreenenter"",""1"",""3652""
","
","
","""event"",""trial"",""time""
""fullscreenenter"",""1"",""3652""
","
",,,,,,,,,,,,"[{""stimulus"":""run_exp/static/images/task_images/dig.jpg"",""time"":0.2999999523162842},{""stimulus"":""run_exp/static/images/task_images/land.jpg"",""time"":805.5999999046326},{""stimulus"":""run_exp/static/images/task_images/dig.jpg"",""time"":1595.3999999761581}]",[],5,,,,,,,,,,,,,,
harvest,123,479051,0.0-39.0-1.0,"""event"",""trial"",""time""
""fullscreenenter"",""1"",""3652""
","
","
","""event"",""trial"",""time""
""fullscreenenter"",""1"",""3652""
","
",,null,run_exp/static/images/task_images/gems/14.jpg,null,,,,,,,7,,,5,,,,,14,0.521799793,0.5,,,,,,,
decision,124,479756,0.0-39.0-2.0,"""event"",""trial"",""time""
""fullscreenenter"",""1"",""3652""
","
","
","""event"",""trial"",""time""
""fullscreenenter"",""1"",""3652""
","
",,702.9000001,run_exp/static/images/task_images/land.jpg,76,,,,,,,7,,,5,,,,,,,,131810,1,3,TRUE,,,
travel,125,489068,0.0-40.0-0.0,"""event"",""trial"",""time""
""fullscreenenter"",""1"",""3652""
","
","
","""event"",""trial"",""time""
""fullscreenenter"",""1"",""3652""
","
",,,,,,,,,,,,"[{""stimulus"":""run_exp/static/images/task_images/rocket-01.jpg"",""time"":0.3999999761581421},{""stimulus"":""run_exp/static/images/task_images/rocket-02.jpg"",""time"":1040.7999999523163},{""stimulus"":""run_exp/static/images/task_images/rocket-03.jpg"",""time"":2074.899999976158},{""stimulus"":""run_exp/static/images/task_images/rocket-04.jpg"",""time"":3111.5},{""stimulus"":""run_exp/static/images/task_images/rocket-05.jpg"",""time"":4134.199999928474},{""stimulus"":""run_exp/static/images/task_images/rocket-06.jpg"",""time"":5178.299999952316},{""stimulus"":""run_exp/static/images/task_images/rocket-07.jpg"",""time"":6208.799999952316},{""stimulus"":""run_exp/static/images/task_images/rocket-08.jpg"",""time"":7242.100000023842},{""stimulus"":""run_exp/static/images/task_images/rocket-09.jpg"",""time"":8270.899999976158}]",[],5,,,,,,,,,,,,,,
alien_welcome,126,494083,0.0-40.0-1.0,"""event"",""trial"",""time""
""fullscreenenter"",""1"",""3652""
","
","
","""event"",""trial"",""time""
""fullscreenenter"",""1"",""3652""
","
",,null,run_exp/static/images/task_images/aliens/old_aliens/planet/alien_planet-40.jpg,null,,,,,,,,,,,,,40,"29,15,76,78,64,40,13,60,1,43,57,44,62,28,38,45,30,32,58,39,22,70,49,23,47,48,8,61,42,17,5,20,6,50,74,27,63,18,65,26",,,,,,,,,,
land,127,494588,0.0-40.0-2.0,"""event"",""trial"",""time""
""fullscreenenter"",""1"",""3652""
","
","
","""event"",""trial"",""time""
""fullscreenenter"",""1"",""3652""
","
",,null,run_exp/static/images/task_images/land.jpg,null,,,,,,,96,,,6,,,,,,,,,,,,,,
dig,128,496598,0.0-40.0-3.0,"""event"",""trial"",""time""
""fullscreenenter"",""1"",""3652""
","
","
","""event"",""trial"",""time""
""fullscreenenter"",""1"",""3652""
","
",,,,,,,,,,,,"[{""stimulus"":""run_exp/static/images/task_images/dig.jpg"",""time"":0.7000000476837158},{""stimulus"":""run_exp/static/images/task_images/land.jpg"",""time"":684.1000000238419},{""stimulus"":""run_exp/static/images/task_images/dig.jpg"",""time"":1340.6000000238419}]",[],6,,,,,,,,,,,,,,
harvest,129,497616,0.0-40.0-4.0,"""event"",""trial"",""time""
""fullscreenenter"",""1"",""3652""
","
","
","""event"",""trial"",""time""
""fullscreenenter"",""1"",""3652""
","
",,null,run_exp/static/images/task_images/gems/96.jpg,null,,,,,,,80,,,6,,,,,96,0.838252593,0.833333333,,,,,,,
decision,130,498130,0.0-40.0-5.0,"""event"",""trial"",""time""
""fullscreenenter"",""1"",""3652""
","
","
","""event"",""trial"",""time""
""fullscreenenter"",""1"",""3652""
","
",,512.5,run_exp/static/images/task_images/land.jpg,65,,,,,,,80,,,6,,,,,,,,150184,1,0,FALSE,,,
dig,131,500639,0.0-41.0-0.0,"""event"",""trial"",""time""
""fullscreenenter"",""1"",""3652""
","
","
","""event"",""trial"",""time""
""fullscreenenter"",""1"",""3652""
","
",,,,,,,,,,,,"[{""stimulus"":""run_exp/static/images/task_images/dig.jpg"",""time"":0.5},{""stimulus"":""run_exp/static/images/task_images/land.jpg"",""time"":838},{""stimulus"":""run_exp/static/images/task_images/dig.jpg"",""time"":1670}]",[],6,,,,,,,,,,,,,,
harvest,132,501643,0.0-41.0-1.0,"""event"",""trial"",""time""
""fullscreenenter"",""1"",""3652""
","
","
","""event"",""trial"",""time""
""fullscreenenter"",""1"",""3652""
","
",,null,run_exp/static/images/task_images/gems/80.jpg,null,,,,,,,62,,,6,,,,,80,0.771020633,0.775,,,,,,,
decision,133,502140,0.0-41.0-2.0,"""event"",""trial"",""time""
""fullscreenenter"",""1"",""3652""
","
","
","""event"",""trial"",""time""
""fullscreenenter"",""1"",""3652""
","
",,494.3,run_exp/static/images/task_images/land.jpg,65,,,,,,,62,,,6,,,,,,,,154194,1,1,FALSE,,,
dig,134,504666,0.0-42.0-0.0,"""event"",""trial"",""time""
""fullscreenenter"",""1"",""3652""
","
","
","""event"",""trial"",""time""
""fullscreenenter"",""1"",""3652""
","
",,,,,,,,,,,,"[{""stimulus"":""run_exp/static/images/task_images/dig.jpg"",""time"":0.5},{""stimulus"":""run_exp/static/images/task_images/land.jpg"",""time"":847.8000000715256},{""stimulus"":""run_exp/static/images/task_images/dig.jpg"",""time"":1672.8999999761581}]",[],6,,,,,,,,,,,,,,
harvest,135,505677,0.0-42.0-1.0,"""event"",""trial"",""time""
""fullscreenenter"",""1"",""3652""
","
","
","""event"",""trial"",""time""
""fullscreenenter"",""1"",""3652""
","
",,null,run_exp/static/images/task_images/gems/62.jpg,null,,,,,,,49,,,6,,,,,62,0.782391841,0.790322581,,,,,,,
decision,136,505824,0.0-42.0-2.0,"""event"",""trial"",""time""
""fullscreenenter"",""1"",""3652""
","
","
","""event"",""trial"",""time""
""fullscreenenter"",""1"",""3652""
","
",,144.3000001,run_exp/static/images/task_images/land.jpg,65,,,,,,,49,,,6,,,,,,,,157878,1,2,FALSE,,,
dig,137,508693,0.0-43.0-0.0,"""event"",""trial"",""time""
""fullscreenenter"",""1"",""3652""
","
","
","""event"",""trial"",""time""
""fullscreenenter"",""1"",""3652""
","
",,,,,,,,,,,,"[{""stimulus"":""run_exp/static/images/task_images/dig.jpg"",""time"":0.5},{""stimulus"":""run_exp/static/images/task_images/land.jpg"",""time"":958},{""stimulus"":""run_exp/static/images/task_images/dig.jpg"",""time"":1916.2000000476837}]",[],6,,,,,,,,,,,,,,
harvest,138,509708,0.0-43.0-1.0,"""event"",""trial"",""time""
""fullscreenenter"",""1"",""3652""
","
","
","""event"",""trial"",""time""
""fullscreenenter"",""1"",""3652""
","
",,null,run_exp/static/images/task_images/gems/49.jpg,null,,,,,,,40,,,6,,,,,49,0.80873075,0.816326531,,,,,,,
decision,139,510203,0.0-43.0-2.0,"""event"",""trial"",""time""
""fullscreenenter"",""1"",""3652""
","
","
","""event"",""trial"",""time""
""fullscreenenter"",""1"",""3652""
","
",,492.5,run_exp/static/images/task_images/land.jpg,65,,,,,,,40,,,6,,,,,,,,162257,1,3,FALSE,,,
dig,140,512723,0.0-44.0-0.0,"""event"",""trial"",""time""
""fullscreenenter"",""1"",""3652""
","
","
","""event"",""trial"",""time""
""fullscreenenter"",""1"",""3652""
","
",,,,,,,,,,,,"[{""stimulus"":""run_exp/static/images/task_images/dig.jpg"",""time"":0.3999999761581421},{""stimulus"":""run_exp/static/images/task_images/land.jpg"",""time"":850.5999999046326},{""stimulus"":""run_exp/static/images/task_images/dig.jpg"",""time"":1680.0999999046326}]",[],6,,,,,,,,,,,,,,
harvest,141,513736,0.0-44.0-1.0,"""event"",""trial"",""time""
""fullscreenenter"",""1"",""3652""
","
","
","""event"",""trial"",""time""
""fullscreenenter"",""1"",""3652""
","
",,null,run_exp/static/images/task_images/gems/40.jpg,null,,,,,,,30,,,6,,,,,40,0.739958631,0.75,,,,,,,
decision,142,514258,0.0-44.0-2.0,"""event"",""trial"",""time""
""fullscreenenter"",""1"",""3652""
","
","
","""event"",""trial"",""time""
""fullscreenenter"",""1"",""3652""
","
",,520,run_exp/static/images/task_images/land.jpg,65,,,,,,,30,,,6,,,,,,,,166312,1,4,FALSE,,,
dig,143,516759,0.0-45.0-0.0,"""event"",""trial"",""time""
""fullscreenenter"",""1"",""3652""
","
","
","""event"",""trial"",""time""
""fullscreenenter"",""1"",""3652""
","
",,,,,,,,,,,,"[{""stimulus"":""run_exp/static/images/task_images/dig.jpg"",""time"":0.6000000238418579},{""stimulus"":""run_exp/static/images/task_images/land.jpg"",""time"":830.8999999761581},{""stimulus"":""run_exp/static/images/task_images/dig.jpg"",""time"":1661.3000000715256}]",[],6,,,,,,,,,,,,,,
harvest,144,517776,0.0-45.0-1.0,"""event"",""trial"",""time""
""fullscreenenter"",""1"",""3652""
","
","
","""event"",""trial"",""time""
""fullscreenenter"",""1"",""3652""
","
",,null,run_exp/static/images/task_images/gems/30.jpg,null,,,,,,,25,,,6,,,,,30,0.841968399,0.833333333,,,,,,,
decision,145,518301,0.0-45.0-2.0,"""event"",""trial"",""time""
""fullscreenenter"",""1"",""3652""
","
","
","""event"",""trial"",""time""
""fullscreenenter"",""1"",""3652""
","
",,523.3,run_exp/static/images/task_images/land.jpg,65,,,,,,,25,,,6,,,,,,,,170356,1,5,FALSE,,,
dig,146,520798,0.0-46.0-0.0,"""event"",""trial"",""time""
""fullscreenenter"",""1"",""3652""
","
","
","""event"",""trial"",""time""
""fullscreenenter"",""1"",""3652""
","
",,,,,,,,,,,,"[{""stimulus"":""run_exp/static/images/task_images/dig.jpg"",""time"":0.5},{""stimulus"":""run_exp/static/images/task_images/land.jpg"",""time"":832.6999999284744},{""stimulus"":""run_exp/static/images/task_images/dig.jpg"",""time"":1667.3999999761581}]",[],6,,,,,,,,,,,,,,
harvest,147,521803,0.0-46.0-1.0,"""event"",""trial"",""time""
""fullscreenenter"",""1"",""3652""
","
","
","""event"",""trial"",""time""
""fullscreenenter"",""1"",""3652""
","
",,null,run_exp/static/images/task_images/gems/25.jpg,null,,,,,,,21,,,6,,,,,25,0.828155459,0.84,,,,,,,
decision,148,522299,0.0-46.0-2.0,"""event"",""trial"",""time""
""fullscreenenter"",""1"",""3652""
","
","
","""event"",""trial"",""time""
""fullscreenenter"",""1"",""3652""
","
",,493.3,run_exp/static/images/task_images/land.jpg,65,,,,,,,21,,,6,,,,,,,,174353,1,6,FALSE,,,
dig,149,524827,0.0-47.0-0.0,"""event"",""trial"",""time""
""fullscreenenter"",""1"",""3652""
","
","
","""event"",""trial"",""time""
""fullscreenenter"",""1"",""3652""
","
",,,,,,,,,,,,"[{""stimulus"":""run_exp/static/images/task_images/dig.jpg"",""time"":0.5},{""stimulus"":""run_exp/static/images/task_images/land.jpg"",""time"":848.5},{""stimulus"":""run_exp/static/images/task_images/dig.jpg"",""time"":1676.1000000238419}]",[],6,,,,,,,,,,,,,,
harvest,150,525837,0.0-47.0-1.0,"""event"",""trial"",""time""
""fullscreenenter"",""1"",""3652""
","
","
","""event"",""trial"",""time""
""fullscreenenter"",""1"",""3652""
","
",,null,run_exp/static/images/task_images/gems/21.jpg,null,,,,,,,15,,,6,,,,,21,0.719958494,0.714285714,,,,,,,
decision,151,526385,0.0-47.0-2.0,"""event"",""trial"",""time""
""fullscreenenter"",""1"",""3652""
","
","
","""event"",""trial"",""time""
""fullscreenenter"",""1"",""3652""
","
",,545.4,run_exp/static/images/task_images/land.jpg,65,,,,,,,15,,,6,,,,,,,,178439,1,7,FALSE,,,
dig,152,528853,0.0-48.0-0.0,"""event"",""trial"",""time""
""fullscreenenter"",""1"",""3652""
","
","
","""event"",""trial"",""time""
""fullscreenenter"",""1"",""3652""
","
",,,,,,,,,,,,"[{""stimulus"":""run_exp/static/images/task_images/dig.jpg"",""time"":0.5},{""stimulus"":""run_exp/static/images/task_images/land.jpg"",""time"":828.2000000476837},{""stimulus"":""run_exp/static/images/task_images/dig.jpg"",""time"":1640.2999999523163}]",[],6,,,,,,,,,,,,,,
harvest,153,529865,0.0-48.0-1.0,"""event"",""trial"",""time""
""fullscreenenter"",""1"",""3652""
","
","
","""event"",""trial"",""time""
""fullscreenenter"",""1"",""3652""
","
",,null,run_exp/static/images/task_images/gems/15.jpg,null,,,,,,,12,,,6,,,,,15,0.816280467,0.8,,,,,,,
decision,154,530741,0.0-48.0-2.0,"""event"",""trial"",""time""
""fullscreenenter"",""1"",""3652""
","
","
","""event"",""trial"",""time""
""fullscreenenter"",""1"",""3652""
","
",,873.8000001,run_exp/static/images/task_images/land.jpg,76,,,,,,,12,,,6,,,,,,,,182795,1,8,TRUE,,,
travel,155,539888,0.0-49.0-0.0,"""event"",""trial"",""time""
""fullscreenenter"",""1"",""3652""
","
","
","""event"",""trial"",""time""
""fullscreenenter"",""1"",""3652""
","
",,,,,,,,,,,,"[{""stimulus"":""run_exp/static/images/task_images/rocket-01.jpg"",""time"":0.5},{""stimulus"":""run_exp/static/images/task_images/rocket-02.jpg"",""time"":1030.1999999284744},{""stimulus"":""run_exp/static/images/task_images/rocket-03.jpg"",""time"":2042.7999999523163},{""stimulus"":""run_exp/static/images/task_images/rocket-04.jpg"",""time"":3054},{""stimulus"":""run_exp/static/images/task_images/rocket-05.jpg"",""time"":4064.600000023842},{""stimulus"":""run_exp/static/images/task_images/rocket-06.jpg"",""time"":5081.299999952316},{""stimulus"":""run_exp/static/images/task_images/rocket-07.jpg"",""time"":6087.699999928474},{""stimulus"":""run_exp/static/images/task_images/rocket-08.jpg"",""time"":7109.5},{""stimulus"":""run_exp/static/images/task_images/rocket-09.jpg"",""time"":8116.100000023842}]",[],6,,,,,,,,,,,,,,
alien_welcome,156,544896,0.0-49.0-1.0,"""event"",""trial"",""time""
""fullscreenenter"",""1"",""3652""
","
","
","""event"",""trial"",""time""
""fullscreenenter"",""1"",""3652""
","
",,null,run_exp/static/images/task_images/aliens/old_aliens/planet/alien_planet-13.jpg,null,,,,,,,,,,,,,13,"29,15,76,78,64,40,13,60,1,43,57,44,62,28,38,45,30,32,58,39,22,70,49,23,47,48,8,61,42,17,5,20,6,50,74,27,63,18,65,26",,,,,,,,,,
land,157,545413,0.0-49.0-2.0,"""event"",""trial"",""time""
""fullscreenenter"",""1"",""3652""
","
","
","""event"",""trial"",""time""
""fullscreenenter"",""1"",""3652""
","
",,null,run_exp/static/images/task_images/land.jpg,null,,,,,,,95,,,7,,,,,,,,,,,,,,
dig,158,547425,0.0-49.0-3.0,"""event"",""trial"",""time""
""fullscreenenter"",""1"",""3652""
","
","
","""event"",""trial"",""time""
""fullscreenenter"",""1"",""3652""
","
",,,,,,,,,,,,"[{""stimulus"":""run_exp/static/images/task_images/dig.jpg"",""time"":0.5},{""stimulus"":""run_exp/static/images/task_images/land.jpg"",""time"":671.5999999046326},{""stimulus"":""run_exp/static/images/task_images/dig.jpg"",""time"":1347.6999999284744}]",[],7,,,,,,,,,,,,,,
harvest,159,548428,0.0-49.0-4.0,"""event"",""trial"",""time""
""fullscreenenter"",""1"",""3652""
","
","
","""event"",""trial"",""time""
""fullscreenenter"",""1"",""3652""
","
",,null,run_exp/static/images/task_images/gems/95.jpg,null,,,,,,,79,,,7,,,,,95,0.829111437,0.831578947,,,,,,,
decision,160,548799,0.0-49.0-5.0,"""event"",""trial"",""time""
""fullscreenenter"",""1"",""3652""
","
","
","""event"",""trial"",""time""
""fullscreenenter"",""1"",""3652""
","
",,368,run_exp/static/images/task_images/land.jpg,65,,,,,,,79,,,7,,,,,,,,200853,1,0,FALSE,,,
dig,161,551446,0.0-50.0-0.0,"""event"",""trial"",""time""
""fullscreenenter"",""1"",""3652""
","
","
","""event"",""trial"",""time""
""fullscreenenter"",""1"",""3652""
","
",,,,,,,,,,,,"[{""stimulus"":""run_exp/static/images/task_images/dig.jpg"",""time"":0.6000000238418579},{""stimulus"":""run_exp/static/images/task_images/land.jpg"",""time"":893.8999999761581},{""stimulus"":""run_exp/static/images/task_images/dig.jpg"",""time"":1761.2999999523163}]",[],7,,,,,,,,,,,,,,
harvest,162,552451,0.0-50.0-1.0,"""event"",""trial"",""time""
""fullscreenenter"",""1"",""3652""
","
","
","""event"",""trial"",""time""
""fullscreenenter"",""1"",""3652""
","
",,null,run_exp/static/images/task_images/gems/79.jpg,null,,,,,,,67,,,7,,,,,79,0.847384978,0.848101266,,,,,,,
decision,163,552940,0.0-50.0-2.0,"""event"",""trial"",""time""
""fullscreenenter"",""1"",""3652""
","
","
","""event"",""trial"",""time""
""fullscreenenter"",""1"",""3652""
","
",,486.5,run_exp/static/images/task_images/land.jpg,65,,,,,,,67,,,7,,,,,,,,204994,1,1,FALSE,,,
dig,164,555472,0.0-51.0-0.0,"""event"",""trial"",""time""
""fullscreenenter"",""1"",""3652""
","
","
","""event"",""trial"",""time""
""fullscreenenter"",""1"",""3652""
","
",,,,,,,,,,,,"[{""stimulus"":""run_exp/static/images/task_images/dig.jpg"",""time"":0.2999999523162842},{""stimulus"":""run_exp/static/images/task_images/land.jpg"",""time"":848.7999999523163},{""stimulus"":""run_exp/static/images/task_images/dig.jpg"",""time"":1678.6999999284744}]",[],7,,,,,,,,,,,,,,
harvest,165,556480,0.0-51.0-1.0,"""event"",""trial"",""time""
""fullscreenenter"",""1"",""3652""
","
","
","""event"",""trial"",""time""
""fullscreenenter"",""1"",""3652""
","
",,null,run_exp/static/images/task_images/gems/67.jpg,null,,,,,,,54,,,7,,,,,67,0.806290058,0.805970149,,,,,,,
decision,166,556801,0.0-51.0-2.0,"""event"",""trial"",""time""
""fullscreenenter"",""1"",""3652""
","
","
","""event"",""trial"",""time""
""fullscreenenter"",""1"",""3652""
","
",,318.1,run_exp/static/images/task_images/land.jpg,65,,,,,,,54,,,7,,,,,,,,208855,1,2,FALSE,,,
dig,167,559496,0.0-52.0-0.0,"""event"",""trial"",""time""
""fullscreenenter"",""1"",""3652""
","
","
","""event"",""trial"",""time""
""fullscreenenter"",""1"",""3652""
","
",,,,,,,,,,,,"[{""stimulus"":""run_exp/static/images/task_images/dig.jpg"",""time"":0.5},{""stimulus"":""run_exp/static/images/task_images/land.jpg"",""time"":909.2999999523163},{""stimulus"":""run_exp/static/images/task_images/dig.jpg"",""time"":1803.1999999284744}]",[],7,,,,,,,,,,,,,,
harvest,168,560500,0.0-52.0-1.0,"""event"",""trial"",""time""
""fullscreenenter"",""1"",""3652""
","
","
","""event"",""trial"",""time""
""fullscreenenter"",""1"",""3652""
","
",,null,run_exp/static/images/task_images/gems/54.jpg,null,,,,,,,45,,,7,,,,,54,0.836652466,0.833333333,,,,,,,
decision,169,561140,0.0-52.0-2.0,"""event"",""trial"",""time""
""fullscreenenter"",""1"",""3652""
","
","
","""event"",""trial"",""time""
""fullscreenenter"",""1"",""3652""
","
",,637.3000001,run_exp/static/images/task_images/land.jpg,65,,,,,,,45,,,7,,,,,,,,213194,1,3,FALSE,,,
dig,170,563517,0.0-53.0-0.0,"""event"",""trial"",""time""
""fullscreenenter"",""1"",""3652""
","
","
","""event"",""trial"",""time""
""fullscreenenter"",""1"",""3652""
","
",,,,,,,,,,,,"[{""stimulus"":""run_exp/static/images/task_images/dig.jpg"",""time"":0.7999999523162842},{""stimulus"":""run_exp/static/images/task_images/land.jpg"",""time"":795.2000000476837},{""stimulus"":""run_exp/static/images/task_images/dig.jpg"",""time"":1580.3999999761581}]",[],7,,,,,,,,,,,,,,
harvest,171,564524,0.0-53.0-1.0,"""event"",""trial"",""time""
""fullscreenenter"",""1"",""3652""
","
","
","""event"",""trial"",""time""
""fullscreenenter"",""1"",""3652""
","
",,null,run_exp/static/images/task_images/gems/45.jpg,null,,,,,,,34,,,7,,,,,45,0.746900266,0.755555556,,,,,,,
decision,172,565039,0.0-53.0-2.0,"""event"",""trial"",""time""
""fullscreenenter"",""1"",""3652""
","
","
","""event"",""trial"",""time""
""fullscreenenter"",""1"",""3652""
","
",,512.9,run_exp/static/images/task_images/land.jpg,65,,,,,,,34,,,7,,,,,,,,217094,1,4,FALSE,,,
dig,173,567537,0.0-54.0-0.0,"""event"",""trial"",""time""
""fullscreenenter"",""1"",""3652""
","
","
","""event"",""trial"",""time""
""fullscreenenter"",""1"",""3652""
","
",,,,,,,,,,,,"[{""stimulus"":""run_exp/static/images/task_images/dig.jpg"",""time"":0.5999999046325684},{""stimulus"":""run_exp/static/images/task_images/land.jpg"",""time"":846},{""stimulus"":""run_exp/static/images/task_images/dig.jpg"",""time"":1661}]",[],7,,,,,,,,,,,,,,
harvest,174,568550,0.0-54.0-1.0,"""event"",""trial"",""time""
""fullscreenenter"",""1"",""3652""
","
","
","""event"",""trial"",""time""
""fullscreenenter"",""1"",""3652""
","
",,null,run_exp/static/images/task_images/gems/34.jpg,null,,,,,,,27,,,7,,,,,34,0.782636084,0.794117647,,,,,,,
decision,175,569088,0.0-54.0-2.0,"""event"",""trial"",""time""
""fullscreenenter"",""1"",""3652""
","
","
","""event"",""trial"",""time""
""fullscreenenter"",""1"",""3652""
","
",,535.7,run_exp/static/images/task_images/land.jpg,65,,,,,,,27,,,7,,,,,,,,221142,1,5,FALSE,,,
dig,176,571566,0.0-55.0-0.0,"""event"",""trial"",""time""
""fullscreenenter"",""1"",""3652""
","
","
","""event"",""trial"",""time""
""fullscreenenter"",""1"",""3652""
","
",,,,,,,,,,,,"[{""stimulus"":""run_exp/static/images/task_images/dig.jpg"",""time"":0.3999999761581421},{""stimulus"":""run_exp/static/images/task_images/land.jpg"",""time"":827.7999999523163},{""stimulus"":""run_exp/static/images/task_images/dig.jpg"",""time"":1658.1000000238419}]",[],7,,,,,,,,,,,,,,
harvest,177,572583,0.0-55.0-1.0,"""event"",""trial"",""time""
""fullscreenenter"",""1"",""3652""
","
","
","""event"",""trial"",""time""
""fullscreenenter"",""1"",""3652""
","
",,null,run_exp/static/images/task_images/gems/27.jpg,null,,,,,,,23,,,7,,,,,27,0.838162543,0.851851852,,,,,,,
decision,178,573234,0.0-55.0-2.0,"""event"",""trial"",""time""
""fullscreenenter"",""1"",""3652""
","
","
","""event"",""trial"",""time""
""fullscreenenter"",""1"",""3652""
","
",,648.2,run_exp/static/images/task_images/land.jpg,65,,,,,,,23,,,7,,,,,,,,225288,1,6,FALSE,,,
dig,179,575605,0.0-56.0-0.0,"""event"",""trial"",""time""
""fullscreenenter"",""1"",""3652""
","
","
","""event"",""trial"",""time""
""fullscreenenter"",""1"",""3652""
","
",,,,,,,,,,,,"[{""stimulus"":""run_exp/static/images/task_images/dig.jpg"",""time"":0.40000009536743164},{""stimulus"":""run_exp/static/images/task_images/land.jpg"",""time"":795.8000000715256},{""stimulus"":""run_exp/static/images/task_images/dig.jpg"",""time"":1578.6000000238419}]",[],7,,,,,,,,,,,,,,
harvest,180,576622,0.0-56.0-1.0,"""event"",""trial"",""time""
""fullscreenenter"",""1"",""3652""
","
","
","""event"",""trial"",""time""
""fullscreenenter"",""1"",""3652""
","
",,null,run_exp/static/images/task_images/gems/23.jpg,null,,,,,,,18,,,7,,,,,23,0.781571747,0.782608696,,,,,,,
decision,181,577291,0.0-56.0-2.0,"""event"",""trial"",""time""
""fullscreenenter"",""1"",""3652""
","
","
","""event"",""trial"",""time""
""fullscreenenter"",""1"",""3652""
","
",,667,run_exp/static/images/task_images/land.jpg,76,,,,,,,18,,,7,,,,,,,,229345,1,7,TRUE,,,
travel,182,586645,0.0-57.0-0.0,"""event"",""trial"",""time""
""fullscreenenter"",""1"",""3652""
","
","
","""event"",""trial"",""time""
""fullscreenenter"",""1"",""3652""
","
",,,,,,,,,,,,"[{""stimulus"":""run_exp/static/images/task_images/rocket-01.jpg"",""time"":0.5},{""stimulus"":""run_exp/static/images/task_images/rocket-02.jpg"",""time"":1048.6999999284744},{""stimulus"":""run_exp/static/images/task_images/rocket-03.jpg"",""time"":2083.399999976158},{""stimulus"":""run_exp/static/images/task_images/rocket-04.jpg"",""time"":3117.899999976158},{""stimulus"":""run_exp/static/images/task_images/rocket-05.jpg"",""time"":4165.299999952316},{""stimulus"":""run_exp/static/images/task_images/rocket-06.jpg"",""time"":5189.699999928474},{""stimulus"":""run_exp/static/images/task_images/rocket-07.jpg"",""time"":6238.600000023842},{""stimulus"":""run_exp/static/images/task_images/rocket-08.jpg"",""time"":7276.399999976158},{""stimulus"":""run_exp/static/images/task_images/rocket-09.jpg"",""time"":8310.399999976158}]",[],7,,,,,,,,,,,,,,
alien_welcome,183,591660,0.0-57.0-1.0,"""event"",""trial"",""time""
""fullscreenenter"",""1"",""3652""
","
","
","""event"",""trial"",""time""
""fullscreenenter"",""1"",""3652""
","
",,null,run_exp/static/images/task_images/aliens/old_aliens/planet/alien_planet-60.jpg,null,,,,,,,,,,,,,60,"29,15,76,78,64,40,13,60,1,43,57,44,62,28,38,45,30,32,58,39,22,70,49,23,47,48,8,61,42,17,5,20,6,50,74,27,63,18,65,26",,,,,,,,,,
land,184,592164,0.0-57.0-2.0,"""event"",""trial"",""time""
""fullscreenenter"",""1"",""3652""
","
","
","""event"",""trial"",""time""
""fullscreenenter"",""1"",""3652""
","
",,null,run_exp/static/images/task_images/land.jpg,null,,,,,,,97,,,8,,,,,,,,,,,,,,
dig,185,594184,0.0-57.0-3.0,"""event"",""trial"",""time""
""fullscreenenter"",""1"",""3652""
","
","
","""event"",""trial"",""time""
""fullscreenenter"",""1"",""3652""
","
",,,,,,,,,,,,"[{""stimulus"":""run_exp/static/images/task_images/dig.jpg"",""time"":0.5},{""stimulus"":""run_exp/static/images/task_images/land.jpg"",""time"":671.5},{""stimulus"":""run_exp/static/images/task_images/dig.jpg"",""time"":1346.8999999761581}]",[],8,,,,,,,,,,,,,,
harvest,186,595188,0.0-57.0-4.0,"""event"",""trial"",""time""
""fullscreenenter"",""1"",""3652""
","
","
","""event"",""trial"",""time""
""fullscreenenter"",""1"",""3652""
","
",,null,run_exp/static/images/task_images/gems/97.jpg,null,,,,,,,77,,,8,,,,,97,0.788798047,0.793814433,,,,,,,
decision,187,596234,0.0-57.0-5.0,"""event"",""trial"",""time""
""fullscreenenter"",""1"",""3652""
","
","
","""event"",""trial"",""time""
""fullscreenenter"",""1"",""3652""
","
",,1043.2,run_exp/static/images/task_images/land.jpg,65,,,,,,,77,,,8,,,,,,,,248288,1,0,FALSE,,,
dig,188,598209,0.0-58.0-0.0,"""event"",""trial"",""time""
""fullscreenenter"",""1"",""3652""
","
","
","""event"",""trial"",""time""
""fullscreenenter"",""1"",""3652""
","
",,,,,,,,,,,,"[{""stimulus"":""run_exp/static/images/task_images/dig.jpg"",""time"":0.5},{""stimulus"":""run_exp/static/images/task_images/land.jpg"",""time"":659},{""stimulus"":""run_exp/static/images/task_images/dig.jpg"",""time"":1320.7999999523163}]",[],8,,,,,,,,,,,,,,
harvest,189,599217,0.0-58.0-1.0,"""event"",""trial"",""time""
""fullscreenenter"",""1"",""3652""
","
","
","""event"",""trial"",""time""
""fullscreenenter"",""1"",""3652""
","
",,null,run_exp/static/images/task_images/gems/77.jpg,null,,,,,,,66,,,8,,,,,77,0.853075124,0.857142857,,,,,,,
decision,190,599801,0.0-58.0-2.0,"""event"",""trial"",""time""
""fullscreenenter"",""1"",""3652""
","
","
","""event"",""trial"",""time""
""fullscreenenter"",""1"",""3652""
","
",,581.2,run_exp/static/images/task_images/land.jpg,65,,,,,,,66,,,8,,,,,,,,251855,1,1,FALSE,,,
dig,191,602232,0.0-59.0-0.0,"""event"",""trial"",""time""
""fullscreenenter"",""1"",""3652""
","
","
","""event"",""trial"",""time""
""fullscreenenter"",""1"",""3652""
","
",,,,,,,,,,,,"[{""stimulus"":""run_exp/static/images/task_images/dig.jpg"",""time"":0.3999999761581421},{""stimulus"":""run_exp/static/images/task_images/land.jpg"",""time"":822.2999999523163},{""stimulus"":""run_exp/static/images/task_images/dig.jpg"",""time"":1622.6999999284744}]",[],8,,,,,,,,,,,,,,
harvest,192,603252,0.0-59.0-1.0,"""event"",""trial"",""time""
""fullscreenenter"",""1"",""3652""
","
","
","""event"",""trial"",""time""
""fullscreenenter"",""1"",""3652""
","
",,null,run_exp/static/images/task_images/gems/66.jpg,null,,,,,,,58,,,8,,,,,66,0.87409784,0.878787879,,,,,,,
decision,193,604024,0.0-59.0-2.0,"""event"",""trial"",""time""
""fullscreenenter"",""1"",""3652""
","
","
","""event"",""trial"",""time""
""fullscreenenter"",""1"",""3652""
","
",,770.1,run_exp/static/images/task_images/land.jpg,65,,,,,,,58,,,8,,,,,,,,256078,1,2,FALSE,,,
dig,194,606258,0.0-60.0-0.0,"""event"",""trial"",""time""
""fullscreenenter"",""1"",""3652""
","
","
","""event"",""trial"",""time""
""fullscreenenter"",""1"",""3652""
","
",,,,,,,,,,,,"[{""stimulus"":""run_exp/static/images/task_images/dig.jpg"",""time"":0.20000004768371582},{""stimulus"":""run_exp/static/images/task_images/land.jpg"",""time"":759.6000000238419},{""stimulus"":""run_exp/static/images/task_images/dig.jpg"",""time"":1497.2000000476837}]",[],8,,,,,,,,,,,,,,
harvest,195,607264,0.0-60.0-1.0,"""event"",""trial"",""time""
""fullscreenenter"",""1"",""3652""
","
","
","""event"",""trial"",""time""
""fullscreenenter"",""1"",""3652""
","
",,null,run_exp/static/images/task_images/gems/58.jpg,null,,,,,,,48,,,8,,,,,58,0.821786323,0.827586207,,,,,,,
decision,196,607604,0.0-60.0-2.0,"""event"",""trial"",""time""
""fullscreenenter"",""1"",""3652""
","
","
","""event"",""trial"",""time""
""fullscreenenter"",""1"",""3652""
","
",,338.3000001,run_exp/static/images/task_images/land.jpg,65,,,,,,,48,,,8,,,,,,,,259659,1,3,FALSE,,,
dig,197,610282,0.0-61.0-0.0,"""event"",""trial"",""time""
""fullscreenenter"",""1"",""3652""
","
","
","""event"",""trial"",""time""
""fullscreenenter"",""1"",""3652""
","
",,,,,,,,,,,,"[{""stimulus"":""run_exp/static/images/task_images/dig.jpg"",""time"":0.3999999761581421},{""stimulus"":""run_exp/static/images/task_images/land.jpg"",""time"":892.7000000476837},{""stimulus"":""run_exp/static/images/task_images/dig.jpg"",""time"":1788}]",[],8,,,,,,,,,,,,,,
harvest,198,611294,0.0-61.0-1.0,"""event"",""trial"",""time""
""fullscreenenter"",""1"",""3652""
","
","
","""event"",""trial"",""time""
""fullscreenenter"",""1"",""3652""
","
",,null,run_exp/static/images/task_images/gems/48.jpg,null,,,,,,,38,,,8,,,,,48,0.786948657,0.791666667,,,,,,,
decision,199,613340,0.0-61.0-2.0,"""event"",""trial"",""time""
""fullscreenenter"",""1"",""3652""
","
","
","""event"",""trial"",""time""
""fullscreenenter"",""1"",""3652""
","
",,2043.6,run_exp/static/images/task_images/land.jpg,65,,,,,,,38,,,8,,,,,,,,265394,1,4,FALSE,,,
dig,200,614309,0.0-62.0-0.0,"""event"",""trial"",""time""
""fullscreenenter"",""1"",""3652""
","
","
","""event"",""trial"",""time""
""fullscreenenter"",""1"",""3652""
","
",,,,,,,,,,,,"[{""stimulus"":""run_exp/static/images/task_images/dig.jpg"",""time"":0.5},{""stimulus"":""run_exp/static/images/task_images/land.jpg"",""time"":325.10000002384186},{""stimulus"":""run_exp/static/images/task_images/dig.jpg"",""time"":652.1000000238419}]",[],8,,,,,,,,,,,,,,
harvest,201,615324,0.0-62.0-1.0,"""event"",""trial"",""time""
""fullscreenenter"",""1"",""3652""
","
","
","""event"",""trial"",""time""
""fullscreenenter"",""1"",""3652""
","
",,null,run_exp/static/images/task_images/gems/38.jpg,null,,,,,,,28,,,8,,,,,38,0.749879729,0.736842105,,,,,,,
decision,202,616025,0.0-62.0-2.0,"""event"",""trial"",""time""
""fullscreenenter"",""1"",""3652""
","
","
","""event"",""trial"",""time""
""fullscreenenter"",""1"",""3652""
","
",,698.4,run_exp/static/images/task_images/land.jpg,65,,,,,,,28,,,8,,,,,,,,268079,1,5,FALSE,,,
dig,203,618336,0.0-63.0-0.0,"""event"",""trial"",""time""
""fullscreenenter"",""1"",""3652""
","
","
","""event"",""trial"",""time""
""fullscreenenter"",""1"",""3652""
","
",,,,,,,,,,,,"[{""stimulus"":""run_exp/static/images/task_images/dig.jpg"",""time"":0.5},{""stimulus"":""run_exp/static/images/task_images/land.jpg"",""time"":769.5999999046326},{""stimulus"":""run_exp/static/images/task_images/dig.jpg"",""time"":1538.1999999284744}]",[],8,,,,,,,,,,,,,,
harvest,204,619340,0.0-63.0-1.0,"""event"",""trial"",""time""
""fullscreenenter"",""1"",""3652""
","
","
","""event"",""trial"",""time""
""fullscreenenter"",""1"",""3652""
","
",,null,run_exp/static/images/task_images/gems/28.jpg,null,,,,,,,19,,,8,,,,,28,0.665689485,0.678571429,,,,,,,
decision,205,619834,0.0-63.0-2.0,"""event"",""trial"",""time""
""fullscreenenter"",""1"",""3652""
","
","
","""event"",""trial"",""time""
""fullscreenenter"",""1"",""3652""
","
",,490.9,run_exp/static/images/task_images/land.jpg,65,,,,,,,19,,,8,,,,,,,,271888,1,6,FALSE,,,
dig,206,622356,0.0-64.0-0.0,"""event"",""trial"",""time""
""fullscreenenter"",""1"",""3652""
","
","
","""event"",""trial"",""time""
""fullscreenenter"",""1"",""3652""
","
",,,,,,,,,,,,"[{""stimulus"":""run_exp/static/images/task_images/dig.jpg"",""time"":0.5},{""stimulus"":""run_exp/static/images/task_images/land.jpg"",""time"":848.7000000476837},{""stimulus"":""run_exp/static/images/task_images/dig.jpg"",""time"":1680.5}]",[],8,,,,,,,,,,,,,,
harvest,207,623362,0.0-64.0-1.0,"""event"",""trial"",""time""
""fullscreenenter"",""1"",""3652""
","
","
","""event"",""trial"",""time""
""fullscreenenter"",""1"",""3652""
","
",,null,run_exp/static/images/task_images/gems/19.jpg,null,,,,,,,15,,,8,,,,,19,0.803873673,0.789473684,,,,,,,
decision,208,623402,0.0-64.0-2.0,"""event"",""trial"",""time""
""fullscreenenter"",""1"",""3652""
","
","
","""event"",""trial"",""time""
""fullscreenenter"",""1"",""3652""
","
",,38.20000005,run_exp/static/images/task_images/land.jpg,76,,,,,,,15,,,8,,,,,,,,275456,1,7,TRUE,,,
travel,209,633371,0.0-65.0-0.0,"""event"",""trial"",""time""
""fullscreenenter"",""1"",""3652""
","
","
","""event"",""trial"",""time""
""fullscreenenter"",""1"",""3652""
","
",,,,,,,,,,,,"[{""stimulus"":""run_exp/static/images/task_images/rocket-01.jpg"",""time"":0.5},{""stimulus"":""run_exp/static/images/task_images/rocket-02.jpg"",""time"":1114.5},{""stimulus"":""run_exp/static/images/task_images/rocket-03.jpg"",""time"":2229.600000023842},{""stimulus"":""run_exp/static/images/task_images/rocket-04.jpg"",""time"":3328.1999999284744},{""stimulus"":""run_exp/static/images/task_images/rocket-05.jpg"",""time"":4441.100000023842},{""stimulus"":""run_exp/static/images/task_images/rocket-06.jpg"",""time"":5533.799999952316},{""stimulus"":""run_exp/static/images/task_images/rocket-07.jpg"",""time"":6649},{""stimulus"":""run_exp/static/images/task_images/rocket-08.jpg"",""time"":7750.799999952316},{""stimulus"":""run_exp/static/images/task_images/rocket-09.jpg"",""time"":8856.899999976158}]",[],8,,,,,,,,,,,,,,
alien_welcome,210,638385,0.0-65.0-1.0,"""event"",""trial"",""time""
""fullscreenenter"",""1"",""3652""
","
","
","""event"",""trial"",""time""
""fullscreenenter"",""1"",""3652""
","
",,null,run_exp/static/images/task_images/aliens/old_aliens/planet/alien_planet-1.jpg,null,,,,,,,,,,,,,1,"29,15,76,78,64,40,13,60,1,43,57,44,62,28,38,45,30,32,58,39,22,70,49,23,47,48,8,61,42,17,5,20,6,50,74,27,63,18,65,26",,,,,,,,,,
land,211,638901,0.0-65.0-2.0,"""event"",""trial"",""time""
""fullscreenenter"",""1"",""3652""
","
","
","""event"",""trial"",""time""
""fullscreenenter"",""1"",""3652""
","
",,null,run_exp/static/images/task_images/land.jpg,null,,,,,,,100,,,9,,,,,,,,,,,,,,
dig,212,640911,0.0-65.0-3.0,"""event"",""trial"",""time""
""fullscreenenter"",""1"",""3652""
","
","
","""event"",""trial"",""time""
""fullscreenenter"",""1"",""3652""
","
",,,,,,,,,,,,"[{""stimulus"":""run_exp/static/images/task_images/dig.jpg"",""time"":0.5},{""stimulus"":""run_exp/static/images/task_images/land.jpg"",""time"":673.1000000238419},{""stimulus"":""run_exp/static/images/task_images/dig.jpg"",""time"":1348.7000000476837}]",[],9,,,,,,,,,,,,,,
harvest,213,641915,0.0-65.0-4.0,"""event"",""trial"",""time""
""fullscreenenter"",""1"",""3652""
","
","
","""event"",""trial"",""time""
""fullscreenenter"",""1"",""3652""
","
",,null,run_exp/static/images/task_images/gems/100.jpg,null,,,,,,,26,,,9,,,,,100,0.256473437,0.26,,,,,,,
decision,214,642541,0.0-65.0-5.0,"""event"",""trial"",""time""
""fullscreenenter"",""1"",""3652""
","
","
","""event"",""trial"",""time""
""fullscreenenter"",""1"",""3652""
","
",,623.0999999,run_exp/static/images/task_images/land.jpg,65,,,,,,,26,,,9,,,,,,,,294595,1,0,FALSE,,,
dig,215,644927,0.0-66.0-0.0,"""event"",""trial"",""time""
""fullscreenenter"",""1"",""3652""
","
","
","""event"",""trial"",""time""
""fullscreenenter"",""1"",""3652""
","
",,,,,,,,,,,,"[{""stimulus"":""run_exp/static/images/task_images/dig.jpg"",""time"":0.5},{""stimulus"":""run_exp/static/images/task_images/land.jpg"",""time"":794.2000000476837},{""stimulus"":""run_exp/static/images/task_images/dig.jpg"",""time"":1593.7000000476837}]",[],9,,,,,,,,,,,,,,
harvest,216,645931,0.0-66.0-1.0,"""event"",""trial"",""time""
""fullscreenenter"",""1"",""3652""
","
","
","""event"",""trial"",""time""
""fullscreenenter"",""1"",""3652""
","
",,null,run_exp/static/images/task_images/gems/26.jpg,null,,,,,,,5,,,9,,,,,26,0.181983519,0.192307692,,,,,,,
decision,217,646567,0.0-66.0-2.0,"""event"",""trial"",""time""
""fullscreenenter"",""1"",""3652""
","
","
","""event"",""trial"",""time""
""fullscreenenter"",""1"",""3652""
","
",,634.1,run_exp/static/images/task_images/land.jpg,76,,,,,,,5,,,9,,,,,,,,298621,1,1,TRUE,,,
travel,218,655950,0.0-67.0-0.0,"""event"",""trial"",""time""
""fullscreenenter"",""1"",""3652""
","
","
","""event"",""trial"",""time""
""fullscreenenter"",""1"",""3652""
","
",,,,,,,,,,,,"[{""stimulus"":""run_exp/static/images/task_images/rocket-01.jpg"",""time"":0.5},{""stimulus"":""run_exp/static/images/task_images/rocket-02.jpg"",""time"":1051.8999999761581},{""stimulus"":""run_exp/static/images/task_images/rocket-03.jpg"",""time"":2082},{""stimulus"":""run_exp/static/images/task_images/rocket-04.jpg"",""time"":3129.399999976158},{""stimulus"":""run_exp/static/images/task_images/rocket-05.jpg"",""time"":4167.899999976158},{""stimulus"":""run_exp/static/images/task_images/rocket-06.jpg"",""time"":5204.100000023842},{""stimulus"":""run_exp/static/images/task_images/rocket-07.jpg"",""time"":6254.100000023842},{""stimulus"":""run_exp/static/images/task_images/rocket-08.jpg"",""time"":7285.199999928474},{""stimulus"":""run_exp/static/images/task_images/rocket-09.jpg"",""time"":8336.299999952316}]",[],9,,,,,,,,,,,,,,
alien_welcome,219,660961,0.0-67.0-1.0,"""event"",""trial"",""time""
""fullscreenenter"",""1"",""3652""
","
","
","""event"",""trial"",""time""
""fullscreenenter"",""1"",""3652""
","
",,null,run_exp/static/images/task_images/aliens/old_aliens/planet/alien_planet-43.jpg,null,,,,,,,,,,,,,43,"29,15,76,78,64,40,13,60,1,43,57,44,62,28,38,45,30,32,58,39,22,70,49,23,47,48,8,61,42,17,5,20,6,50,74,27,63,18,65,26",,,,,,,,,,
land,220,661479,0.0-67.0-2.0,"""event"",""trial"",""time""
""fullscreenenter"",""1"",""3652""
","
","
","""event"",""trial"",""time""
""fullscreenenter"",""1"",""3652""
","
",,null,run_exp/static/images/task_images/land.jpg,null,,,,,,,99,,,10,,,,,,,,,,,,,,
dig,221,663490,0.0-67.0-3.0,"""event"",""trial"",""time""
""fullscreenenter"",""1"",""3652""
","
","
","""event"",""trial"",""time""
""fullscreenenter"",""1"",""3652""
","
",,,,,,,,,,,,"[{""stimulus"":""run_exp/static/images/task_images/dig.jpg"",""time"":0.5},{""stimulus"":""run_exp/static/images/task_images/land.jpg"",""time"":684.2999999523163},{""stimulus"":""run_exp/static/images/task_images/dig.jpg"",""time"":1337.3999999761581}]",[],10,,,,,,,,,,,,,,
harvest,222,664505,0.0-67.0-4.0,"""event"",""trial"",""time""
""fullscreenenter"",""1"",""3652""
","
","
","""event"",""trial"",""time""
""fullscreenenter"",""1"",""3652""
","
",,null,run_exp/static/images/task_images/gems/99.jpg,null,,,,,,,19,,,10,,,,,99,0.191398203,0.191919192,,,,,,,
decision,223,665085,0.0-67.0-5.0,"""event"",""trial"",""time""
""fullscreenenter"",""1"",""3652""
","
","
","""event"",""trial"",""time""
""fullscreenenter"",""1"",""3652""
","
",,578.3,run_exp/static/images/task_images/land.jpg,65,,,,,,,19,,,10,,,,,,,,317139,1,0,TRUE,,,
end_of_block_continue,224,673983,0.0-68.0-0.0,"""event"",""trial"",""time""
""fullscreenenter"",""1"",""3652""
","
","
","""event"",""trial"",""time""
""fullscreenenter"",""1"",""3652""
","
",,null,run_exp/static/audio/clip_32_block_end.m4a,,,,,,,null,,,,,,,,,,,,,,,,,,
alien_welcome,225,678994,0.0-69.0-0.0,"""event"",""trial"",""time""
""fullscreenenter"",""1"",""3652""
","
","
","""event"",""trial"",""time""
""fullscreenenter"",""1"",""3652""
","
",,null,run_exp/static/images/task_images/aliens/old_aliens/planet/alien_planet-57.jpg,null,,,,,,,,,,,,,57,"29,15,76,78,64,40,13,60,1,43,57,44,62,28,38,45,30,32,58,39,22,70,49,23,47,48,8,61,42,17,5,20,6,50,74,27,63,18,65,26",,,,,,,,,,
land,226,679506,0.0-69.0-1.0,"""event"",""trial"",""time""
""fullscreenenter"",""1"",""3652""
","
","
","""event"",""trial"",""time""
""fullscreenenter"",""1"",""3652""
","
",,null,run_exp/static/images/task_images/land.jpg,null,,,,,,,97,,,11,,,,,,,,,,,,,,
dig,227,681526,0.0-69.0-2.0,"""event"",""trial"",""time""
""fullscreenenter"",""1"",""3652""
","
","
","""event"",""trial"",""time""
""fullscreenenter"",""1"",""3652""
","
",,,,,,,,,,,,"[{""stimulus"":""run_exp/static/images/task_images/dig.jpg"",""time"":0.3999999761581421},{""stimulus"":""run_exp/static/images/task_images/land.jpg"",""time"":670.1000000238419},{""stimulus"":""run_exp/static/images/task_images/dig.jpg"",""time"":1343.6999999284744}]",[],11,,,,,,,,,,,,,,
harvest,228,682532,0.0-69.0-3.0,"""event"",""trial"",""time""
""fullscreenenter"",""1"",""3652""
","
","
","""event"",""trial"",""time""
""fullscreenenter"",""1"",""3652""
","
",,null,run_exp/static/images/task_images/gems/97.jpg,null,,,,,,,22,,,11,,,,,97,0.224954498,0.226804124,,,,,,,
decision,229,682993,0.0-69.0-4.0,"""event"",""trial"",""time""
""fullscreenenter"",""1"",""3652""
","
","
","""event"",""trial"",""time""
""fullscreenenter"",""1"",""3652""
","
",,458.1,run_exp/static/images/task_images/land.jpg,65,,,,,,,22,,,11,,,,,,,,9008,2,0,FALSE,,,
dig,230,685550,0.0-70.0-0.0,"""event"",""trial"",""time""
""fullscreenenter"",""1"",""3652""
","
","
","""event"",""trial"",""time""
""fullscreenenter"",""1"",""3652""
","
",,,,,,,,,,,,"[{""stimulus"":""run_exp/static/images/task_images/dig.jpg"",""time"":0.5},{""stimulus"":""run_exp/static/images/task_images/land.jpg"",""time"":860.7999999523163},{""stimulus"":""run_exp/static/images/task_images/dig.jpg"",""time"":1703.8999999761581}]",[],11,,,,,,,,,,,,,,
harvest,231,686556,0.0-70.0-1.0,"""event"",""trial"",""time""
""fullscreenenter"",""1"",""3652""
","
","
","""event"",""trial"",""time""
""fullscreenenter"",""1"",""3652""
","
",,null,run_exp/static/images/task_images/gems/22.jpg,null,,,,,,,5,,,11,,,,,22,0.215821559,0.227272727,,,,,,,
decision,232,686703,0.0-70.0-2.0,"""event"",""trial"",""time""
""fullscreenenter"",""1"",""3652""
","
","
","""event"",""trial"",""time""
""fullscreenenter"",""1"",""3652""
","
",,144.1,run_exp/static/images/task_images/land.jpg,76,,,,,,,5,,,11,,,,,,,,12718,2,1,TRUE,,,
travel,233,696580,0.0-71.0-0.0,"""event"",""trial"",""time""
""fullscreenenter"",""1"",""3652""
","
","
","""event"",""trial"",""time""
""fullscreenenter"",""1"",""3652""
","
",,,,,,,,,,,,"[{""stimulus"":""run_exp/static/images/task_images/rocket-01.jpg"",""time"":0.5},{""stimulus"":""run_exp/static/images/task_images/rocket-02.jpg"",""time"":1106.6999999284744},{""stimulus"":""run_exp/static/images/task_images/rocket-03.jpg"",""time"":2204.2999999523163},{""stimulus"":""run_exp/static/images/task_images/rocket-04.jpg"",""time"":3297.5},{""stimulus"":""run_exp/static/images/task_images/rocket-05.jpg"",""time"":4391.699999928474},{""stimulus"":""run_exp/static/images/task_images/rocket-06.jpg"",""time"":5485.799999952316},{""stimulus"":""run_exp/static/images/task_images/rocket-07.jpg"",""time"":6578.699999928474},{""stimulus"":""run_exp/static/images/task_images/rocket-08.jpg"",""time"":7673.399999976158},{""stimulus"":""run_exp/static/images/task_images/rocket-09.jpg"",""time"":8771.699999928474}]",[],11,,,,,,,,,,,,,,
alien_welcome,234,701588,0.0-71.0-1.0,"""event"",""trial"",""time""
""fullscreenenter"",""1"",""3652""
","
","
","""event"",""trial"",""time""
""fullscreenenter"",""1"",""3652""
","
",,null,run_exp/static/images/task_images/aliens/old_aliens/planet/alien_planet-44.jpg,null,,,,,,,,,,,,,44,"29,15,76,78,64,40,13,60,1,43,57,44,62,28,38,45,30,32,58,39,22,70,49,23,47,48,8,61,42,17,5,20,6,50,74,27,63,18,65,26",,,,,,,,,,
land,235,702094,0.0-71.0-2.0,"""event"",""trial"",""time""
""fullscreenenter"",""1"",""3652""
","
","
","""event"",""trial"",""time""
""fullscreenenter"",""1"",""3652""
","
",,null,run_exp/static/images/task_images/land.jpg,null,,,,,,,95,,,12,,,,,,,,,,,,,,
dig,236,704108,0.0-71.0-3.0,"""event"",""trial"",""time""
""fullscreenenter"",""1"",""3652""
","
","
","""event"",""trial"",""time""
""fullscreenenter"",""1"",""3652""
","
",,,,,,,,,,,,"[{""stimulus"":""run_exp/static/images/task_images/dig.jpg"",""time"":0.5},{""stimulus"":""run_exp/static/images/task_images/land.jpg"",""time"":682.6999999284744},{""stimulus"":""run_exp/static/images/task_images/dig.jpg"",""time"":1337.6999999284744}]",[],12,,,,,,,,,,,,,,
harvest,237,705114,0.0-71.0-4.0,"""event"",""trial"",""time""
""fullscreenenter"",""1"",""3652""
","
","
","""event"",""trial"",""time""
""fullscreenenter"",""1"",""3652""
","
",,null,run_exp/static/images/task_images/gems/95.jpg,null,,,,,,,11,,,12,,,,,95,0.118077245,0.115789474,,,,,,,
decision,238,705828,0.0-71.0-5.0,"""event"",""trial"",""time""
""fullscreenenter"",""1"",""3652""
","
","
","""event"",""trial"",""time""
""fullscreenenter"",""1"",""3652""
","
",,711.8,run_exp/static/images/task_images/land.jpg,65,,,,,,,11,,,12,,,,,,,,31843,2,0,FALSE,,,
dig,239,708126,0.0-72.0-0.0,"""event"",""trial"",""time""
""fullscreenenter"",""1"",""3652""
","
","
","""event"",""trial"",""time""
""fullscreenenter"",""1"",""3652""
","
",,,,,,,,,,,,"[{""stimulus"":""run_exp/static/images/task_images/dig.jpg"",""time"":0.5},{""stimulus"":""run_exp/static/images/task_images/land.jpg"",""time"":766.1000000238419},{""stimulus"":""run_exp/static/images/task_images/dig.jpg"",""time"":1536.1999999284744}]",[],12,,,,,,,,,,,,,,
harvest,240,709144,0.0-72.0-1.0,"""event"",""trial"",""time""
""fullscreenenter"",""1"",""3652""
","
","
","""event"",""trial"",""time""
""fullscreenenter"",""1"",""3652""
","
",,null,run_exp/static/images/task_images/gems/11.jpg,null,,,,,,,3,,,12,,,,,11,0.22739207,0.272727273,,,,,,,
decision,241,709308,0.0-72.0-2.0,"""event"",""trial"",""time""
""fullscreenenter"",""1"",""3652""
","
","
","""event"",""trial"",""time""
""fullscreenenter"",""1"",""3652""
","
",,161.2,run_exp/static/images/task_images/land.jpg,76,,,,,,,3,,,12,,,,,,,,35323,2,1,TRUE,,,
travel,242,719159,0.0-73.0-0.0,"""event"",""trial"",""time""
""fullscreenenter"",""1"",""3652""
","
","
","""event"",""trial"",""time""
""fullscreenenter"",""1"",""3652""
","
",,,,,,,,,,,,"[{""stimulus"":""run_exp/static/images/task_images/rocket-01.jpg"",""time"":0.6000000238418579},{""stimulus"":""run_exp/static/images/task_images/rocket-02.jpg"",""time"":1099.6000000238419},{""stimulus"":""run_exp/static/images/task_images/rocket-03.jpg"",""time"":2200.2000000476837},{""stimulus"":""run_exp/static/images/task_images/rocket-04.jpg"",""time"":3285.399999976158},{""stimulus"":""run_exp/static/images/task_images/rocket-05.jpg"",""time"":4385.700000047684},{""stimulus"":""run_exp/static/images/task_images/rocket-06.jpg"",""time"":5478.5},{""stimulus"":""run_exp/static/images/task_images/rocket-07.jpg"",""time"":6560},{""stimulus"":""run_exp/static/images/task_images/rocket-08.jpg"",""time"":7658.299999952316},{""stimulus"":""run_exp/static/images/task_images/rocket-09.jpg"",""time"":8754.600000023842}]",[],12,,,,,,,,,,,,,,
alien_welcome,243,724177,0.0-73.0-1.0,"""event"",""trial"",""time""
""fullscreenenter"",""1"",""3652""
","
","
","""event"",""trial"",""time""
""fullscreenenter"",""1"",""3652""
","
",,null,run_exp/static/images/task_images/aliens/old_aliens/planet/alien_planet-62.jpg,null,,,,,,,,,,,,,62,"29,15,76,78,64,40,13,60,1,43,57,44,62,28,38,45,30,32,58,39,22,70,49,23,47,48,8,61,42,17,5,20,6,50,74,27,63,18,65,26",,,,,,,,,,
land,244,724680,0.0-73.0-2.0,"""event"",""trial"",""time""
""fullscreenenter"",""1"",""3652""
","
","
","""event"",""trial"",""time""
""fullscreenenter"",""1"",""3652""
","
",,null,run_exp/static/images/task_images/land.jpg,null,,,,,,,92,,,13,,,,,,,,,,,,,,
dig,245,726694,0.0-73.0-3.0,"""event"",""trial"",""time""
""fullscreenenter"",""1"",""3652""
","
","
","""event"",""trial"",""time""
""fullscreenenter"",""1"",""3652""
","
",,,,,,,,,,,,"[{""stimulus"":""run_exp/static/images/task_images/dig.jpg"",""time"":0.5},{""stimulus"":""run_exp/static/images/task_images/land.jpg"",""time"":682.4000000953674},{""stimulus"":""run_exp/static/images/task_images/dig.jpg"",""time"":1338.1000000238419}]",[],13,,,,,,,,,,,,,,
