trial_type,trial_index,time_elapsed,internal_node_id,interactions,blur_events,focus_events,fullscreenenter_events,fullscreenexit_events,success,rt,stimulus,key_press,prompt,subject_id,participant_id,age,gender,button_pressed,next_reward,animation_sequence,responses,planet,curr_prac_trial,n_prac_rounds,alien,aliens,reward_received,decay_rate_actual,decay_rate_exp,time_in_block,block_num,prt,last_trial_on_planet,button_html,bonus,num_failures
pavlovia,0,3,0.0-0.0,"""event"",""trial"",""time""
""fullscreenenter"",""1"",""2362""
","
","
","""event"",""trial"",""time""
""fullscreenenter"",""1"",""2362""
","
",,,,,,,,,,,,,,,,,,,,,,,,,,,,
fullscreen,1,3358,0.0-1.0,"""event"",""trial"",""time""
""fullscreenenter"",""1"",""2362""
","
","
","""event"",""trial"",""time""
""fullscreenenter"",""1"",""2362""
","
",TRUE,,,,,,,,,,,,,,,,,,,,,,,,,,,
instruc_welcome,2,13151,0.0-2.0,"""event"",""trial"",""time""
""fullscreenenter"",""1"",""2362""
","
","
","""event"",""trial"",""time""
""fullscreenenter"",""1"",""2362""
","
",,null,run_exp/static/audio/clip_1_welcome.m4a,null,"<p>Howdy! In this experiment, you’ll be an explorer traveling through space to collect space treasure.</p><p>Your mission is to collect as much treasure as possible.</p><br><br><p><img src='run_exp/static/images/task_images/opening_img-01.jpg' height='300' width='auto'></p>",9570,305,20.03,Female,,,,,,,,,,,,,,,,,,,
audio-keyboard-response,3,29769,0.0-3.0,"""event"",""trial"",""time""
""fullscreenenter"",""1"",""2362""
","
","
","""event"",""trial"",""time""
""fullscreenenter"",""1"",""2362""
","
",,null,run_exp/static/audio/clip_2_move.m4a,null,,,,,,,,,,,,,,,,,,,,,,,,
welcome_dec,4,31355,0.0-4.0,"""event"",""trial"",""time""
""fullscreenenter"",""1"",""2362""
","
","
","""event"",""trial"",""time""
""fullscreenenter"",""1"",""2362""
","
",,1582.6,"<p>Howdy! In this experiment, you’ll be an explorer traveling through space to collect space treasure.</p><p>Your mission is to collect as much treasure as possible.</p><br><br><p><img src='run_exp/static/images/task_images/opening_img-01.jpg' height='300' width='auto'></p>",,,,,,,1,,,,,,,,,,,,,,,,,,
html-keyboard-response,5,32548,0.0-5.0,"""event"",""trial"",""time""
""fullscreenenter"",""1"",""2362""
","
","
","""event"",""trial"",""time""
""fullscreenenter"",""1"",""2362""
","
",,1191.6,"<p>Howdy! In this experiment, you’ll be an explorer traveling through space to collect space treasure.</p><p>Your mission is to collect as much treasure as possible.</p><br><br><p><img src='run_exp/static/images/task_images/opening_img-01.jpg' height='300' width='auto'></p><button class=""jspsych-html-btn-unchosen""><img src=""run_exp/static/images/task_images/planet-01.jpg"" height=""50""></button><button class=""jspsych-html-btn-chosen""><img src=""run_exp/static/images/task_images/planet-02.jpg"" height=""50""></button><p><b>[press the space bar to lock in your answer]<b><br></p>",32,,,,,,,,,,,,,,,,,,,,,,,,
instruc_goal,6,42634,0.0-6.0-0.0,"""event"",""trial"",""time""
""fullscreenenter"",""1"",""2362""
","
","
","""event"",""trial"",""time""
""fullscreenenter"",""1"",""2362""
","
",,null,run_exp/static/audio/clip_3_goal.m4a,null,"<p> As a space explorer, you’ll visit different planets to dig for space treasure, these pink gems.</p> <p> The more treasure you dig up, the more bonus money you’ll win! </p><br><br><p><img src='run_exp/static/images/task_images/pink_gem.jpg' height='300' width='auto'></p>",,,,,,,,,,,,,,,,,,,,,,,
instruc_goal,7,44866,0.0-6.0-1.0,"""event"",""trial"",""time""
""fullscreenenter"",""1"",""2362""
","
","
","""event"",""trial"",""time""
""fullscreenenter"",""1"",""2362""
","
",,2230.1,"<p> As a space explorer, you’ll visit different planets to dig for space treasure, these pink gems.</p> <p> The more treasure you dig up, the more bonus money you’ll win! </p><br><br><p><img src='run_exp/static/images/task_images/pink_gem.jpg' height='300' width='auto'></p>",,,,,,,1,,,,,,,,,,,,,,,,,,
html-keyboard-response,8,45338,0.0-6.0-2.0,"""event"",""trial"",""time""
""fullscreenenter"",""1"",""2362""
","
","
","""event"",""trial"",""time""
""fullscreenenter"",""1"",""2362""
","
",,470.3000001,"<p> As a space explorer, you’ll visit different planets to dig for space treasure, these pink gems.</p> <p> The more treasure you dig up, the more bonus money you’ll win! </p><br><br><p><img src='run_exp/static/images/task_images/pink_gem.jpg' height='300' width='auto'></p><button class=""jspsych-html-btn-unchosen""><img src=""run_exp/static/images/task_images/planet-01.jpg"" height=""50""></button><button class=""jspsych-html-btn-chosen""><img src=""run_exp/static/images/task_images/planet-02.jpg"" height=""50""></button><p><b>[press the space bar to lock in your answer]<b><br></p>",32,,,,,,,,,,,,,,,,,,,,,,,,
instruc_dig,9,61385,0.0-7.0-0.0,"""event"",""trial"",""time""
""fullscreenenter"",""1"",""2362""
","
","
","""event"",""trial"",""time""
""fullscreenenter"",""1"",""2362""
","
",,null,run_exp/static/audio/clip_4_dig.m4a,null,,,,,,,100,,,,,,,,,,,,,,,,,
instruc_dig_try,10,64120,0.0-7.0-1.0,"""event"",""trial"",""time""
""fullscreenenter"",""1"",""2362""
","
","
","""event"",""trial"",""time""
""fullscreenenter"",""1"",""2362""
","
",,2731.8,"<p> When you’ve arrived at a new planet, you will dig once. </p> <p>Then, you get to decide if you want to stay on the planet and dig again or travel to a new planet and dig there.</p> <p> To stay and dig, press the letter <strong>‘A’</strong> on your keyboard. Try pressing it now! </p><p><img src='run_exp/static/images/task_images/land.jpg'  height='700' width='auto'></p>",65,"<p> When you’ve arrived at a new planet, you will dig once. </p> <p>Then, you get to decide if you want to stay on the planet and dig again or travel to a new planet and dig there.</p> <p> To stay and dig, press the letter <strong>‘A’</strong> on your keyboard. Try pressing it now! </p><p><img src='run_exp/static/images/task_images/land.jpg'  height='700' width='auto'></p>",,,,,,100,,,,,,,,,,,,,,,,,
dig_prac,11,66141,0.0-7.0-2.0,"""event"",""trial"",""time""
""fullscreenenter"",""1"",""2362""
","
","
","""event"",""trial"",""time""
""fullscreenenter"",""1"",""2362""
","
",,,,,,,,,,,,"[{""stimulus"":""run_exp/static/images/task_images/dig.jpg"",""time"":0.3999999761581421},{""stimulus"":""run_exp/static/images/task_images/land.jpg"",""time"":674.2999999523163},{""stimulus"":""run_exp/static/images/task_images/dig.jpg"",""time"":1337.7000000476837}]",[],,,,,,,,,,,,,,,
instruc_travel,12,102409,0.0-7.0-3.0,"""event"",""trial"",""time""
""fullscreenenter"",""1"",""2362""
","
","
","""event"",""trial"",""time""
""fullscreenenter"",""1"",""2362""
","
",,null,run_exp/static/audio/clip_5_travel.m4a,null,"<p>Every time you dig up gems, there are less gems on the planet, so the more you dig on a planet the fewer gems you’ll get with each dig.</p><p>When gems are running low, you may want to travel to a new planet. </p> <p>  Planets are very far apart in this galaxy, so it will take some time to travel between them. </p> <br><p>There are lots and lots of planets for you to visit, so you won’t be able to return to any planets you’ve seen before. </p><br><p>To leave this planet and travel to a new one, press the letter <strong>‘L’</strong> on your keyboard. Try pressing it now! </p><p><img src='run_exp/static/images/task_images/rocket-01.jpg'  height='600' width='auto'></p>",,,,,,,,,,,,,,,,,,,,,,,
instruc_travel_try,13,103036,0.0-7.0-4.0,"""event"",""trial"",""time""
""fullscreenenter"",""1"",""2362""
","
","
","""event"",""trial"",""time""
""fullscreenenter"",""1"",""2362""
","
",,625,"<p>Every time you dig up gems, there are less gems on the planet, so the more you dig on a planet the fewer gems you’ll get with each dig.</p><p>When gems are running low, you may want to travel to a new planet. </p> <p>  Planets are very far apart in this galaxy, so it will take some time to travel between them. </p> <br><p>There are lots and lots of planets for you to visit, so you won’t be able to return to any planets you’ve seen before. </p><br><p>To leave this planet and travel to a new one, press the letter <strong>‘L’</strong> on your keyboard. Try pressing it now! </p><p><img src='run_exp/static/images/task_images/rocket-01.jpg'  height='600' width='auto'></p>",76,"<p>Every time you dig up gems, there are less gems on the planet, so the more you dig on a planet the fewer gems you’ll get with each dig.</p><p>When gems are running low, you may want to travel to a new planet. </p> <p>  Planets are very far apart in this galaxy, so it will take some time to travel between them. </p> <br><p>There are lots and lots of planets for you to visit, so you won’t be able to return to any planets you’ve seen before. </p><br><p>To leave this planet and travel to a new one, press the letter <strong>‘L’</strong> on your keyboard. Try pressing it now! </p><p><img src='run_exp/static/images/task_images/rocket-01.jpg'  height='600' width='auto'></p>",,,,,,,,,,,,,,,,,,,,,,,
travel_prac,14,113047,0.0-7.0-5.0,"""event"",""trial"",""time""
""fullscreenenter"",""1"",""2362""
","
","
","""event"",""trial"",""time""
""fullscreenenter"",""1"",""2362""
","
",,,,,,,,,,,,"[{""stimulus"":""run_exp/static/images/task_images/rocket-01.jpg"",""time"":0.6000000238418579},{""stimulus"":""run_exp/static/images/task_images/rocket-02.jpg"",""time"":1125.3999999761581},{""stimulus"":""run_exp/static/images/task_images/rocket-03.jpg"",""time"":2228.399999976158},{""stimulus"":""run_exp/static/images/task_images/rocket-04.jpg"",""time"":3340},{""stimulus"":""run_exp/static/images/task_images/rocket-05.jpg"",""time"":4453.799999952316},{""stimulus"":""run_exp/static/images/task_images/rocket-06.jpg"",""time"":5565.399999976158},{""stimulus"":""run_exp/static/images/task_images/rocket-07.jpg"",""time"":6677.299999952316},{""stimulus"":""run_exp/static/images/task_images/rocket-08.jpg"",""time"":7785.699999928474},{""stimulus"":""run_exp/static/images/task_images/rocket-09.jpg"",""time"":8898.600000023842}]",[],0,,,,,,,,,,,,,,
instruc_alien_greet,15,140275,0.0-7.0-6.0,"""event"",""trial"",""time""
""fullscreenenter"",""1"",""2362""
","
","
","""event"",""trial"",""time""
""fullscreenenter"",""1"",""2362""
","
",,null,run_exp/static/audio/clip_6_alien.m4a,null,"<p>When you arrive at a new planet, the alien who owns the treasure mine on that planet will greet you!</p><p>The better an alien takes care of their mine the easier it is to dig for gems. Some aliens take better care of their mine than others. So, you won’t get exactly the same amount of gems on each planet.</p><p>What the alien looks like does not tell you anything about how many gems there are on the planet.</p><br><p><img src=""run_exp/static/images/task_images/aliens/instructions_aliens/planet/alien_planet-1.jpg""  height=""600"" width=""auto""></p>",,,,,,,,,,,,,,,,,,,,,,,
instruc_alien_greet,16,143360,0.0-7.0-7.0,"""event"",""trial"",""time""
""fullscreenenter"",""1"",""2362""
","
","
","""event"",""trial"",""time""
""fullscreenenter"",""1"",""2362""
","
",,3082,"<p>When you arrive at a new planet, the alien who owns the treasure mine on that planet will greet you!</p><p>The better an alien takes care of their mine the easier it is to dig for gems. Some aliens take better care of their mine than others. So, you won’t get exactly the same amount of gems on each planet.</p><p>What the alien looks like does not tell you anything about how many gems there are on the planet.</p><br><p><img src=""run_exp/static/images/task_images/aliens/instructions_aliens/planet/alien_planet-1.jpg""  height=""600"" width=""auto""></p>",,,,,,,1,,,,,,,,,,,,,,,,,,
html-keyboard-response,17,143791,0.0-7.0-8.0,"""event"",""trial"",""time""
""fullscreenenter"",""1"",""2362""
","
","
","""event"",""trial"",""time""
""fullscreenenter"",""1"",""2362""
","
",,429.9,"<p>When you arrive at a new planet, the alien who owns the treasure mine on that planet will greet you!</p><p>The better an alien takes care of their mine the easier it is to dig for gems. Some aliens take better care of their mine than others. So, you won’t get exactly the same amount of gems on each planet.</p><p>What the alien looks like does not tell you anything about how many gems there are on the planet.</p><br><p><img src=""run_exp/static/images/task_images/aliens/instructions_aliens/planet/alien_planet-1.jpg""  height=""600"" width=""auto""></p><button class=""jspsych-html-btn-unchosen""><img src=""run_exp/static/images/task_images/planet-01.jpg"" height=""50""></button><button class=""jspsych-html-btn-chosen""><img src=""run_exp/static/images/task_images/planet-02.jpg"" height=""50""></button><p><b>[press the space bar to lock in your answer]<b><br></p>",32,,,,,,,,,,,,,,,,,,,,,,,,
time_out,18,154910,0.0-8.0-0.0,"""event"",""trial"",""time""
""fullscreenenter"",""1"",""2362""
","
","
","""event"",""trial"",""time""
""fullscreenenter"",""1"",""2362""
","
",,null,run_exp/static/audio/clip_7_timeout.m4a,null,"<p>If you don't make your choice fast enough, you’ll have to wait a few seconds before you can make another one.</p><p>You can’t dig for more gems or travel to new planets. You just have to sit and wait.</p><br><p><img src='run_exp/static/images/task_images/time_out.jpg'  height='600' width='auto'></p>",,,,,,,,,,,,,,,,,,,,,,,
time_out,19,156570,0.0-8.0-1.0,"""event"",""trial"",""time""
""fullscreenenter"",""1"",""2362""
","
","
","""event"",""trial"",""time""
""fullscreenenter"",""1"",""2362""
","
",,1657.2,"<p>If you don't make your choice fast enough, you’ll have to wait a few seconds before you can make another one.</p><p>You can’t dig for more gems or travel to new planets. You just have to sit and wait.</p><br><p><img src='run_exp/static/images/task_images/time_out.jpg'  height='600' width='auto'></p>",,,,,,,1,,,,,,,,,,,,,,,,,,
html-keyboard-response,20,156862,0.0-8.0-2.0,"""event"",""trial"",""time""
""fullscreenenter"",""1"",""2362""
","
","
","""event"",""trial"",""time""
""fullscreenenter"",""1"",""2362""
","
",,290.5,"<p>If you don't make your choice fast enough, you’ll have to wait a few seconds before you can make another one.</p><p>You can’t dig for more gems or travel to new planets. You just have to sit and wait.</p><br><p><img src='run_exp/static/images/task_images/time_out.jpg'  height='600' width='auto'></p><button class=""jspsych-html-btn-unchosen""><img src=""run_exp/static/images/task_images/planet-01.jpg"" height=""50""></button><button class=""jspsych-html-btn-chosen""><img src=""run_exp/static/images/task_images/planet-02.jpg"" height=""50""></button><p><b>[press the space bar to lock in your answer]<b><br></p>",32,,,,,,,,,,,,,,,,,,,,,,,,
instruc_break,21,172552,0.0-9.0-0.0,"""event"",""trial"",""time""
""fullscreenenter"",""1"",""2362""
","
","
","""event"",""trial"",""time""
""fullscreenenter"",""1"",""2362""
","
",,null,run_exp/static/audio/clip_8_break.m4a,null,"<p> After digging and traveling for a while, you’ll be able to take a break at home base. </p><p>The game will last 20 minutes no matter what.</p><p>You will visit home base every 5 minutes, so, you will visit home base three times during the game.</p><br><p><img src='run_exp/static/images/task_images/home_base.jpg' height='600' width='auto'></p>",,,,,,,,,,,,,,,,,,,,,,,
instruc_break,22,174817,0.0-9.0-1.0,"""event"",""trial"",""time""
""fullscreenenter"",""1"",""2362""
","
","
","""event"",""trial"",""time""
""fullscreenenter"",""1"",""2362""
","
",,2262.8,"<p> After digging and traveling for a while, you’ll be able to take a break at home base. </p><p>The game will last 20 minutes no matter what.</p><p>You will visit home base every 5 minutes, so, you will visit home base three times during the game.</p><br><p><img src='run_exp/static/images/task_images/home_base.jpg' height='600' width='auto'></p>",,,,,,,1,,,,,,,,,,,,,,,,,,
html-keyboard-response,23,175272,0.0-9.0-2.0,"""event"",""trial"",""time""
""fullscreenenter"",""1"",""2362""
","
","
","""event"",""trial"",""time""
""fullscreenenter"",""1"",""2362""
","
",,454,"<p> After digging and traveling for a while, you’ll be able to take a break at home base. </p><p>The game will last 20 minutes no matter what.</p><p>You will visit home base every 5 minutes, so, you will visit home base three times during the game.</p><br><p><img src='run_exp/static/images/task_images/home_base.jpg' height='600' width='auto'></p><button class=""jspsych-html-btn-unchosen""><img src=""run_exp/static/images/task_images/planet-01.jpg"" height=""50""></button><button class=""jspsych-html-btn-chosen""><img src=""run_exp/static/images/task_images/planet-02.jpg"" height=""50""></button><p><b>[press the space bar to lock in your answer]<b><br></p>",32,,,,,,,,,,,,,,,,,,,,,,,,
instruc_prac_game,24,185417,0.0-10.0-0.0,"""event"",""trial"",""time""
""fullscreenenter"",""1"",""2362""
","
","
","""event"",""trial"",""time""
""fullscreenenter"",""1"",""2362""
","
",,null,run_exp/static/audio/clip_9_practice.m4a,null,"<p> Are you ready to play a practice game? </p> <p>In this practice game, you'll be digging up barrels of gems. But, in the real game, you'll be digging up the gems themselves. </p>",,,,,,,,,,,,,,,,,,,,,,,
html-button-response,25,187489,0.0-10.0-1.0,"""event"",""trial"",""time""
""fullscreenenter"",""1"",""2362""
","
","
","""event"",""trial"",""time""
""fullscreenenter"",""1"",""2362""
","
",,2070,"<p> Are you ready to play a practice game? </p> <p>In this practice game, you'll be digging up barrels of gems. But, in the real game, you'll be digging up the gems themselves. </p>",,,,,,,0,,,,,,,,,,,,,,,,,,
alien_welcome_prac,26,192505,0.0-11.0-0.0,"""event"",""trial"",""time""
""fullscreenenter"",""1"",""2362""
","
","
","""event"",""trial"",""time""
""fullscreenenter"",""1"",""2362""
","
",,null,run_exp/static/images/task_images/aliens/practice_aliens/planet/alien_planet-5.jpg,null,,,,,,,,,,,,,,,,,,,,,,,,
land_prac,27,193016,0.0-11.0-1.0,"""event"",""trial"",""time""
""fullscreenenter"",""1"",""2362""
","
","
","""event"",""trial"",""time""
""fullscreenenter"",""1"",""2362""
","
",,null,run_exp/static/images/task_images/land.jpg,null,,,,,,,107,,,0,,,,,,,,,,,,,,
dig_prac,28,195032,0.0-11.0-2.0,"""event"",""trial"",""time""
""fullscreenenter"",""1"",""2362""
","
","
","""event"",""trial"",""time""
""fullscreenenter"",""1"",""2362""
","
",,,,,,,,,,,,"[{""stimulus"":""run_exp/static/images/task_images/dig.jpg"",""time"":0.5},{""stimulus"":""run_exp/static/images/task_images/land.jpg"",""time"":673.6000000238419},{""stimulus"":""run_exp/static/images/task_images/dig.jpg"",""time"":1337.7000000476837}]",[],,,,,,,,,,,,,,,
harvest_prac,29,196039,0.0-11.0-3.0,"""event"",""trial"",""time""
""fullscreenenter"",""1"",""2362""
","
","
","""event"",""trial"",""time""
""fullscreenenter"",""1"",""2362""
","
",,null,run_exp/static/images/task_images/barrel_text.jpg,null,,,,,,,,,,,,,,,,,,,,,,,,
decision_prac,30,198084,0.0-11.0-4.0,"""event"",""trial"",""time""
""fullscreenenter"",""1"",""2362""
","
","
","""event"",""trial"",""time""
""fullscreenenter"",""1"",""2362""
","
",,2043,run_exp/static/images/task_images/land.jpg,65,,,,,,,,,,,1,,,,,,,,,,,,,
dig_prac,31,200096,0.0-12.0-0.0,"""event"",""trial"",""time""
""fullscreenenter"",""1"",""2362""
","
","
","""event"",""trial"",""time""
""fullscreenenter"",""1"",""2362""
","
",,,,,,,,,,,,"[{""stimulus"":""run_exp/static/images/task_images/dig.jpg"",""time"":0.20000004768371582},{""stimulus"":""run_exp/static/images/task_images/land.jpg"",""time"":679.8000000715256},{""stimulus"":""run_exp/static/images/task_images/dig.jpg"",""time"":1340.3000000715256}]",[],,,,,,,,,,,,,,,
harvest_prac,32,201104,0.0-12.0-1.0,"""event"",""trial"",""time""
""fullscreenenter"",""1"",""2362""
","
","
","""event"",""trial"",""time""
""fullscreenenter"",""1"",""2362""
","
",,null,run_exp/static/images/task_images/barrel_text.jpg,null,,,,,,,,,,,,,,,,,,,,,,,,
decision_prac,33,202225,0.0-12.0-2.0,"""event"",""trial"",""time""
""fullscreenenter"",""1"",""2362""
","
","
","""event"",""trial"",""time""
""fullscreenenter"",""1"",""2362""
","
",,1118.7,run_exp/static/images/task_images/land.jpg,65,,,,,,,,,,,2,,,,,,,,,,,,,
dig_prac,34,204238,0.0-13.0-0.0,"""event"",""trial"",""time""
""fullscreenenter"",""1"",""2362""
","
","
","""event"",""trial"",""time""
""fullscreenenter"",""1"",""2362""
","
",,,,,,,,,,,,"[{""stimulus"":""run_exp/static/images/task_images/dig.jpg"",""time"":0.20000004768371582},{""stimulus"":""run_exp/static/images/task_images/land.jpg"",""time"":670.6000000238419},{""stimulus"":""run_exp/static/images/task_images/dig.jpg"",""time"":1339.8000000715256}]",[],,,,,,,,,,,,,,,
harvest_prac,35,205248,0.0-13.0-1.0,"""event"",""trial"",""time""
""fullscreenenter"",""1"",""2362""
","
","
","""event"",""trial"",""time""
""fullscreenenter"",""1"",""2362""
","
",,null,run_exp/static/images/task_images/barrel_text.jpg,null,,,,,,,,,,,,,,,,,,,,,,,,
decision_prac,36,205327,0.0-13.0-2.0,"""event"",""trial"",""time""
""fullscreenenter"",""1"",""2362""
","
","
","""event"",""trial"",""time""
""fullscreenenter"",""1"",""2362""
","
",,76.5999999,run_exp/static/images/task_images/land.jpg,65,,,,,,,,,,,3,,,,,,,,,,,,,
dig_prac,37,207344,0.0-14.0-0.0,"""event"",""trial"",""time""
""fullscreenenter"",""1"",""2362""
","
","
","""event"",""trial"",""time""
""fullscreenenter"",""1"",""2362""
","
",,,,,,,,,,,,"[{""stimulus"":""run_exp/static/images/task_images/dig.jpg"",""time"":0.10000002384185791},{""stimulus"":""run_exp/static/images/task_images/land.jpg"",""time"":674.2999999523163},{""stimulus"":""run_exp/static/images/task_images/dig.jpg"",""time"":1341}]",[],,,,,,,,,,,,,,,
harvest_prac,38,208348,0.0-14.0-1.0,"""event"",""trial"",""time""
""fullscreenenter"",""1"",""2362""
","
","
","""event"",""trial"",""time""
""fullscreenenter"",""1"",""2362""
","
",,null,run_exp/static/images/task_images/barrel_text.jpg,null,,,,,,,,,,,,,,,,,,,,,,,,
decision_prac,39,209008,0.0-14.0-2.0,"""event"",""trial"",""time""
""fullscreenenter"",""1"",""2362""
","
","
","""event"",""trial"",""time""
""fullscreenenter"",""1"",""2362""
","
",,657.7,run_exp/static/images/task_images/land.jpg,65,,,,,,,,,,,4,,,,,,,,,,,,,
dig_prac,40,211024,0.0-15.0-0.0,"""event"",""trial"",""time""
""fullscreenenter"",""1"",""2362""
","
","
","""event"",""trial"",""time""
""fullscreenenter"",""1"",""2362""
","
",,,,,,,,,,,,"[{""stimulus"":""run_exp/static/images/task_images/dig.jpg"",""time"":0.19999992847442627},{""stimulus"":""run_exp/static/images/task_images/land.jpg"",""time"":673.8999999761581},{""stimulus"":""run_exp/static/images/task_images/dig.jpg"",""time"":1345.8999999761581}]",[],,,,,,,,,,,,,,,
harvest_prac,41,212032,0.0-15.0-1.0,"""event"",""trial"",""time""
""fullscreenenter"",""1"",""2362""
","
","
","""event"",""trial"",""time""
""fullscreenenter"",""1"",""2362""
","
",,null,run_exp/static/images/task_images/barrel_text.jpg,null,,,,,,,,,,,,,,,,,,,,,,,,
decision_prac,42,212502,0.0-15.0-2.0,"""event"",""trial"",""time""
""fullscreenenter"",""1"",""2362""
","
","
","""event"",""trial"",""time""
""fullscreenenter"",""1"",""2362""
","
",,468,run_exp/static/images/task_images/land.jpg,65,,,,,,,,,,,,1,,,,,,,,,,,,
quiz_instruc,43,213652,0.0-16.0-0.0,"""event"",""trial"",""time""
""fullscreenenter"",""1"",""2362""
","
","
","""event"",""trial"",""time""
""fullscreenenter"",""1"",""2362""
","
",,1145.1,run_exp/static/audio/clip_10_quiz.m4a,,,,,,,0,,,,,,,,,,,,,,,,,,
instruc_repeat,44,256435,0.0-16.0-1.0,"""event"",""trial"",""time""
""fullscreenenter"",""1"",""2362""
","
","
","""event"",""trial"",""time""
""fullscreenenter"",""1"",""2362""
","
",,null,"<p> Are you ready to play a practice game? </p> <p>In this practice game, you'll be digging up barrels of gems. But, in the real game, you'll be digging up the gems themselves. </p>",null,"<p>In this game, your goal is to collect as many gems as you can. That’s how you will win bonus money. </p> <p>The entire game will last 20 minutes no matter how many gems you collect or how many planets you visit. </p><p>To stay on a planet and dig again, press the letter A on your keyboard. To leave for a new planet, press the letter L.</p><p>The more you dig on a planet, the fewer gems you’ll get with each dig which is why you might consider leaving for a new planet. </p><p>When you arrive at a new planet, you’ll be greeted by an alien. What the alien looks like does not tell you anything about how much treasure is on the planet. </p>",,,,,,,,,,,,,,,,,,,,,,,
instruc_repeat_continue,45,259069,0.0-16.0-2.0,"""event"",""trial"",""time""
""fullscreenenter"",""1"",""2362""
","
","
","""event"",""trial"",""time""
""fullscreenenter"",""1"",""2362""
","
",,2631.8,"<p> Are you ready to play a practice game? </p> <p>In this practice game, you'll be digging up barrels of gems. But, in the real game, you'll be digging up the gems themselves. </p>",,,,,,,0,,,,,,,,,,,,,,,,,,
quiz_q_1_ask,46,263116,0.0-16.0-3.0,"""event"",""trial"",""time""
""fullscreenenter"",""1"",""2362""
","
","
","""event"",""trial"",""time""
""fullscreenenter"",""1"",""2362""
","
",,4044.5,run_exp/static/audio/clip_11_q1_ask.m4a,,,,,,,2,,,,,,,,,,,,,,,,,,
quiz_q_1_fb_correct,47,266952,0.0-17.0-0.0,"""event"",""trial"",""time""
""fullscreenenter"",""1"",""2362""
","
","
","""event"",""trial"",""time""
""fullscreenenter"",""1"",""2362""
","
",,null,run_exp/static/audio/clip_12_q1_correct.m4a,null,<p>That’s correct. You win extra money by collecting more gems.</p>,,,,,,,,,,,,,,,,,,,,,,,
quiz_q_2_ask,48,269515,0.0-17.0-1.0,"""event"",""trial"",""time""
""fullscreenenter"",""1"",""2362""
","
","
","""event"",""trial"",""time""
""fullscreenenter"",""1"",""2362""
","
",,2560.3,run_exp/static/audio/clip_14_q2_ask.m4a,,,,,,,1,,,,,,,,,,,,,,,,,,
quiz_q_2_fb_correct,49,273522,0.0-18.0-0.0,"""event"",""trial"",""time""
""fullscreenenter"",""1"",""2362""
","
","
","""event"",""trial"",""time""
""fullscreenenter"",""1"",""2362""
","
",,null,run_exp/static/audio/clip_15_q2_correct.m4a,null,<p>That’s correct. The experiment is 20 minutes no matter what.</p>,,,,,,,,,,,,,,,,,,,,,,,
quiz_q_3_ask,50,276757,0.0-18.0-1.0,"""event"",""trial"",""time""
""fullscreenenter"",""1"",""2362""
","
","
","""event"",""trial"",""time""
""fullscreenenter"",""1"",""2362""
","
",,3232.3,run_exp/static/audio/clip_17_q3_ask.m4a,,,,,,,1,,,,,,,,,,,,,,,,,,
quiz_q_3_fb_correct,51,280733,0.0-19.0-0.0,"""event"",""trial"",""time""
""fullscreenenter"",""1"",""2362""
","
","
","""event"",""trial"",""time""
""fullscreenenter"",""1"",""2362""
","
",,null,run_exp/static/audio/clip_18_q3_correct.m4a,null,<p> That’s correct. You press the letter L to travel to a new planet.</p>,,,,,,,,,,,,,,,,,,,,,,,
quiz_q_4_ask,52,286032,0.0-19.0-1.0,"""event"",""trial"",""time""
""fullscreenenter"",""1"",""2362""
","
","
","""event"",""trial"",""time""
""fullscreenenter"",""1"",""2362""
","
",,5296.9,run_exp/static/audio/clip_20_q4_ask.m4a,,,,,,,0,,,,,,,,,,,,,,,,,,
quiz_q_4_fb_correct,53,291336,0.0-20.0-0.0,"""event"",""trial"",""time""
""fullscreenenter"",""1"",""2362""
","
","
","""event"",""trial"",""time""
""fullscreenenter"",""1"",""2362""
","
",,null,run_exp/static/audio/clip_21_q4_correct.m4a,null,<p> That’s correct. The more you dig on a planet the fewer gems you’ll get with each dig. </p>,,,,,,,,,,,,,,,,,,,,,,,
quiz_q_5_ask,54,297387,0.0-20.0-1.0,"""event"",""trial"",""time""
""fullscreenenter"",""1"",""2362""
","
","
","""event"",""trial"",""time""
""fullscreenenter"",""1"",""2362""
","
",,6049,run_exp/static/audio/clip_23_q5_ask.m4a,,,,,,,1,,,,,,,,,,,,,,,,,,
quiz_q_5_fb_correct,55,302386,0.0-21.0-0.0,"""event"",""trial"",""time""
""fullscreenenter"",""1"",""2362""
","
","
","""event"",""trial"",""time""
""fullscreenenter"",""1"",""2362""
","
",,null,run_exp/static/audio/clip_24_q5_correct.m4a,null,<p> That’s correct. The alien tells you nothing about how much treasure is on the planet.</p>,,,,,,,,,,,,,,,,,,,,,,,
quiz_correct,56,305842,0.0-22.0-0.0,"""event"",""trial"",""time""
""fullscreenenter"",""1"",""2362""
","
","
","""event"",""trial"",""time""
""fullscreenenter"",""1"",""2362""
","
",,null,run_exp/static/audio/clip_26_correct_quiz.m4a,null,,,,,,,,,,,,,,,,,,,,,,,,
quiz_correct_continue,57,307067,0.0-22.0-1.0,"""event"",""trial"",""time""
""fullscreenenter"",""1"",""2362""
","
","
","""event"",""trial"",""time""
""fullscreenenter"",""1"",""2362""
","
",,1222.5,<p>Good job! You're now ready to move on to the real game!</p>,,,,,,,0,,,,,,,,,,,,,,,,,,
audio-keyboard-response,58,317170,0.0-22.0-2.0,"""event"",""trial"",""time""
""fullscreenenter"",""1"",""2362""
","
","
","""event"",""trial"",""time""
""fullscreenenter"",""1"",""2362""
","
",,null,run_exp/static/audio/clip_28_real_game.m4a,null,,,,,,,,,,,,,,,,,,,,,,,,
instruc_begin_exp_contine,59,318747,0.0-22.0-3.0,"""event"",""trial"",""time""
""fullscreenenter"",""1"",""2362""
","
","
","""event"",""trial"",""time""
""fullscreenenter"",""1"",""2362""
","
",,1574.5,"<p>Now that you know how  to dig for space treasure and travel to new planets,you can start exploring! </p><p>Do you want to go over the instructions again or get started with the real game?</p>",,,,,,,1,,,,,,1,,,,,,,,,,,,
alien_welcome,60,323756,0.0-23.0-0.0,"""event"",""trial"",""time""
""fullscreenenter"",""1"",""2362""
","
","
","""event"",""trial"",""time""
""fullscreenenter"",""1"",""2362""
","
",,null,run_exp/static/images/task_images/aliens/old_aliens/planet/alien_planet-63.jpg,null,,,,,,,,,,,,,63,"63,59,40,32,43,34,29,41,45,20,69,18,76,37,78,30,31,80,60,62,7,25,66,72,14,47,16,11,67,36,46,75,1,5,58,39,13,3,61,42,77,64,6,8,68,71",,,,,,,,,,
land,61,324268,0.0-23.0-1.0,"""event"",""trial"",""time""
""fullscreenenter"",""1"",""2362""
","
","
","""event"",""trial"",""time""
""fullscreenenter"",""1"",""2362""
","
",,null,run_exp/static/images/task_images/land.jpg,null,,,,,,,96,,,1,,,,,,,,,,,,,,
dig,62,326279,0.0-23.0-2.0,"""event"",""trial"",""time""
""fullscreenenter"",""1"",""2362""
","
","
","""event"",""trial"",""time""
""fullscreenenter"",""1"",""2362""
","
",,,,,,,,,,,,"[{""stimulus"":""run_exp/static/images/task_images/dig.jpg"",""time"":0.6000000238418579},{""stimulus"":""run_exp/static/images/task_images/land.jpg"",""time"":673.6000000238419},{""stimulus"":""run_exp/static/images/task_images/dig.jpg"",""time"":1337.2000000476837}]",[],1,,,,,,,,,,,,,,
harvest,63,327289,0.0-23.0-3.0,"""event"",""trial"",""time""
""fullscreenenter"",""1"",""2362""
","
","
","""event"",""trial"",""time""
""fullscreenenter"",""1"",""2362""
","
",,null,run_exp/static/images/task_images/gems/96.jpg,null,,,,,,,11,,,1,,,,,96,0.11868287,0.114583333,,,,,,,
decision,64,327737,0.0-23.0-4.0,"""event"",""trial"",""time""
""fullscreenenter"",""1"",""2362""
","
","
","""event"",""trial"",""time""
""fullscreenenter"",""1"",""2362""
","
",,445.6,run_exp/static/images/task_images/land.jpg,65,,,,,,,11,,,1,,,,,,,,8989,1,0,FALSE,,,
dig,65,330308,0.0-24.0-0.0,"""event"",""trial"",""time""
""fullscreenenter"",""1"",""2362""
","
","
","""event"",""trial"",""time""
""fullscreenenter"",""1"",""2362""
","
",,,,,,,,,,,,"[{""stimulus"":""run_exp/static/images/task_images/dig.jpg"",""time"":0.09999990463256836},{""stimulus"":""run_exp/static/images/task_images/land.jpg"",""time"":856.3999999761581},{""stimulus"":""run_exp/static/images/task_images/dig.jpg"",""time"":1704.6999999284744}]",[],1,,,,,,,,,,,,,,
harvest,66,331316,0.0-24.0-1.0,"""event"",""trial"",""time""
""fullscreenenter"",""1"",""2362""
","
","
","""event"",""trial"",""time""
""fullscreenenter"",""1"",""2362""
","
",,null,run_exp/static/images/task_images/gems/11.jpg,null,,,,,,,3,,,1,,,,,11,0.264318772,0.272727273,,,,,,,
decision,67,331511,0.0-24.0-2.0,"""event"",""trial"",""time""
""fullscreenenter"",""1"",""2362""
","
","
","""event"",""trial"",""time""
""fullscreenenter"",""1"",""2362""
","
",,192.8,run_exp/static/images/task_images/land.jpg,65,,,,,,,3,,,1,,,,,,,,12762,1,1,FALSE,,,
dig,68,334328,0.0-25.0-0.0,"""event"",""trial"",""time""
""fullscreenenter"",""1"",""2362""
","
","
","""event"",""trial"",""time""
""fullscreenenter"",""1"",""2362""
","
",,,,,,,,,,,,"[{""stimulus"":""run_exp/static/images/task_images/dig.jpg"",""time"":0.10000002384185791},{""stimulus"":""run_exp/static/images/task_images/land.jpg"",""time"":942.2000000476837},{""stimulus"":""run_exp/static/images/task_images/dig.jpg"",""time"":1878}]",[],1,,,,,,,,,,,,,,
harvest,69,335336,0.0-25.0-1.0,"""event"",""trial"",""time""
""fullscreenenter"",""1"",""2362""
","
","
","""event"",""trial"",""time""
""fullscreenenter"",""1"",""2362""
","
",,null,run_exp/static/images/task_images/gems/3.jpg,null,,,,,,,0,,,1,,,,,3,0.143400741,0,,,,,,,
decision,70,336301,0.0-25.0-2.0,"""event"",""trial"",""time""
""fullscreenenter"",""1"",""2362""
","
","
","""event"",""trial"",""time""
""fullscreenenter"",""1"",""2362""
","
",,962.9,run_exp/static/images/task_images/land.jpg,76,,,,,,,0,,,1,,,,,,,,17552,1,2,TRUE,,,
travel,71,345343,0.0-26.0-0.0,"""event"",""trial"",""time""
""fullscreenenter"",""1"",""2362""
","
","
","""event"",""trial"",""time""
""fullscreenenter"",""1"",""2362""
","
",,,,,,,,,,,,"[{""stimulus"":""run_exp/static/images/task_images/rocket-01.jpg"",""time"":0.10000002384185791},{""stimulus"":""run_exp/static/images/task_images/rocket-02.jpg"",""time"":1011},{""stimulus"":""run_exp/static/images/task_images/rocket-03.jpg"",""time"":2018.5},{""stimulus"":""run_exp/static/images/task_images/rocket-04.jpg"",""time"":3014.7000000476837},{""stimulus"":""run_exp/static/images/task_images/rocket-05.jpg"",""time"":4026.5},{""stimulus"":""run_exp/static/images/task_images/rocket-06.jpg"",""time"":5023.400000095367},{""stimulus"":""run_exp/static/images/task_images/rocket-07.jpg"",""time"":6030.600000023842},{""stimulus"":""run_exp/static/images/task_images/rocket-08.jpg"",""time"":7034.600000023842},{""stimulus"":""run_exp/static/images/task_images/rocket-09.jpg"",""time"":8042.600000023842}]",[],1,,,,,,,,,,,,,,
alien_welcome,72,350355,0.0-26.0-1.0,"""event"",""trial"",""time""
""fullscreenenter"",""1"",""2362""
","
","
","""event"",""trial"",""time""
""fullscreenenter"",""1"",""2362""
","
",,null,run_exp/static/images/task_images/aliens/old_aliens/planet/alien_planet-59.jpg,null,,,,,,,,,,,,,59,"63,59,40,32,43,34,29,41,45,20,69,18,76,37,78,30,31,80,60,62,7,25,66,72,14,47,16,11,67,36,46,75,1,5,58,39,13,3,61,42,77,64,6,8,68,71",,,,,,,,,,
land,73,350867,0.0-26.0-2.0,"""event"",""trial"",""time""
""fullscreenenter"",""1"",""2362""
","
","
","""event"",""trial"",""time""
""fullscreenenter"",""1"",""2362""
","
",,null,run_exp/static/images/task_images/land.jpg,null,,,,,,,97,,,2,,,,,,,,,,,,,,
dig,74,352883,0.0-26.0-3.0,"""event"",""trial"",""time""
""fullscreenenter"",""1"",""2362""
","
","
","""event"",""trial"",""time""
""fullscreenenter"",""1"",""2362""
","
",,,,,,,,,,,,"[{""stimulus"":""run_exp/static/images/task_images/dig.jpg"",""time"":0.6000000238418579},{""stimulus"":""run_exp/static/images/task_images/land.jpg"",""time"":678.3999999761581},{""stimulus"":""run_exp/static/images/task_images/dig.jpg"",""time"":1338.2999999523163}]",[],2,,,,,,,,,,,,,,
harvest,75,353887,0.0-26.0-4.0,"""event"",""trial"",""time""
""fullscreenenter"",""1"",""2362""
","
","
","""event"",""trial"",""time""
""fullscreenenter"",""1"",""2362""
","
",,null,run_exp/static/images/task_images/gems/97.jpg,null,,,,,,,19,,,2,,,,,97,0.194058541,0.195876289,,,,,,,
decision,76,354554,0.0-26.0-5.0,"""event"",""trial"",""time""
""fullscreenenter"",""1"",""2362""
","
","
","""event"",""trial"",""time""
""fullscreenenter"",""1"",""2362""
","
",,665.5,run_exp/static/images/task_images/land.jpg,65,,,,,,,19,,,2,,,,,,,,35805,1,0,FALSE,,,
dig,77,356899,0.0-27.0-0.0,"""event"",""trial"",""time""
""fullscreenenter"",""1"",""2362""
","
","
","""event"",""trial"",""time""
""fullscreenenter"",""1"",""2362""
","
",,,,,,,,,,,,"[{""stimulus"":""run_exp/static/images/task_images/dig.jpg"",""time"":0},{""stimulus"":""run_exp/static/images/task_images/land.jpg"",""time"":791.6000000238419},{""stimulus"":""run_exp/static/images/task_images/dig.jpg"",""time"":1567.6000000238419}]",[],2,,,,,,,,,,,,,,
harvest,78,357907,0.0-27.0-1.0,"""event"",""trial"",""time""
""fullscreenenter"",""1"",""2362""
","
","
","""event"",""trial"",""time""
""fullscreenenter"",""1"",""2362""
","
",,null,run_exp/static/images/task_images/gems/19.jpg,null,,,,,,,5,,,2,,,,,19,0.251441987,0.263157895,,,,,,,
decision,79,358623,0.0-27.0-2.0,"""event"",""trial"",""time""
""fullscreenenter"",""1"",""2362""
","
","
","""event"",""trial"",""time""
""fullscreenenter"",""1"",""2362""
","
",,714.6,run_exp/static/images/task_images/land.jpg,65,,,,,,,5,,,2,,,,,,,,39875,1,1,FALSE,,,
dig,80,360922,0.0-28.0-0.0,"""event"",""trial"",""time""
""fullscreenenter"",""1"",""2362""
","
","
","""event"",""trial"",""time""
""fullscreenenter"",""1"",""2362""
","
",,,,,,,,,,,,"[{""stimulus"":""run_exp/static/images/task_images/dig.jpg"",""time"":0.10000002384185791},{""stimulus"":""run_exp/static/images/task_images/land.jpg"",""time"":766.5},{""stimulus"":""run_exp/static/images/task_images/dig.jpg"",""time"":1531.6000000238419}]",[],2,,,,,,,,,,,,,,
harvest,81,361927,0.0-28.0-1.0,"""event"",""trial"",""time""
""fullscreenenter"",""1"",""2362""
","
","
","""event"",""trial"",""time""
""fullscreenenter"",""1"",""2362""
","
",,null,run_exp/static/images/task_images/gems/5.jpg,null,,,,,,,1,,,2,,,,,5,0.114838936,0.2,,,,,,,
decision,82,362143,0.0-28.0-2.0,"""event"",""trial"",""time""
""fullscreenenter"",""1"",""2362""
","
","
","""event"",""trial"",""time""
""fullscreenenter"",""1"",""2362""
","
",,213.9000001,run_exp/static/images/task_images/land.jpg,76,,,,,,,1,,,2,,,,,,,,43394,1,2,TRUE,,,
travel,83,371937,0.0-29.0-0.0,"""event"",""trial"",""time""
""fullscreenenter"",""1"",""2362""
","
","
","""event"",""trial"",""time""
""fullscreenenter"",""1"",""2362""
","
",,,,,,,,,,,,"[{""stimulus"":""run_exp/static/images/task_images/rocket-01.jpg"",""time"":0.20000004768371582},{""stimulus"":""run_exp/static/images/task_images/rocket-02.jpg"",""time"":1093.3000000715256},{""stimulus"":""run_exp/static/images/task_images/rocket-03.jpg"",""time"":2184},{""stimulus"":""run_exp/static/images/task_images/rocket-04.jpg"",""time"":3271.100000023842},{""stimulus"":""run_exp/static/images/task_images/rocket-05.jpg"",""time"":4357.200000047684},{""stimulus"":""run_exp/static/images/task_images/rocket-06.jpg"",""time"":5444.700000047684},{""stimulus"":""run_exp/static/images/task_images/rocket-07.jpg"",""time"":6524.700000047684},{""stimulus"":""run_exp/static/images/task_images/rocket-08.jpg"",""time"":7616.600000023842},{""stimulus"":""run_exp/static/images/task_images/rocket-09.jpg"",""time"":8702.600000023842}]",[],2,,,,,,,,,,,,,,
alien_welcome,84,376942,0.0-29.0-1.0,"""event"",""trial"",""time""
""fullscreenenter"",""1"",""2362""
","
","
","""event"",""trial"",""time""
""fullscreenenter"",""1"",""2362""
","
",,null,run_exp/static/images/task_images/aliens/old_aliens/planet/alien_planet-40.jpg,null,,,,,,,,,,,,,40,"63,59,40,32,43,34,29,41,45,20,69,18,76,37,78,30,31,80,60,62,7,25,66,72,14,47,16,11,67,36,46,75,1,5,58,39,13,3,61,42,77,64,6,8,68,71",,,,,,,,,,
land,85,377450,0.0-29.0-2.0,"""event"",""trial"",""time""
""fullscreenenter"",""1"",""2362""
","
","
","""event"",""trial"",""time""
""fullscreenenter"",""1"",""2362""
","
",,null,run_exp/static/images/task_images/land.jpg,null,,,,,,,98,,,3,,,,,,,,,,,,,,
dig,86,379466,0.0-29.0-3.0,"""event"",""trial"",""time""
""fullscreenenter"",""1"",""2362""
","
","
","""event"",""trial"",""time""
""fullscreenenter"",""1"",""2362""
","
",,,,,,,,,,,,"[{""stimulus"":""run_exp/static/images/task_images/dig.jpg"",""time"":0.6000000238418579},{""stimulus"":""run_exp/static/images/task_images/land.jpg"",""time"":678.2000000476837},{""stimulus"":""run_exp/static/images/task_images/dig.jpg"",""time"":1342.1000000238419}]",[],3,,,,,,,,,,,,,,
harvest,87,380472,0.0-29.0-4.0,"""event"",""trial"",""time""
""fullscreenenter"",""1"",""2362""
","
","
","""event"",""trial"",""time""
""fullscreenenter"",""1"",""2362""
","
",,null,run_exp/static/images/task_images/gems/98.jpg,null,,,,,,,42,,,3,,,,,98,0.431323715,0.428571429,,,,,,,
decision,88,381207,0.0-29.0-5.0,"""event"",""trial"",""time""
""fullscreenenter"",""1"",""2362""
","
","
","""event"",""trial"",""time""
""fullscreenenter"",""1"",""2362""
","
",,733,run_exp/static/images/task_images/land.jpg,65,,,,,,,42,,,3,,,,,,,,62458,1,0,FALSE,,,
dig,89,383489,0.0-30.0-0.0,"""event"",""trial"",""time""
""fullscreenenter"",""1"",""2362""
","
","
","""event"",""trial"",""time""
""fullscreenenter"",""1"",""2362""
","
",,,,,,,,,,,,"[{""stimulus"":""run_exp/static/images/task_images/dig.jpg"",""time"":0.19999992847442627},{""stimulus"":""run_exp/static/images/task_images/land.jpg"",""time"":766.8999999761581},{""stimulus"":""run_exp/static/images/task_images/dig.jpg"",""time"":1515.6999999284744}]",[],3,,,,,,,,,,,,,,
harvest,90,384498,0.0-30.0-1.0,"""event"",""trial"",""time""
""fullscreenenter"",""1"",""2362""
","
","
","""event"",""trial"",""time""
""fullscreenenter"",""1"",""2362""
","
",,null,run_exp/static/images/task_images/gems/42.jpg,null,,,,,,,20,,,3,,,,,42,0.473237349,0.476190476,,,,,,,
decision,91,384663,0.0-30.0-2.0,"""event"",""trial"",""time""
""fullscreenenter"",""1"",""2362""
","
","
","""event"",""trial"",""time""
""fullscreenenter"",""1"",""2362""
","
",,163.3000001,run_exp/static/images/task_images/land.jpg,65,,,,,,,20,,,3,,,,,,,,65914,1,1,FALSE,,,
dig,92,387509,0.0-31.0-0.0,"""event"",""trial"",""time""
""fullscreenenter"",""1"",""2362""
","
","
","""event"",""trial"",""time""
""fullscreenenter"",""1"",""2362""
","
",,,,,,,,,,,,"[{""stimulus"":""run_exp/static/images/task_images/dig.jpg"",""time"":0.19999992847442627},{""stimulus"":""run_exp/static/images/task_images/land.jpg"",""time"":957.8999999761581},{""stimulus"":""run_exp/static/images/task_images/dig.jpg"",""time"":1901.8999999761581}]",[],3,,,,,,,,,,,,,,
harvest,93,388521,0.0-31.0-1.0,"""event"",""trial"",""time""
""fullscreenenter"",""1"",""2362""
","
","
","""event"",""trial"",""time""
""fullscreenenter"",""1"",""2362""
","
",,null,run_exp/static/images/task_images/gems/20.jpg,null,,,,,,,11,,,3,,,,,20,0.561691788,0.55,,,,,,,
decision,94,389097,0.0-31.0-2.0,"""event"",""trial"",""time""
""fullscreenenter"",""1"",""2362""
","
","
","""event"",""trial"",""time""
""fullscreenenter"",""1"",""2362""
","
",,573.8000001,run_exp/static/images/task_images/land.jpg,65,,,,,,,11,,,3,,,,,,,,70348,1,2,FALSE,,,
dig,95,391537,0.0-32.0-0.0,"""event"",""trial"",""time""
""fullscreenenter"",""1"",""2362""
","
","
","""event"",""trial"",""time""
""fullscreenenter"",""1"",""2362""
","
",,,,,,,,,,,,"[{""stimulus"":""run_exp/static/images/task_images/dig.jpg"",""time"":0.20000004768371582},{""stimulus"":""run_exp/static/images/task_images/land.jpg"",""time"":818.1000000238419},{""stimulus"":""run_exp/static/images/task_images/dig.jpg"",""time"":1627.6000000238419}]",[],3,,,,,,,,,,,,,,
harvest,96,392545,0.0-32.0-1.0,"""event"",""trial"",""time""
""fullscreenenter"",""1"",""2362""
","
","
","""event"",""trial"",""time""
""fullscreenenter"",""1"",""2362""
","
",,null,run_exp/static/images/task_images/gems/11.jpg,null,,,,,,,6,,,3,,,,,11,0.512915928,0.545454545,,,,,,,
decision,97,393339,0.0-32.0-2.0,"""event"",""trial"",""time""
""fullscreenenter"",""1"",""2362""
","
","
","""event"",""trial"",""time""
""fullscreenenter"",""1"",""2362""
","
",,791.5999999,run_exp/static/images/task_images/land.jpg,76,,,,,,,6,,,3,,,,,,,,74591,1,3,TRUE,,,
travel,98,402557,0.0-33.0-0.0,"""event"",""trial"",""time""
""fullscreenenter"",""1"",""2362""
","
","
","""event"",""trial"",""time""
""fullscreenenter"",""1"",""2362""
","
",,,,,,,,,,,,"[{""stimulus"":""run_exp/static/images/task_images/rocket-01.jpg"",""time"":0.3999999761581421},{""stimulus"":""run_exp/static/images/task_images/rocket-02.jpg"",""time"":1030.3999999761581},{""stimulus"":""run_exp/static/images/task_images/rocket-03.jpg"",""time"":2058.2999999523163},{""stimulus"":""run_exp/static/images/task_images/rocket-04.jpg"",""time"":3082.2999999523163},{""stimulus"":""run_exp/static/images/task_images/rocket-05.jpg"",""time"":4106.399999976158},{""stimulus"":""run_exp/static/images/task_images/rocket-06.jpg"",""time"":5118.600000023842},{""stimulus"":""run_exp/static/images/task_images/rocket-07.jpg"",""time"":6142},{""stimulus"":""run_exp/static/images/task_images/rocket-08.jpg"",""time"":7170.299999952316},{""stimulus"":""run_exp/static/images/task_images/rocket-09.jpg"",""time"":8194.399999976158}]",[],3,,,,,,,,,,,,,,
alien_welcome,99,407565,0.0-33.0-1.0,"""event"",""trial"",""time""
""fullscreenenter"",""1"",""2362""
","
","
","""event"",""trial"",""time""
""fullscreenenter"",""1"",""2362""
","
",,null,run_exp/static/images/task_images/aliens/old_aliens/planet/alien_planet-32.jpg,null,,,,,,,,,,,,,32,"63,59,40,32,43,34,29,41,45,20,69,18,76,37,78,30,31,80,60,62,7,25,66,72,14,47,16,11,67,36,46,75,1,5,58,39,13,3,61,42,77,64,6,8,68,71",,,,,,,,,,
land,100,408073,0.0-33.0-2.0,"""event"",""trial"",""time""
""fullscreenenter"",""1"",""2362""
","
","
","""event"",""trial"",""time""
""fullscreenenter"",""1"",""2362""
","
",,null,run_exp/static/images/task_images/land.jpg,null,,,,,,,101,,,4,,,,,,,,,,,,,,
dig,101,410089,0.0-33.0-3.0,"""event"",""trial"",""time""
""fullscreenenter"",""1"",""2362""
","
","
","""event"",""trial"",""time""
""fullscreenenter"",""1"",""2362""
","
",,,,,,,,,,,,"[{""stimulus"":""run_exp/static/images/task_images/dig.jpg"",""time"":0.6000000238418579},{""stimulus"":""run_exp/static/images/task_images/land.jpg"",""time"":678.2000000476837},{""stimulus"":""run_exp/static/images/task_images/dig.jpg"",""time"":1338.3000000715256}]",[],4,,,,,,,,,,,,,,
harvest,102,411093,0.0-33.0-4.0,"""event"",""trial"",""time""
""fullscreenenter"",""1"",""2362""
","
","
","""event"",""trial"",""time""
""fullscreenenter"",""1"",""2362""
","
",,null,run_exp/static/images/task_images/gems/101.jpg,null,,,,,,,53,,,4,,,,,101,0.525654516,0.524752475,,,,,,,
decision,103,411440,0.0-33.0-5.0,"""event"",""trial"",""time""
""fullscreenenter"",""1"",""2362""
","
","
","""event"",""trial"",""time""
""fullscreenenter"",""1"",""2362""
","
",,345,run_exp/static/images/task_images/land.jpg,65,,,,,,,53,,,4,,,,,,,,92691,1,0,FALSE,,,
dig,104,414105,0.0-34.0-0.0,"""event"",""trial"",""time""
""fullscreenenter"",""1"",""2362""
","
","
","""event"",""trial"",""time""
""fullscreenenter"",""1"",""2362""
","
",,,,,,,,,,,,"[{""stimulus"":""run_exp/static/images/task_images/dig.jpg"",""time"":0.10000002384185791},{""stimulus"":""run_exp/static/images/task_images/land.jpg"",""time"":889.3999999761581},{""stimulus"":""run_exp/static/images/task_images/dig.jpg"",""time"":1781.6000000238419}]",[],4,,,,,,,,,,,,,,
harvest,105,415110,0.0-34.0-1.0,"""event"",""trial"",""time""
""fullscreenenter"",""1"",""2362""
","
","
","""event"",""trial"",""time""
""fullscreenenter"",""1"",""2362""
","
",,null,run_exp/static/images/task_images/gems/53.jpg,null,,,,,,,26,,,4,,,,,53,0.495754445,0.490566038,,,,,,,
decision,106,415659,0.0-34.0-2.0,"""event"",""trial"",""time""
""fullscreenenter"",""1"",""2362""
","
","
","""event"",""trial"",""time""
""fullscreenenter"",""1"",""2362""
","
",,546.6999999,run_exp/static/images/task_images/land.jpg,65,,,,,,,26,,,4,,,,,,,,96910,1,1,FALSE,,,
dig,107,418116,0.0-35.0-0.0,"""event"",""trial"",""time""
""fullscreenenter"",""1"",""2362""
","
","
","""event"",""trial"",""time""
""fullscreenenter"",""1"",""2362""
","
",,,,,,,,,,,,"[{""stimulus"":""run_exp/static/images/task_images/dig.jpg"",""time"":0.10000002384185791},{""stimulus"":""run_exp/static/images/task_images/land.jpg"",""time"":826.2000000476837},{""stimulus"":""run_exp/static/images/task_images/dig.jpg"",""time"":1638}]",[],4,,,,,,,,,,,,,,
harvest,108,419125,0.0-35.0-1.0,"""event"",""trial"",""time""
""fullscreenenter"",""1"",""2362""
","
","
","""event"",""trial"",""time""
""fullscreenenter"",""1"",""2362""
","
",,null,run_exp/static/images/task_images/gems/26.jpg,null,,,,,,,11,,,4,,,,,26,0.439696747,0.423076923,,,,,,,
decision,109,420780,0.0-35.0-2.0,"""event"",""trial"",""time""
""fullscreenenter"",""1"",""2362""
","
","
","""event"",""trial"",""time""
""fullscreenenter"",""1"",""2362""
","
",,1653.8,run_exp/static/images/task_images/land.jpg,65,,,,,,,11,,,4,,,,,,,,102032,1,2,FALSE,,,
dig,110,422132,0.0-36.0-0.0,"""event"",""trial"",""time""
""fullscreenenter"",""1"",""2362""
","
","
","""event"",""trial"",""time""
""fullscreenenter"",""1"",""2362""
","
",,,,,,,,,,,,"[{""stimulus"":""run_exp/static/images/task_images/dig.jpg"",""time"":0.2999999523162842},{""stimulus"":""run_exp/static/images/task_images/land.jpg"",""time"":455},{""stimulus"":""run_exp/static/images/task_images/dig.jpg"",""time"":901.3999999761581}]",[],4,,,,,,,,,,,,,,
harvest,111,423141,0.0-36.0-1.0,"""event"",""trial"",""time""
""fullscreenenter"",""1"",""2362""
","
","
","""event"",""trial"",""time""
""fullscreenenter"",""1"",""2362""
","
",,null,run_exp/static/images/task_images/gems/11.jpg,null,,,,,,,6,,,4,,,,,11,0.507272402,0.545454545,,,,,,,
decision,112,423577,0.0-36.0-2.0,"""event"",""trial"",""time""
""fullscreenenter"",""1"",""2362""
","
","
","""event"",""trial"",""time""
""fullscreenenter"",""1"",""2362""
","
",,433.7,run_exp/static/images/task_images/land.jpg,76,,,,,,,6,,,4,,,,,,,,104828,1,3,TRUE,,,
travel,113,433141,0.0-37.0-0.0,"""event"",""trial"",""time""
""fullscreenenter"",""1"",""2362""
","
","
","""event"",""trial"",""time""
""fullscreenenter"",""1"",""2362""
","
",,,,,,,,,,,,"[{""stimulus"":""run_exp/static/images/task_images/rocket-01.jpg"",""time"":0.20000004768371582},{""stimulus"":""run_exp/static/images/task_images/rocket-02.jpg"",""time"":1070.1000000238419},{""stimulus"":""run_exp/static/images/task_images/rocket-03.jpg"",""time"":2130},{""stimulus"":""run_exp/static/images/task_images/rocket-04.jpg"",""time"":3198},{""stimulus"":""run_exp/static/images/task_images/rocket-05.jpg"",""time"":4262},{""stimulus"":""run_exp/static/images/task_images/rocket-06.jpg"",""time"":5313.799999952316},{""stimulus"":""run_exp/static/images/task_images/rocket-07.jpg"",""time"":6381.899999976158},{""stimulus"":""run_exp/static/images/task_images/rocket-08.jpg"",""time"":7445.899999976158},{""stimulus"":""run_exp/static/images/task_images/rocket-09.jpg"",""time"":8509.799999952316}]",[],4,,,,,,,,,,,,,,
alien_welcome,114,438152,0.0-37.0-1.0,"""event"",""trial"",""time""
""fullscreenenter"",""1"",""2362""
","
","
","""event"",""trial"",""time""
""fullscreenenter"",""1"",""2362""
","
",,null,run_exp/static/images/task_images/aliens/old_aliens/planet/alien_planet-43.jpg,null,,,,,,,,,,,,,43,"63,59,40,32,43,34,29,41,45,20,69,18,76,37,78,30,31,80,60,62,7,25,66,72,14,47,16,11,67,36,46,75,1,5,58,39,13,3,61,42,77,64,6,8,68,71",,,,,,,,,,
land,115,438664,0.0-37.0-2.0,"""event"",""trial"",""time""
""fullscreenenter"",""1"",""2362""
","
","
","""event"",""trial"",""time""
""fullscreenenter"",""1"",""2362""
","
",,null,run_exp/static/images/task_images/land.jpg,null,,,,,,,105,,,5,,,,,,,,,,,,,,
dig,116,440680,0.0-37.0-3.0,"""event"",""trial"",""time""
""fullscreenenter"",""1"",""2362""
","
","
","""event"",""trial"",""time""
""fullscreenenter"",""1"",""2362""
","
",,,,,,,,,,,,"[{""stimulus"":""run_exp/static/images/task_images/dig.jpg"",""time"":0.5},{""stimulus"":""run_exp/static/images/task_images/land.jpg"",""time"":678.3000000715256},{""stimulus"":""run_exp/static/images/task_images/dig.jpg"",""time"":1340.8000000715256}]",[],5,,,,,,,,,,,,,,
harvest,117,441688,0.0-37.0-4.0,"""event"",""trial"",""time""
""fullscreenenter"",""1"",""2362""
","
","
","""event"",""trial"",""time""
""fullscreenenter"",""1"",""2362""
","
",,null,run_exp/static/images/task_images/gems/105.jpg,null,,,,,,,58,,,5,,,,,105,0.551409511,0.552380952,,,,,,,
decision,118,442067,0.0-37.0-5.0,"""event"",""trial"",""time""
""fullscreenenter"",""1"",""2362""
","
","
","""event"",""trial"",""time""
""fullscreenenter"",""1"",""2362""
","
",,377.4000001,run_exp/static/images/task_images/land.jpg,65,,,,,,,58,,,5,,,,,,,,123318,1,0,FALSE,,,
dig,119,444704,0.0-38.0-0.0,"""event"",""trial"",""time""
""fullscreenenter"",""1"",""2362""
","
","
","""event"",""trial"",""time""
""fullscreenenter"",""1"",""2362""
","
",,,,,,,,,,,,"[{""stimulus"":""run_exp/static/images/task_images/dig.jpg"",""time"":0.30000007152557373},{""stimulus"":""run_exp/static/images/task_images/land.jpg"",""time"":886.3000000715256},{""stimulus"":""run_exp/static/images/task_images/dig.jpg"",""time"":1758.8000000715256}]",[],5,,,,,,,,,,,,,,
harvest,120,445712,0.0-38.0-1.0,"""event"",""trial"",""time""
""fullscreenenter"",""1"",""2362""
","
","
","""event"",""trial"",""time""
""fullscreenenter"",""1"",""2362""
","
",,null,run_exp/static/images/task_images/gems/58.jpg,null,,,,,,,26,,,5,,,,,58,0.440426893,0.448275862,,,,,,,
decision,121,446050,0.0-38.0-2.0,"""event"",""trial"",""time""
""fullscreenenter"",""1"",""2362""
","
","
","""event"",""trial"",""time""
""fullscreenenter"",""1"",""2362""
","
",,336,run_exp/static/images/task_images/land.jpg,65,,,,,,,26,,,5,,,,,,,,127301,1,1,FALSE,,,
dig,122,448727,0.0-39.0-0.0,"""event"",""trial"",""time""
""fullscreenenter"",""1"",""2362""
","
","
","""event"",""trial"",""time""
""fullscreenenter"",""1"",""2362""
","
",,,,,,,,,,,,"[{""stimulus"":""run_exp/static/images/task_images/dig.jpg"",""time"":0.30000007152557373},{""stimulus"":""run_exp/static/images/task_images/land.jpg"",""time"":897.2000000476837},{""stimulus"":""run_exp/static/images/task_images/dig.jpg"",""time"":1780.6000000238419}]",[],5,,,,,,,,,,,,,,
harvest,123,449736,0.0-39.0-1.0,"""event"",""trial"",""time""
""fullscreenenter"",""1"",""2362""
","
","
","""event"",""trial"",""time""
""fullscreenenter"",""1"",""2362""
","
",,null,run_exp/static/images/task_images/gems/26.jpg,null,,,,,,,13,,,5,,,,,26,0.495457916,0.5,,,,,,,
decision,124,450625,0.0-39.0-2.0,"""event"",""trial"",""time""
""fullscreenenter"",""1"",""2362""
","
","
","""event"",""trial"",""time""
""fullscreenenter"",""1"",""2362""
","
",,887.4,run_exp/static/images/task_images/land.jpg,76,,,,,,,13,,,5,,,,,,,,131876,1,2,TRUE,,,
travel,125,459751,0.0-40.0-0.0,"""event"",""trial"",""time""
""fullscreenenter"",""1"",""2362""
","
","
","""event"",""trial"",""time""
""fullscreenenter"",""1"",""2362""
","
",,,,,,,,,,,,"[{""stimulus"":""run_exp/static/images/task_images/rocket-01.jpg"",""time"":0.10000002384185791},{""stimulus"":""run_exp/static/images/task_images/rocket-02.jpg"",""time"":1021.7000000476837},{""stimulus"":""run_exp/static/images/task_images/rocket-03.jpg"",""time"":2026.2000000476837},{""stimulus"":""run_exp/static/images/task_images/rocket-04.jpg"",""time"":3038},{""stimulus"":""run_exp/static/images/task_images/rocket-05.jpg"",""time"":4057.7000000476837},{""stimulus"":""run_exp/static/images/task_images/rocket-06.jpg"",""time"":5073.700000047684},{""stimulus"":""run_exp/static/images/task_images/rocket-07.jpg"",""time"":6080.800000071526},{""stimulus"":""run_exp/static/images/task_images/rocket-08.jpg"",""time"":7094.100000023842},{""stimulus"":""run_exp/static/images/task_images/rocket-09.jpg"",""time"":8106.100000023842}]",[],5,,,,,,,,,,,,,,
alien_welcome,126,464755,0.0-40.0-1.0,"""event"",""trial"",""time""
""fullscreenenter"",""1"",""2362""
","
","
","""event"",""trial"",""time""
""fullscreenenter"",""1"",""2362""
","
",,null,run_exp/static/images/task_images/aliens/old_aliens/planet/alien_planet-34.jpg,null,,,,,,,,,,,,,34,"63,59,40,32,43,34,29,41,45,20,69,18,76,37,78,30,31,80,60,62,7,25,66,72,14,47,16,11,67,36,46,75,1,5,58,39,13,3,61,42,77,64,6,8,68,71",,,,,,,,,,
land,127,465259,0.0-40.0-2.0,"""event"",""trial"",""time""
""fullscreenenter"",""1"",""2362""
","
","
","""event"",""trial"",""time""
""fullscreenenter"",""1"",""2362""
","
",,null,run_exp/static/images/task_images/land.jpg,null,,,,,,,108,,,6,,,,,,,,,,,,,,
dig,128,467271,0.0-40.0-3.0,"""event"",""trial"",""time""
""fullscreenenter"",""1"",""2362""
","
","
","""event"",""trial"",""time""
""fullscreenenter"",""1"",""2362""
","
",,,,,,,,,,,,"[{""stimulus"":""run_exp/static/images/task_images/dig.jpg"",""time"":0.6000000238418579},{""stimulus"":""run_exp/static/images/task_images/land.jpg"",""time"":674},{""stimulus"":""run_exp/static/images/task_images/dig.jpg"",""time"":1342.3999999761581}]",[],6,,,,,,,,,,,,,,
harvest,129,468279,0.0-40.0-4.0,"""event"",""trial"",""time""
""fullscreenenter"",""1"",""2362""
","
","
","""event"",""trial"",""time""
""fullscreenenter"",""1"",""2362""
","
",,null,run_exp/static/images/task_images/gems/108.jpg,null,,,,,,,89,,,6,,,,,108,0.823341892,0.824074074,,,,,,,
decision,130,469053,0.0-40.0-5.0,"""event"",""trial"",""time""
""fullscreenenter"",""1"",""2362""
","
","
","""event"",""trial"",""time""
""fullscreenenter"",""1"",""2362""
","
",,772.7,run_exp/static/images/task_images/land.jpg,65,,,,,,,89,,,6,,,,,,,,150304,1,0,FALSE,,,
dig,131,471292,0.0-41.0-0.0,"""event"",""trial"",""time""
""fullscreenenter"",""1"",""2362""
","
","
","""event"",""trial"",""time""
""fullscreenenter"",""1"",""2362""
","
",,,,,,,,,,,,"[{""stimulus"":""run_exp/static/images/task_images/dig.jpg"",""time"":0.20000004768371582},{""stimulus"":""run_exp/static/images/task_images/land.jpg"",""time"":745.3000000715256},{""stimulus"":""run_exp/static/images/task_images/dig.jpg"",""time"":1492.5}]",[],6,,,,,,,,,,,,,,
harvest,132,472303,0.0-41.0-1.0,"""event"",""trial"",""time""
""fullscreenenter"",""1"",""2362""
","
","
","""event"",""trial"",""time""
""fullscreenenter"",""1"",""2362""
","
",,null,run_exp/static/images/task_images/gems/89.jpg,null,,,,,,,78,,,6,,,,,89,0.874433104,0.876404494,,,,,,,
decision,133,473888,0.0-41.0-2.0,"""event"",""trial"",""time""
""fullscreenenter"",""1"",""2362""
","
","
","""event"",""trial"",""time""
""fullscreenenter"",""1"",""2362""
","
",,1584.2,run_exp/static/images/task_images/land.jpg,65,,,,,,,78,,,6,,,,,,,,155140,1,1,FALSE,,,
dig,134,475319,0.0-42.0-0.0,"""event"",""trial"",""time""
""fullscreenenter"",""1"",""2362""
","
","
","""event"",""trial"",""time""
""fullscreenenter"",""1"",""2362""
","
",,,,,,,,,,,,"[{""stimulus"":""run_exp/static/images/task_images/dig.jpg"",""time"":0.20000004768371582},{""stimulus"":""run_exp/static/images/task_images/land.jpg"",""time"":481.5},{""stimulus"":""run_exp/static/images/task_images/dig.jpg"",""time"":953.5}]",[],6,,,,,,,,,,,,,,
harvest,135,476323,0.0-42.0-1.0,"""event"",""trial"",""time""
""fullscreenenter"",""1"",""2362""
","
","
","""event"",""trial"",""time""
""fullscreenenter"",""1"",""2362""
","
",,null,run_exp/static/images/task_images/gems/78.jpg,null,,,,,,,62,,,6,,,,,78,0.797864739,0.794871795,,,,,,,
decision,136,476573,0.0-42.0-2.0,"""event"",""trial"",""time""
""fullscreenenter"",""1"",""2362""
","
","
","""event"",""trial"",""time""
""fullscreenenter"",""1"",""2362""
","
",,248.5999999,run_exp/static/images/task_images/land.jpg,65,,,,,,,62,,,6,,,,,,,,157824,1,2,FALSE,,,
dig,137,479331,0.0-43.0-0.0,"""event"",""trial"",""time""
""fullscreenenter"",""1"",""2362""
","
","
","""event"",""trial"",""time""
""fullscreenenter"",""1"",""2362""
","
",,,,,,,,,,,,"[{""stimulus"":""run_exp/static/images/task_images/dig.jpg"",""time"":0.19999992847442627},{""stimulus"":""run_exp/static/images/task_images/land.jpg"",""time"":921.8999999761581},{""stimulus"":""run_exp/static/images/task_images/dig.jpg"",""time"":1841.6999999284744}]",[],6,,,,,,,,,,,,,,
harvest,138,480343,0.0-43.0-1.0,"""event"",""trial"",""time""
""fullscreenenter"",""1"",""2362""
","
","
","""event"",""trial"",""time""
""fullscreenenter"",""1"",""2362""
","
",,null,run_exp/static/images/task_images/gems/62.jpg,null,,,,,,,52,,,6,,,,,62,0.836298741,0.838709677,,,,,,,
decision,139,480510,0.0-43.0-2.0,"""event"",""trial"",""time""
""fullscreenenter"",""1"",""2362""
","
","
","""event"",""trial"",""time""
""fullscreenenter"",""1"",""2362""
","
",,165.9,run_exp/static/images/task_images/land.jpg,65,,,,,,,52,,,6,,,,,,,,161762,1,3,FALSE,,,
dig,140,483355,0.0-44.0-0.0,"""event"",""trial"",""time""
""fullscreenenter"",""1"",""2362""
","
","
","""event"",""trial"",""time""
""fullscreenenter"",""1"",""2362""
","
",,,,,,,,,,,,"[{""stimulus"":""run_exp/static/images/task_images/dig.jpg"",""time"":0.19999992847442627},{""stimulus"":""run_exp/static/images/task_images/land.jpg"",""time"":954.6000000238419},{""stimulus"":""run_exp/static/images/task_images/dig.jpg"",""time"":1898.7999999523163}]",[],6,,,,,,,,,,,,,,
harvest,141,484366,0.0-44.0-1.0,"""event"",""trial"",""time""
""fullscreenenter"",""1"",""2362""
","
","
","""event"",""trial"",""time""
""fullscreenenter"",""1"",""2362""
","
",,null,run_exp/static/images/task_images/gems/52.jpg,null,,,,,,,39,,,6,,,,,52,0.7549887,0.75,,,,,,,
decision,142,484572,0.0-44.0-2.0,"""event"",""trial"",""time""
""fullscreenenter"",""1"",""2362""
","
","
","""event"",""trial"",""time""
""fullscreenenter"",""1"",""2362""
","
",,203.4,run_exp/static/images/task_images/land.jpg,65,,,,,,,39,,,6,,,,,,,,165823,1,4,FALSE,,,
dig,143,487382,0.0-45.0-0.0,"""event"",""trial"",""time""
""fullscreenenter"",""1"",""2362""
","
","
","""event"",""trial"",""time""
""fullscreenenter"",""1"",""2362""
","
",,,,,,,,,,,,"[{""stimulus"":""run_exp/static/images/task_images/dig.jpg"",""time"":0.20000004768371582},{""stimulus"":""run_exp/static/images/task_images/land.jpg"",""time"":941.6000000238419},{""stimulus"":""run_exp/static/images/task_images/dig.jpg"",""time"":1877.9000000953674}]",[],6,,,,,,,,,,,,,,
harvest,144,488389,0.0-45.0-1.0,"""event"",""trial"",""time""
""fullscreenenter"",""1"",""2362""
","
","
","""event"",""trial"",""time""
""fullscreenenter"",""1"",""2362""
","
",,null,run_exp/static/images/task_images/gems/39.jpg,null,,,,,,,34,,,6,,,,,39,0.877147923,0.871794872,,,,,,,
decision,145,489020,0.0-45.0-2.0,"""event"",""trial"",""time""
""fullscreenenter"",""1"",""2362""
","
","
","""event"",""trial"",""time""
""fullscreenenter"",""1"",""2362""
","
",,629,run_exp/static/images/task_images/land.jpg,65,,,,,,,34,,,6,,,,,,,,170271,1,5,FALSE,,,
dig,146,491406,0.0-46.0-0.0,"""event"",""trial"",""time""
""fullscreenenter"",""1"",""2362""
","
","
","""event"",""trial"",""time""
""fullscreenenter"",""1"",""2362""
","
",,,,,,,,,,,,"[{""stimulus"":""run_exp/static/images/task_images/dig.jpg"",""time"":0.20000004768371582},{""stimulus"":""run_exp/static/images/task_images/land.jpg"",""time"":792.7000000476837},{""stimulus"":""run_exp/static/images/task_images/dig.jpg"",""time"":1588.5}]",[],6,,,,,,,,,,,,,,
harvest,147,492410,0.0-46.0-1.0,"""event"",""trial"",""time""
""fullscreenenter"",""1"",""2362""
","
","
","""event"",""trial"",""time""
""fullscreenenter"",""1"",""2362""
","
",,null,run_exp/static/images/task_images/gems/34.jpg,null,,,,,,,28,,,6,,,,,34,0.821414239,0.823529412,,,,,,,
decision,148,493785,0.0-46.0-2.0,"""event"",""trial"",""time""
""fullscreenenter"",""1"",""2362""
","
","
","""event"",""trial"",""time""
""fullscreenenter"",""1"",""2362""
","
",,1373.8,run_exp/static/images/task_images/land.jpg,76,,,,,,,28,,,6,,,,,,,,175036,1,6,TRUE,,,
travel,149,502422,0.0-47.0-0.0,"""event"",""trial"",""time""
""fullscreenenter"",""1"",""2362""
","
","
","""event"",""trial"",""time""
""fullscreenenter"",""1"",""2362""
","
",,,,,,,,,,,,"[{""stimulus"":""run_exp/static/images/task_images/rocket-01.jpg"",""time"":0.20000004768371582},{""stimulus"":""run_exp/static/images/task_images/rocket-02.jpg"",""time"":969},{""stimulus"":""run_exp/static/images/task_images/rocket-03.jpg"",""time"":1925.2000000476837},{""stimulus"":""run_exp/static/images/task_images/rocket-04.jpg"",""time"":2881.2000000476837},{""stimulus"":""run_exp/static/images/task_images/rocket-05.jpg"",""time"":3841.100000023842},{""stimulus"":""run_exp/static/images/task_images/rocket-06.jpg"",""time"":4796.700000047684},{""stimulus"":""run_exp/static/images/task_images/rocket-07.jpg"",""time"":5761.200000047684},{""stimulus"":""run_exp/static/images/task_images/rocket-08.jpg"",""time"":6713.200000047684},{""stimulus"":""run_exp/static/images/task_images/rocket-09.jpg"",""time"":7673.100000023842}]",[],6,,,,,,,,,,,,,,
alien_welcome,150,507430,0.0-47.0-1.0,"""event"",""trial"",""time""
""fullscreenenter"",""1"",""2362""
","
","
","""event"",""trial"",""time""
""fullscreenenter"",""1"",""2362""
","
",,null,run_exp/static/images/task_images/aliens/old_aliens/planet/alien_planet-29.jpg,null,,,,,,,,,,,,,29,"63,59,40,32,43,34,29,41,45,20,69,18,76,37,78,30,31,80,60,62,7,25,66,72,14,47,16,11,67,36,46,75,1,5,58,39,13,3,61,42,77,64,6,8,68,71",,,,,,,,,,
land,151,507942,0.0-47.0-2.0,"""event"",""trial"",""time""
""fullscreenenter"",""1"",""2362""
","
","
","""event"",""trial"",""time""
""fullscreenenter"",""1"",""2362""
","
",,null,run_exp/static/images/task_images/land.jpg,null,,,,,,,98,,,7,,,,,,,,,,,,,,
dig,152,509954,0.0-47.0-3.0,"""event"",""trial"",""time""
""fullscreenenter"",""1"",""2362""
","
","
","""event"",""trial"",""time""
""fullscreenenter"",""1"",""2362""
","
",,,,,,,,,,,,"[{""stimulus"":""run_exp/static/images/task_images/dig.jpg"",""time"":0.6000000238418579},{""stimulus"":""run_exp/static/images/task_images/land.jpg"",""time"":678.2000000476837},{""stimulus"":""run_exp/static/images/task_images/dig.jpg"",""time"":1338.1000000238419}]",[],7,,,,,,,,,,,,,,
harvest,153,510966,0.0-47.0-4.0,"""event"",""trial"",""time""
""fullscreenenter"",""1"",""2362""
","
","
","""event"",""trial"",""time""
""fullscreenenter"",""1"",""2362""
","
",,null,run_exp/static/images/task_images/gems/98.jpg,null,,,,,,,77,,,7,,,,,98,0.785262447,0.785714286,,,,,,,
decision,154,510970,0.0-47.0-5.0,"""event"",""trial"",""time""
""fullscreenenter"",""1"",""2362""
","
","
","""event"",""trial"",""time""
""fullscreenenter"",""1"",""2362""
","
",,2.300000072,run_exp/static/images/task_images/land.jpg,65,,,,,,,77,,,7,,,,,,,,192221,1,0,FALSE,,,
dig,155,513981,0.0-48.0-0.0,"""event"",""trial"",""time""
""fullscreenenter"",""1"",""2362""
","
","
","""event"",""trial"",""time""
""fullscreenenter"",""1"",""2362""
","
",,,,,,,,,,,,"[{""stimulus"":""run_exp/static/images/task_images/dig.jpg"",""time"":0.2999999523162842},{""stimulus"":""run_exp/static/images/task_images/land.jpg"",""time"":1009},{""stimulus"":""run_exp/static/images/task_images/dig.jpg"",""time"":2009}]",[],7,,,,,,,,,,,,,,
harvest,156,514989,0.0-48.0-1.0,"""event"",""trial"",""time""
""fullscreenenter"",""1"",""2362""
","
","
","""event"",""trial"",""time""
""fullscreenenter"",""1"",""2362""
","
",,null,run_exp/static/images/task_images/gems/77.jpg,null,,,,,,,62,,,7,,,,,77,0.811348113,0.805194805,,,,,,,
decision,157,516535,0.0-48.0-2.0,"""event"",""trial"",""time""
""fullscreenenter"",""1"",""2362""
","
","
","""event"",""trial"",""time""
""fullscreenenter"",""1"",""2362""
","
",,1543.2,run_exp/static/images/task_images/land.jpg,65,,,,,,,62,,,7,,,,,,,,197786,1,1,FALSE,,,
dig,158,518002,0.0-49.0-0.0,"""event"",""trial"",""time""
""fullscreenenter"",""1"",""2362""
","
","
","""event"",""trial"",""time""
""fullscreenenter"",""1"",""2362""
","
",,,,,,,,,,,,"[{""stimulus"":""run_exp/static/images/task_images/dig.jpg"",""time"":0.10000002384185791},{""stimulus"":""run_exp/static/images/task_images/land.jpg"",""time"":487.7000000476837},{""stimulus"":""run_exp/static/images/task_images/dig.jpg"",""time"":978.1000000238419}]",[],7,,,,,,,,,,,,,,
harvest,159,519013,0.0-49.0-1.0,"""event"",""trial"",""time""
""fullscreenenter"",""1"",""2362""
","
","
","""event"",""trial"",""time""
""fullscreenenter"",""1"",""2362""
","
",,null,run_exp/static/images/task_images/gems/62.jpg,null,,,,,,,47,,,7,,,,,62,0.764416872,0.758064516,,,,,,,
decision,160,519235,0.0-49.0-2.0,"""event"",""trial"",""time""
""fullscreenenter"",""1"",""2362""
","
","
","""event"",""trial"",""time""
""fullscreenenter"",""1"",""2362""
","
",,219.7,run_exp/static/images/task_images/land.jpg,65,,,,,,,47,,,7,,,,,,,,200486,1,2,FALSE,,,
dig,161,522029,0.0-50.0-0.0,"""event"",""trial"",""time""
""fullscreenenter"",""1"",""2362""
","
","
","""event"",""trial"",""time""
""fullscreenenter"",""1"",""2362""
","
",,,,,,,,,,,,"[{""stimulus"":""run_exp/static/images/task_images/dig.jpg"",""time"":0.19999992847442627},{""stimulus"":""run_exp/static/images/task_images/land.jpg"",""time"":929.1999999284744},{""stimulus"":""run_exp/static/images/task_images/dig.jpg"",""time"":1861.7999999523163}]",[],7,,,,,,,,,,,,,,
harvest,162,523033,0.0-50.0-1.0,"""event"",""trial"",""time""
""fullscreenenter"",""1"",""2362""
","
","
","""event"",""trial"",""time""
""fullscreenenter"",""1"",""2362""
","
",,null,run_exp/static/images/task_images/gems/47.jpg,null,,,,,,,32,,,7,,,,,47,0.68872025,0.680851064,,,,,,,
decision,163,524598,0.0-50.0-2.0,"""event"",""trial"",""time""
""fullscreenenter"",""1"",""2362""
","
","
","""event"",""trial"",""time""
""fullscreenenter"",""1"",""2362""
","
",,1562.8,run_exp/static/images/task_images/land.jpg,65,,,,,,,32,,,7,,,,,,,,205849,1,3,FALSE,,,
dig,164,526044,0.0-51.0-0.0,"""event"",""trial"",""time""
""fullscreenenter"",""1"",""2362""
","
","
","""event"",""trial"",""time""
""fullscreenenter"",""1"",""2362""
","
",,,,,,,,,,,,"[{""stimulus"":""run_exp/static/images/task_images/dig.jpg"",""time"":0.10000002384185791},{""stimulus"":""run_exp/static/images/task_images/land.jpg"",""time"":489},{""stimulus"":""run_exp/static/images/task_images/dig.jpg"",""time"":964.7999999523163}]",[],7,,,,,,,,,,,,,,
harvest,165,527053,0.0-51.0-1.0,"""event"",""trial"",""time""
""fullscreenenter"",""1"",""2362""
","
","
","""event"",""trial"",""time""
""fullscreenenter"",""1"",""2362""
","
",,null,run_exp/static/images/task_images/gems/32.jpg,null,,,,,,,26,,,7,,,,,32,0.824706985,0.8125,,,,,,,
decision,166,527597,0.0-51.0-2.0,"""event"",""trial"",""time""
""fullscreenenter"",""1"",""2362""
","
","
","""event"",""trial"",""time""
""fullscreenenter"",""1"",""2362""
","
",,541.4,run_exp/static/images/task_images/land.jpg,76,,,,,,,26,,,7,,,,,,,,208848,1,4,TRUE,,,
travel,167,537060,0.0-52.0-0.0,"""event"",""trial"",""time""
""fullscreenenter"",""1"",""2362""
","
","
","""event"",""trial"",""time""
""fullscreenenter"",""1"",""2362""
","
",,,,,,,,,,,,"[{""stimulus"":""run_exp/static/images/task_images/rocket-01.jpg"",""time"":0.20000004768371582},{""stimulus"":""run_exp/static/images/task_images/rocket-02.jpg"",""time"":1060},{""stimulus"":""run_exp/static/images/task_images/rocket-03.jpg"",""time"":2108.600000023842},{""stimulus"":""run_exp/static/images/task_images/rocket-04.jpg"",""time"":3156.2000000476837},{""stimulus"":""run_exp/static/images/task_images/rocket-05.jpg"",""time"":4209.399999976158},{""stimulus"":""run_exp/static/images/task_images/rocket-06.jpg"",""time"":5260.100000023842},{""stimulus"":""run_exp/static/images/task_images/rocket-07.jpg"",""time"":6308.600000023842},{""stimulus"":""run_exp/static/images/task_images/rocket-08.jpg"",""time"":7354.700000047684},{""stimulus"":""run_exp/static/images/task_images/rocket-09.jpg"",""time"":8410.5}]",[],7,,,,,,,,,,,,,,
alien_welcome,168,542068,0.0-52.0-1.0,"""event"",""trial"",""time""
""fullscreenenter"",""1"",""2362""
","
","
","""event"",""trial"",""time""
""fullscreenenter"",""1"",""2362""
","
",,null,run_exp/static/images/task_images/aliens/old_aliens/planet/alien_planet-41.jpg,null,,,,,,,,,,,,,41,"63,59,40,32,43,34,29,41,45,20,69,18,76,37,78,30,31,80,60,62,7,25,66,72,14,47,16,11,67,36,46,75,1,5,58,39,13,3,61,42,77,64,6,8,68,71",,,,,,,,,,
land,169,542577,0.0-52.0-2.0,"""event"",""trial"",""time""
""fullscreenenter"",""1"",""2362""
","
","
","""event"",""trial"",""time""
""fullscreenenter"",""1"",""2362""
","
",,null,run_exp/static/images/task_images/land.jpg,null,,,,,,,97,,,8,,,,,,,,,,,,,,
dig,170,544588,0.0-52.0-3.0,"""event"",""trial"",""time""
""fullscreenenter"",""1"",""2362""
","
","
","""event"",""trial"",""time""
""fullscreenenter"",""1"",""2362""
","
",,,,,,,,,,,,"[{""stimulus"":""run_exp/static/images/task_images/dig.jpg"",""time"":0.6000000238418579},{""stimulus"":""run_exp/static/images/task_images/land.jpg"",""time"":673.8999999761581},{""stimulus"":""run_exp/static/images/task_images/dig.jpg"",""time"":1342.5}]",[],8,,,,,,,,,,,,,,
harvest,171,545592,0.0-52.0-4.0,"""event"",""trial"",""time""
""fullscreenenter"",""1"",""2362""
","
","
","""event"",""trial"",""time""
""fullscreenenter"",""1"",""2362""
","
",,null,run_exp/static/images/task_images/gems/97.jpg,null,,,,,,,70,,,8,,,,,97,0.717201878,0.721649485,,,,,,,
decision,172,548604,0.0-52.0-5.0,"""event"",""trial"",""time""
""fullscreenenter"",""1"",""2362""
","
","
","""event"",""trial"",""time""
""fullscreenenter"",""1"",""2362""
","
",,null,run_exp/static/images/task_images/land.jpg,null,,,,,,,70,,,8,,,,,,,,229856,1,0,FALSE,,,
time_out,173,550619,0.0-53.0-0.0,"""event"",""trial"",""time""
""fullscreenenter"",""1"",""2362""
","
","
","""event"",""trial"",""time""
""fullscreenenter"",""1"",""2362""
","
",,null,run_exp/static/images/task_images/time_out.jpg,null,,,,,,,70,,,,,,,,,,,,,,,,,
decision,174,551292,0.0-53.0-1.0,"""event"",""trial"",""time""
""fullscreenenter"",""1"",""2362""
","
","
","""event"",""trial"",""time""
""fullscreenenter"",""1"",""2362""
","
",,670.0999999,run_exp/static/images/task_images/land.jpg,65,,,,,,,70,,,8,,,,,,,,232543,1,0,FALSE,,,
dig,175,553636,0.0-54.0-0.0,"""event"",""trial"",""time""
""fullscreenenter"",""1"",""2362""
","
","
","""event"",""trial"",""time""
""fullscreenenter"",""1"",""2362""
","
",,,,,,,,,,,,"[{""stimulus"":""run_exp/static/images/task_images/dig.jpg"",""time"":0.19999992847442627},{""stimulus"":""run_exp/static/images/task_images/land.jpg"",""time"":787.2999999523163},{""stimulus"":""run_exp/static/images/task_images/dig.jpg"",""time"":1559.2999999523163}]",[],8,,,,,,,,,,,,,,
harvest,176,554643,0.0-54.0-1.0,"""event"",""trial"",""time""
""fullscreenenter"",""1"",""2362""
","
","
","""event"",""trial"",""time""
""fullscreenenter"",""1"",""2362""
","
",,null,run_exp/static/images/task_images/gems/70.jpg,null,,,,,,,51,,,8,,,,,70,0.731536667,0.728571429,,,,,,,
decision,177,554899,0.0-54.0-2.0,"""event"",""trial"",""time""
""fullscreenenter"",""1"",""2362""
","
","
","""event"",""trial"",""time""
""fullscreenenter"",""1"",""2362""
","
",,253.6999999,run_exp/static/images/task_images/land.jpg,65,,,,,,,51,,,8,,,,,,,,236150,1,1,FALSE,,,
dig,178,557659,0.0-55.0-0.0,"""event"",""trial"",""time""
""fullscreenenter"",""1"",""2362""
","
","
","""event"",""trial"",""time""
""fullscreenenter"",""1"",""2362""
","
",,,,,,,,,,,,"[{""stimulus"":""run_exp/static/images/task_images/dig.jpg"",""time"":0.3999999761581421},{""stimulus"":""run_exp/static/images/task_images/land.jpg"",""time"":922.1999999284744},{""stimulus"":""run_exp/static/images/task_images/dig.jpg"",""time"":1837.1999999284744}]",[],8,,,,,,,,,,,,,,
harvest,179,558664,0.0-55.0-1.0,"""event"",""trial"",""time""
""fullscreenenter"",""1"",""2362""
","
","
","""event"",""trial"",""time""
""fullscreenenter"",""1"",""2362""
","
",,null,run_exp/static/images/task_images/gems/51.jpg,null,,,,,,,38,,,8,,,,,51,0.741326179,0.745098039,,,,,,,
decision,180,559912,0.0-55.0-2.0,"""event"",""trial"",""time""
""fullscreenenter"",""1"",""2362""
","
","
","""event"",""trial"",""time""
""fullscreenenter"",""1"",""2362""
","
",,1245.8,run_exp/static/images/task_images/land.jpg,65,,,,,,,38,,,8,,,,,,,,241164,1,2,FALSE,,,
dig,181,561674,0.0-56.0-0.0,"""event"",""trial"",""time""
""fullscreenenter"",""1"",""2362""
","
","
","""event"",""trial"",""time""
""fullscreenenter"",""1"",""2362""
","
",,,,,,,,,,,,"[{""stimulus"":""run_exp/static/images/task_images/dig.jpg"",""time"":0.19999992847442627},{""stimulus"":""run_exp/static/images/task_images/land.jpg"",""time"":591.7999999523163},{""stimulus"":""run_exp/static/images/task_images/dig.jpg"",""time"":1171.8999999761581}]",[],8,,,,,,,,,,,,,,
harvest,182,562684,0.0-56.0-1.0,"""event"",""trial"",""time""
""fullscreenenter"",""1"",""2362""
","
","
","""event"",""trial"",""time""
""fullscreenenter"",""1"",""2362""
","
",,null,run_exp/static/images/task_images/gems/38.jpg,null,,,,,,,30,,,8,,,,,38,0.778824564,0.789473684,,,,,,,
decision,183,563174,0.0-56.0-2.0,"""event"",""trial"",""time""
""fullscreenenter"",""1"",""2362""
","
","
","""event"",""trial"",""time""
""fullscreenenter"",""1"",""2362""
","
",,487.6999999,run_exp/static/images/task_images/land.jpg,76,,,,,,,30,,,8,,,,,,,,244425,1,3,TRUE,,,
travel,184,572692,0.0-57.0-0.0,"""event"",""trial"",""time""
""fullscreenenter"",""1"",""2362""
","
","
","""event"",""trial"",""time""
""fullscreenenter"",""1"",""2362""
","
",,,,,,,,,,,,"[{""stimulus"":""run_exp/static/images/task_images/rocket-01.jpg"",""time"":0.19999992847442627},{""stimulus"":""run_exp/static/images/task_images/rocket-02.jpg"",""time"":1061.5},{""stimulus"":""run_exp/static/images/task_images/rocket-03.jpg"",""time"":2117.899999976158},{""stimulus"":""run_exp/static/images/task_images/rocket-04.jpg"",""time"":3177.2999999523163},{""stimulus"":""run_exp/static/images/task_images/rocket-05.jpg"",""time"":4229.299999952316},{""stimulus"":""run_exp/static/images/task_images/rocket-06.jpg"",""time"":5288},{""stimulus"":""run_exp/static/images/task_images/rocket-07.jpg"",""time"":6341.799999952316},{""stimulus"":""run_exp/static/images/task_images/rocket-08.jpg"",""time"":7400.699999928474},{""stimulus"":""run_exp/static/images/task_images/rocket-09.jpg"",""time"":8457.299999952316}]",[],8,,,,,,,,,,,,,,
alien_welcome,185,577698,0.0-57.0-1.0,"""event"",""trial"",""time""
""fullscreenenter"",""1"",""2362""
","
","
","""event"",""trial"",""time""
""fullscreenenter"",""1"",""2362""
","
",,null,run_exp/static/images/task_images/aliens/old_aliens/planet/alien_planet-45.jpg,null,,,,,,,,,,,,,45,"63,59,40,32,43,34,29,41,45,20,69,18,76,37,78,30,31,80,60,62,7,25,66,72,14,47,16,11,67,36,46,75,1,5,58,39,13,3,61,42,77,64,6,8,68,71",,,,,,,,,,
land,186,578211,0.0-57.0-2.0,"""event"",""trial"",""time""
""fullscreenenter"",""1"",""2362""
","
","
","""event"",""trial"",""time""
""fullscreenenter"",""1"",""2362""
","
",,null,run_exp/static/images/task_images/land.jpg,null,,,,,,,98,,,9,,,,,,,,,,,,,,
dig,187,580227,0.0-57.0-3.0,"""event"",""trial"",""time""
""fullscreenenter"",""1"",""2362""
","
","
","""event"",""trial"",""time""
""fullscreenenter"",""1"",""2362""
","
",,,,,,,,,,,,"[{""stimulus"":""run_exp/static/images/task_images/dig.jpg"",""time"":0.6000000238418579},{""stimulus"":""run_exp/static/images/task_images/land.jpg"",""time"":678},{""stimulus"":""run_exp/static/images/task_images/dig.jpg"",""time"":1342.1000000238419}]",[],9,,,,,,,,,,,,,,
harvest,188,581231,0.0-57.0-4.0,"""event"",""trial"",""time""
""fullscreenenter"",""1"",""2362""
","
","
","""event"",""trial"",""time""
""fullscreenenter"",""1"",""2362""
","
",,null,run_exp/static/images/task_images/gems/98.jpg,null,,,,,,,16,,,9,,,,,98,0.164570344,0.163265306,,,,,,,
decision,189,584239,0.0-57.0-5.0,"""event"",""trial"",""time""
""fullscreenenter"",""1"",""2362""
","
","
","""event"",""trial"",""time""
""fullscreenenter"",""1"",""2362""
","
",,null,run_exp/static/images/task_images/land.jpg,null,,,,,,,16,,,9,,,,,,,,265490,1,0,FALSE,,,
time_out,190,586251,0.0-58.0-0.0,"""event"",""trial"",""time""
""fullscreenenter"",""1"",""2362""
","
","
","""event"",""trial"",""time""
""fullscreenenter"",""1"",""2362""
","
",,null,run_exp/static/images/task_images/time_out.jpg,null,,,,,,,16,,,,,,,,,,,,,,,,,
decision,191,587252,0.0-58.0-1.0,"""event"",""trial"",""time""
""fullscreenenter"",""1"",""2362""
","
","
","""event"",""trial"",""time""
""fullscreenenter"",""1"",""2362""
","
",,998.5,run_exp/static/images/task_images/land.jpg,65,,,,,,,16,,,9,,,,,,,,268503,1,0,FALSE,,,
dig,192,589267,0.0-59.0-0.0,"""event"",""trial"",""time""
""fullscreenenter"",""1"",""2362""
","
","
","""event"",""trial"",""time""
""fullscreenenter"",""1"",""2362""
","
",,,,,,,,,,,,"[{""stimulus"":""run_exp/static/images/task_images/dig.jpg"",""time"":0.10000002384185791},{""stimulus"":""run_exp/static/images/task_images/land.jpg"",""time"":674.8999999761581},{""stimulus"":""run_exp/static/images/task_images/dig.jpg"",""time"":1345.6000000238419}]",[],9,,,,,,,,,,,,,,
harvest,193,590271,0.0-59.0-1.0,"""event"",""trial"",""time""
""fullscreenenter"",""1"",""2362""
","
","
","""event"",""trial"",""time""
""fullscreenenter"",""1"",""2362""
","
",,null,run_exp/static/images/task_images/gems/16.jpg,null,,,,,,,4,,,9,,,,,16,0.265782957,0.25,,,,,,,
decision,194,590941,0.0-59.0-2.0,"""event"",""trial"",""time""
""fullscreenenter"",""1"",""2362""
","
","
","""event"",""trial"",""time""
""fullscreenenter"",""1"",""2362""
","
",,667.9,run_exp/static/images/task_images/land.jpg,65,,,,,,,4,,,9,,,,,,,,272192,1,1,FALSE,,,
dig,195,593279,0.0-60.0-0.0,"""event"",""trial"",""time""
""fullscreenenter"",""1"",""2362""
","
","
","""event"",""trial"",""time""
""fullscreenenter"",""1"",""2362""
","
",,,,,,,,,,,,"[{""stimulus"":""run_exp/static/images/task_images/dig.jpg"",""time"":0.19999992847442627},{""stimulus"":""run_exp/static/images/task_images/land.jpg"",""time"":783},{""stimulus"":""run_exp/static/images/task_images/dig.jpg"",""time"":1561.3999999761581}]",[],9,,,,,,,,,,,,,,
harvest,196,594291,0.0-60.0-1.0,"""event"",""trial"",""time""
""fullscreenenter"",""1"",""2362""
","
","
","""event"",""trial"",""time""
""fullscreenenter"",""1"",""2362""
","
",,null,run_exp/static/images/task_images/gems/4.jpg,null,,,,,,,1,,,9,,,,,4,0.256810762,0.25,,,,,,,
decision,197,594803,0.0-60.0-2.0,"""event"",""trial"",""time""
""fullscreenenter"",""1"",""2362""
","
","
","""event"",""trial"",""time""
""fullscreenenter"",""1"",""2362""
","
",,509.9,run_exp/static/images/task_images/land.jpg,76,,,,,,,1,,,9,,,,,,,,276054,1,2,TRUE,,,
travel,198,604303,0.0-61.0-0.0,"""event"",""trial"",""time""
""fullscreenenter"",""1"",""2362""
","
","
","""event"",""trial"",""time""
""fullscreenenter"",""1"",""2362""
","
",,,,,,,,,,,,"[{""stimulus"":""run_exp/static/images/task_images/rocket-01.jpg"",""time"":0.19999992847442627},{""stimulus"":""run_exp/static/images/task_images/rocket-02.jpg"",""time"":1066.2999999523163},{""stimulus"":""run_exp/static/images/task_images/rocket-03.jpg"",""time"":2118.7999999523163},{""stimulus"":""run_exp/static/images/task_images/rocket-04.jpg"",""time"":3170.2999999523163},{""stimulus"":""run_exp/static/images/task_images/rocket-05.jpg"",""time"":4222.299999952316},{""stimulus"":""run_exp/static/images/task_images/rocket-06.jpg"",""time"":5280},{""stimulus"":""run_exp/static/images/task_images/rocket-07.jpg"",""time"":6325.899999976158},{""stimulus"":""run_exp/static/images/task_images/rocket-08.jpg"",""time"":7384.399999976158},{""stimulus"":""run_exp/static/images/task_images/rocket-09.jpg"",""time"":8442.299999952316}]",[],9,,,,,,,,,,,,,,
alien_welcome,199,609314,0.0-61.0-1.0,"""event"",""trial"",""time""
""fullscreenenter"",""1"",""2362""
","
","
","""event"",""trial"",""time""
""fullscreenenter"",""1"",""2362""
","
",,null,run_exp/static/images/task_images/aliens/old_aliens/planet/alien_planet-20.jpg,null,,,,,,,,,,,,,20,"63,59,40,32,43,34,29,41,45,20,69,18,76,37,78,30,31,80,60,62,7,25,66,72,14,47,16,11,67,36,46,75,1,5,58,39,13,3,61,42,77,64,6,8,68,71",,,,,,,,,,
land,200,609825,0.0-61.0-2.0,"""event"",""trial"",""time""
""fullscreenenter"",""1"",""2362""
","
","
","""event"",""trial"",""time""
""fullscreenenter"",""1"",""2362""
","
",,null,run_exp/static/images/task_images/land.jpg,null,,,,,,,104,,,10,,,,,,,,,,,,,,
dig,201,611842,0.0-61.0-3.0,"""event"",""trial"",""time""
""fullscreenenter"",""1"",""2362""
","
","
","""event"",""trial"",""time""
""fullscreenenter"",""1"",""2362""
","
",,,,,,,,,,,,"[{""stimulus"":""run_exp/static/images/task_images/dig.jpg"",""time"":0.6000000238418579},{""stimulus"":""run_exp/static/images/task_images/land.jpg"",""time"":674.2999999523163},{""stimulus"":""run_exp/static/images/task_images/dig.jpg"",""time"":1338.7999999523163}]",[],10,,,,,,,,,,,,,,
harvest,202,612850,0.0-61.0-4.0,"""event"",""trial"",""time""
""fullscreenenter"",""1"",""2362""
","
","
","""event"",""trial"",""time""
""fullscreenenter"",""1"",""2362""
","
",,null,run_exp/static/images/task_images/gems/104.jpg,null,,,,,,,20,,,10,,,,,104,0.195891314,0.192307692,,,,,,,
decision,203,612922,0.0-61.0-5.0,"""event"",""trial"",""time""
""fullscreenenter"",""1"",""2362""
","
","
","""event"",""trial"",""time""
""fullscreenenter"",""1"",""2362""
","
",,69.70000005,run_exp/static/images/task_images/land.jpg,65,,,,,,,20,,,10,,,,,,,,294174,1,0,FALSE,,,
dig,204,615866,0.0-62.0-0.0,"""event"",""trial"",""time""
""fullscreenenter"",""1"",""2362""
","
","
","""event"",""trial"",""time""
""fullscreenenter"",""1"",""2362""
","
",,,,,,,,,,,,"[{""stimulus"":""run_exp/static/images/task_images/dig.jpg"",""time"":0.09999990463256836},{""stimulus"":""run_exp/static/images/task_images/land.jpg"",""time"":983.6999999284744},{""stimulus"":""run_exp/static/images/task_images/dig.jpg"",""time"":1963.7999999523163}]",[],10,,,,,,,,,,,,,,
harvest,205,616870,0.0-62.0-1.0,"""event"",""trial"",""time""
""fullscreenenter"",""1"",""2362""
","
","
","""event"",""trial"",""time""
""fullscreenenter"",""1"",""2362""
","
",,null,run_exp/static/images/task_images/gems/20.jpg,null,,,,,,,5,,,10,,,,,20,0.241124484,0.25,,,,,,,
decision,206,617362,0.0-62.0-2.0,"""event"",""trial"",""time""
""fullscreenenter"",""1"",""2362""
","
","
","""event"",""trial"",""time""
""fullscreenenter"",""1"",""2362""
","
",,489.6,run_exp/static/images/task_images/land.jpg,76,,,,,,,5,,,10,,,,,,,,298613,1,1,TRUE,,,
travel,207,626882,0.0-63.0-0.0,"""event"",""trial"",""time""
""fullscreenenter"",""1"",""2362""
","
","
","""event"",""trial"",""time""
""fullscreenenter"",""1"",""2362""
","
",,,,,,,,,,,,"[{""stimulus"":""run_exp/static/images/task_images/rocket-01.jpg"",""time"":0.3999999761581421},{""stimulus"":""run_exp/static/images/task_images/rocket-02.jpg"",""time"":1067.3999999761581},{""stimulus"":""run_exp/static/images/task_images/rocket-03.jpg"",""time"":2123.5},{""stimulus"":""run_exp/static/images/task_images/rocket-04.jpg"",""time"":3176.7000000476837},{""stimulus"":""run_exp/static/images/task_images/rocket-05.jpg"",""time"":4235.600000023842},{""stimulus"":""run_exp/static/images/task_images/rocket-06.jpg"",""time"":5291.200000047684},{""stimulus"":""run_exp/static/images/task_images/rocket-07.jpg"",""time"":6344.200000047684},{""stimulus"":""run_exp/static/images/task_images/rocket-08.jpg"",""time"":7395.700000047684},{""stimulus"":""run_exp/static/images/task_images/rocket-09.jpg"",""time"":8459.5}]",[],10,,,,,,,,,,,,,,
alien_welcome,208,631889,0.0-63.0-1.0,"""event"",""trial"",""time""
""fullscreenenter"",""1"",""2362""
","
","
","""event"",""trial"",""time""
""fullscreenenter"",""1"",""2362""
","
",,null,run_exp/static/images/task_images/aliens/old_aliens/planet/alien_planet-69.jpg,null,,,,,,,,,,,,,69,"63,59,40,32,43,34,29,41,45,20,69,18,76,37,78,30,31,80,60,62,7,25,66,72,14,47,16,11,67,36,46,75,1,5,58,39,13,3,61,42,77,64,6,8,68,71",,,,,,,,,,
land,209,632401,0.0-63.0-2.0,"""event"",""trial"",""time""
""fullscreenenter"",""1"",""2362""
","
","
","""event"",""trial"",""time""
""fullscreenenter"",""1"",""2362""
","
",,null,run_exp/static/images/task_images/land.jpg,null,,,,,,,98,,,11,,,,,,,,,,,,,,
dig,210,634409,0.0-63.0-3.0,"""event"",""trial"",""time""
""fullscreenenter"",""1"",""2362""
","
","
","""event"",""trial"",""time""
""fullscreenenter"",""1"",""2362""
","
",,,,,,,,,,,,"[{""stimulus"":""run_exp/static/images/task_images/dig.jpg"",""time"":0.10000002384185791},{""stimulus"":""run_exp/static/images/task_images/land.jpg"",""time"":680.5},{""stimulus"":""run_exp/static/images/task_images/dig.jpg"",""time"":1341.2999999523163}]",[],11,,,,,,,,,,,,,,
harvest,211,635418,0.0-63.0-4.0,"""event"",""trial"",""time""
""fullscreenenter"",""1"",""2362""
","
","
","""event"",""trial"",""time""
""fullscreenenter"",""1"",""2362""
","
",,null,run_exp/static/images/task_images/gems/98.jpg,null,,,,,,,16,,,11,,,,,98,0.160522754,0.163265306,,,,,,,
decision,212,636948,0.0-63.0-5.0,"""event"",""trial"",""time""
""fullscreenenter"",""1"",""2362""
","
","
","""event"",""trial"",""time""
""fullscreenenter"",""1"",""2362""
","
",,1528.1,run_exp/static/images/task_images/land.jpg,65,,,,,,,16,,,11,,,,,,,,318199,1,0,TRUE,,,
end_of_block_continue,213,640152,0.0-64.0-0.0,"""event"",""trial"",""time""
""fullscreenenter"",""1"",""2362""
","
","
","""event"",""trial"",""time""
""fullscreenenter"",""1"",""2362""
","
",,3198.6,run_exp/static/audio/clip_32_block_end.m4a,,,,,,,0,,,,,,,,,,,,,,,,,,
alien_welcome,214,645161,0.0-65.0-0.0,"""event"",""trial"",""time""
""fullscreenenter"",""1"",""2362""
","
","
","""event"",""trial"",""time""
""fullscreenenter"",""1"",""2362""
","
",,null,run_exp/static/images/task_images/aliens/old_aliens/planet/alien_planet-18.jpg,null,,,,,,,,,,,,,18,"63,59,40,32,43,34,29,41,45,20,69,18,76,37,78,30,31,80,60,62,7,25,66,72,14,47,16,11,67,36,46,75,1,5,58,39,13,3,61,42,77,64,6,8,68,71",,,,,,,,,,
land,215,645673,0.0-65.0-1.0,"""event"",""trial"",""time""
""fullscreenenter"",""1"",""2362""
","
","
","""event"",""trial"",""time""
""fullscreenenter"",""1"",""2362""
","
",,null,run_exp/static/images/task_images/land.jpg,null,,,,,,,93,,,12,,,,,,,,,,,,,,
dig,216,647689,0.0-65.0-2.0,"""event"",""trial"",""time""
""fullscreenenter"",""1"",""2362""
","
","
","""event"",""trial"",""time""
""fullscreenenter"",""1"",""2362""
","
",,,,,,,,,,,,"[{""stimulus"":""run_exp/static/images/task_images/dig.jpg"",""time"":0.6000000238418579},{""stimulus"":""run_exp/static/images/task_images/land.jpg"",""time"":674},{""stimulus"":""run_exp/static/images/task_images/dig.jpg"",""time"":1337.8999999761581}]",[],12,,,,,,,,,,,,,,
harvest,217,648697,0.0-65.0-3.0,"""event"",""trial"",""time""
""fullscreenenter"",""1"",""2362""
","
","
","""event"",""trial"",""time""
""fullscreenenter"",""1"",""2362""
","
",,null,run_exp/static/images/task_images/gems/93.jpg,null,,,,,,,28,,,12,,,,,93,0.295931981,0.301075269,,,,,,,
decision,218,649425,0.0-65.0-4.0,"""event"",""trial"",""time""
""fullscreenenter"",""1"",""2362""
","
","
","""event"",""trial"",""time""
""fullscreenenter"",""1"",""2362""
","
",,725.8,run_exp/static/images/task_images/land.jpg,65,,,,,,,28,,,12,,,,,,,,9271,2,0,FALSE,,,
dig,219,651713,0.0-66.0-0.0,"""event"",""trial"",""time""
""fullscreenenter"",""1"",""2362""
","
","
","""event"",""trial"",""time""
""fullscreenenter"",""1"",""2362""
","
",,,,,,,,,,,,"[{""stimulus"":""run_exp/static/images/task_images/dig.jpg"",""time"":0.19999992847442627},{""stimulus"":""run_exp/static/images/task_images/land.jpg"",""time"":763.1999999284744},{""stimulus"":""run_exp/static/images/task_images/dig.jpg"",""time"":1523.1999999284744}]",[],12,,,,,,,,,,,,,,
harvest,220,652721,0.0-66.0-1.0,"""event"",""trial"",""time""
""fullscreenenter"",""1"",""2362""
","
","
","""event"",""trial"",""time""
""fullscreenenter"",""1"",""2362""
","
",,null,run_exp/static/images/task_images/gems/28.jpg,null,,,,,,,7,,,12,,,,,28,0.261897646,0.25,,,,,,,
decision,221,652924,0.0-66.0-2.0,"""event"",""trial"",""time""
""fullscreenenter"",""1"",""2362""
","
","
","""event"",""trial"",""time""
""fullscreenenter"",""1"",""2362""
","
",,200.8,run_exp/static/images/task_images/land.jpg,76,,,,,,,7,,,12,,,,,,,,12769,2,1,TRUE,,,
travel,222,662729,0.0-67.0-0.0,"""event"",""trial"",""time""
""fullscreenenter"",""1"",""2362""
","
","
","""event"",""trial"",""time""
""fullscreenenter"",""1"",""2362""
","
",,,,,,,,,,,,"[{""stimulus"":""run_exp/static/images/task_images/rocket-01.jpg"",""time"":0.19999992847442627},{""stimulus"":""run_exp/static/images/task_images/rocket-02.jpg"",""time"":1095.8999999761581},{""stimulus"":""run_exp/static/images/task_images/rocket-03.jpg"",""time"":2180.7999999523163},{""stimulus"":""run_exp/static/images/task_images/rocket-04.jpg"",""time"":3268.2999999523163},{""stimulus"":""run_exp/static/images/task_images/rocket-05.jpg"",""time"":4359.599999904633},{""stimulus"":""run_exp/static/images/task_images/rocket-06.jpg"",""time"":5444.299999952316},{""stimulus"":""run_exp/static/images/task_images/rocket-07.jpg"",""time"":6536.199999928474},{""stimulus"":""run_exp/static/images/task_images/rocket-08.jpg"",""time"":7624.299999952316},{""stimulus"":""run_exp/static/images/task_images/rocket-09.jpg"",""time"":8712.299999952316}]",[],12,,,,,,,,,,,,,,
alien_welcome,223,667733,0.0-67.0-1.0,"""event"",""trial"",""time""
""fullscreenenter"",""1"",""2362""
","
","
","""event"",""trial"",""time""
""fullscreenenter"",""1"",""2362""
","
",,null,run_exp/static/images/task_images/aliens/old_aliens/planet/alien_planet-76.jpg,null,,,,,,,,,,,,,76,"63,59,40,32,43,34,29,41,45,20,69,18,76,37,78,30,31,80,60,62,7,25,66,72,14,47,16,11,67,36,46,75,1,5,58,39,13,3,61,42,77,64,6,8,68,71",,,,,,,,,,
land,224,668240,0.0-67.0-2.0,"""event"",""trial"",""time""
""fullscreenenter"",""1"",""2362""
","
","
","""event"",""trial"",""time""
""fullscreenenter"",""1"",""2362""
","
",,null,run_exp/static/images/task_images/land.jpg,null,,,,,,,102,,,13,,,,,,,,,,,,,,
dig,225,670253,0.0-67.0-3.0,"""event"",""trial"",""time""
""fullscreenenter"",""1"",""2362""
","
","
","""event"",""trial"",""time""
""fullscreenenter"",""1"",""2362""
","
",,,,,,,,,,,,"[{""stimulus"":""run_exp/static/images/task_images/dig.jpg"",""time"":0.5},{""stimulus"":""run_exp/static/images/task_images/land.jpg"",""time"":678.2999999523163},{""stimulus"":""run_exp/static/images/task_images/dig.jpg"",""time"":1342.3999999761581}]",[],13,,,,,,,,,,,,,,
harvest,226,671260,0.0-67.0-4.0,"""event"",""trial"",""time""
""fullscreenenter"",""1"",""2362""
","
","
","""event"",""trial"",""time""
""fullscreenenter"",""1"",""2362""
","
",,null,run_exp/static/images/task_images/gems/102.jpg,null,,,,,,,32,,,13,,,,,102,0.309728913,0.31372549,,,,,,,
decision,227,672767,0.0-67.0-5.0,"""event"",""trial"",""time""
""fullscreenenter"",""1"",""2362""
","
","
","""event"",""trial"",""time""
""fullscreenenter"",""1"",""2362""
","
",,1504.6,run_exp/static/images/task_images/land.jpg,65,,,,,,,32,,,13,,,,,,,,32613,2,0,FALSE,,,
dig,228,674278,0.0-68.0-0.0,"""event"",""trial"",""time""
""fullscreenenter"",""1"",""2362""
","
","
","""event"",""trial"",""time""
""fullscreenenter"",""1"",""2362""
","
",,,,,,,,,,,,"[{""stimulus"":""run_exp/static/images/task_images/dig.jpg"",""time"":0.20000004768371582},{""stimulus"":""run_exp/static/images/task_images/land.jpg"",""time"":500.2000000476837},{""stimulus"":""run_exp/static/images/task_images/dig.jpg"",""time"":1004.1000000238419}]",[],13,,,,,,,,,,,,,,
harvest,229,675285,0.0-68.0-1.0,"""event"",""trial"",""time""
""fullscreenenter"",""1"",""2362""
","
","
","""event"",""trial"",""time""
""fullscreenenter"",""1"",""2362""
","
",,null,run_exp/static/images/task_images/gems/32.jpg,null,,,,,,,6,,,13,,,,,32,0.17609442,0.1875,,,,,,,
decision,230,676398,0.0-68.0-2.0,"""event"",""trial"",""time""
""fullscreenenter"",""1"",""2362""
","
","
","""event"",""trial"",""time""
""fullscreenenter"",""1"",""2362""
","
",,1111.3,run_exp/static/images/task_images/land.jpg,76,,,,,,,6,,,13,,,,,,,,36243,2,1,TRUE,,,
travel,231,685292,0.0-69.0-0.0,"""event"",""trial"",""time""
""fullscreenenter"",""1"",""2362""
","
","
","""event"",""trial"",""time""
""fullscreenenter"",""1"",""2362""
","
",,,,,,,,,,,,"[{""stimulus"":""run_exp/static/images/task_images/rocket-01.jpg"",""time"":0.10000002384185791},{""stimulus"":""run_exp/static/images/task_images/rocket-02.jpg"",""time"":998.6000000238419},{""stimulus"":""run_exp/static/images/task_images/rocket-03.jpg"",""time"":1981.5},{""stimulus"":""run_exp/static/images/task_images/rocket-04.jpg"",""time"":2972.2000000476837},{""stimulus"":""run_exp/static/images/task_images/rocket-05.jpg"",""time"":3958.7000000476837},{""stimulus"":""run_exp/static/images/task_images/rocket-06.jpg"",""time"":4938.600000023842},{""stimulus"":""run_exp/static/images/task_images/rocket-07.jpg"",""time"":5934.600000023842},{""stimulus"":""run_exp/static/images/task_images/rocket-08.jpg"",""time"":6910.700000047684},{""stimulus"":""run_exp/static/images/task_images/rocket-09.jpg"",""time"":7899}]",[],13,,,,,,,,,,,,,,
alien_welcome,232,690304,0.0-69.0-1.0,"""event"",""trial"",""time""
""fullscreenenter"",""1"",""2362""
","
","
","""event"",""trial"",""time""
""fullscreenenter"",""1"",""2362""
","
",,null,run_exp/static/images/task_images/aliens/old_aliens/planet/alien_planet-37.jpg,null,,,,,,,,,,,,,37,"63,59,40,32,43,34,29,41,45,20,69,18,76,37,78,30,31,80,60,62,7,25,66,72,14,47,16,11,67,36,46,75,1,5,58,39,13,3,61,42,77,64,6,8,68,71",,,,,,,,,,
land,233,690816,0.0-69.0-2.0,"""event"",""trial"",""time""
""fullscreenenter"",""1"",""2362""
","
","
","""event"",""trial"",""time""
""fullscreenenter"",""1"",""2362""
","
",,null,run_exp/static/images/task_images/land.jpg,null,,,,,,,104,,,14,,,,,,,,,,,,,,
dig,234,692832,0.0-69.0-3.0,"""event"",""trial"",""time""
""fullscreenenter"",""1"",""2362""
","
","
","""event"",""trial"",""time""
""fullscreenenter"",""1"",""2362""
","
",,,,,,,,,,,,"[{""stimulus"":""run_exp/static/images/task_images/dig.jpg"",""time"":0.5},{""stimulus"":""run_exp/static/images/task_images/land.jpg"",""time"":674},{""stimulus"":""run_exp/static/images/task_images/dig.jpg"",""time"":1341.7999999523163}]",[],14,,,,,,,,,,,,,,
harvest,235,693840,0.0-69.0-4.0,"""event"",""trial"",""time""
""fullscreenenter"",""1"",""2362""
","
","
","""event"",""trial"",""time""
""fullscreenenter"",""1"",""2362""
","
",,null,run_exp/static/images/task_images/gems/104.jpg,null,,,,,,,33,,,14,,,,,104,0.31905886,0.317307692,,,,,,,
decision,236,694259,0.0-69.0-5.0,"""event"",""trial"",""time""
""fullscreenenter"",""1"",""2362""
","
","
","""event"",""trial"",""time""
""fullscreenenter"",""1"",""2362""
","
",,417.1,run_exp/static/images/task_images/land.jpg,65,,,,,,,33,,,14,,,,,,,,54104,2,0,FALSE,,,
dig,237,696856,0.0-70.0-0.0,"""event"",""trial"",""time""
""fullscreenenter"",""1"",""2362""
","
","
","""event"",""trial"",""time""
""fullscreenenter"",""1"",""2362""
","
",,,,,,,,,,,,"[{""stimulus"":""run_exp/static/images/task_images/dig.jpg"",""time"":0.3999999761581421},{""stimulus"":""run_exp/static/images/task_images/land.jpg"",""time"":868.5999999046326},{""stimulus"":""run_exp/static/images/task_images/dig.jpg"",""time"":1727.7999999523163}]",[],14,,,,,,,,,,,,,,
harvest,238,697861,0.0-70.0-1.0,"""event"",""trial"",""time""
""fullscreenenter"",""1"",""2362""
","
","
","""event"",""trial"",""time""
""fullscreenenter"",""1"",""2362""
","
",,null,run_exp/static/images/task_images/gems/33.jpg,null,,,,,,,4,,,14,,,,,33,0.12730884,0.121212121,,,,,,,
decision,239,698282,0.0-70.0-2.0,"""event"",""trial"",""time""
""fullscreenenter"",""1"",""2362""
","
","
","""event"",""trial"",""time""
""fullscreenenter"",""1"",""2362""
","
",,418.5,run_exp/static/images/task_images/land.jpg,76,,,,,,,4,,,14,,,,,,,,58128,2,1,TRUE,,,
travel,240,707871,0.0-71.0-0.0,"""event"",""trial"",""time""
""fullscreenenter"",""1"",""2362""
","
","
","""event"",""trial"",""time""
""fullscreenenter"",""1"",""2362""
","
",,,,,,,,,,,,"[{""stimulus"":""run_exp/static/images/task_images/rocket-01.jpg"",""time"":0.20000004768371582},{""stimulus"":""run_exp/static/images/task_images/rocket-02.jpg"",""time"":1070.6000000238419},{""stimulus"":""run_exp/static/images/task_images/rocket-03.jpg"",""time"":2132.3000000715256},{""stimulus"":""run_exp/static/images/task_images/rocket-04.jpg"",""time"":3200.100000023842},{""stimulus"":""run_exp/static/images/task_images/rocket-05.jpg"",""time"":4264.200000047684},{""stimulus"":""run_exp/static/images/task_images/rocket-06.jpg"",""time"":5324},{""stimulus"":""run_exp/static/images/task_images/rocket-07.jpg"",""time"":6388.100000023842},{""stimulus"":""run_exp/static/images/task_images/rocket-08.jpg"",""time"":7452.300000071526},{""stimulus"":""run_exp/static/images/task_images/rocket-09.jpg"",""time"":8515.800000071526}]",[],14,,,,,,,,,,,,,,
alien_welcome,241,712874,0.0-71.0-1.0,"""event"",""trial"",""time""
""fullscreenenter"",""1"",""2362""
","
","
","""event"",""trial"",""time""
""fullscreenenter"",""1"",""2362""
