trial_type,trial_index,time_elapsed,internal_node_id,interactions,blur_events,focus_events,fullscreenenter_events,fullscreenexit_events,success,rt,stimulus,key_press,prompt,subject_id,participant_id,age,gender,button_pressed,next_reward,animation_sequence,responses,planet,curr_prac_trial,n_prac_rounds,alien,aliens,reward_received,decay_rate_actual,decay_rate_exp,time_in_block,block_num,prt,last_trial_on_planet,button_html,bonus,num_failures
pavlovia,0,3,0.0-0.0,"""event"",""trial"",""time""
""blur"",""0"",""0""
""focus"",""1"",""16493""
""fullscreenenter"",""1"",""16626""
","""event"",""trial"",""time""
""blur"",""0"",""0""
","""event"",""trial"",""time""
""focus"",""1"",""16493""
","""event"",""trial"",""time""
""fullscreenenter"",""1"",""16626""
","
",,,,,,,,,,,,,,,,,,,,,,,,,,,,
fullscreen,1,17597,0.0-1.0,"""event"",""trial"",""time""
""blur"",""0"",""0""
""focus"",""1"",""16493""
""fullscreenenter"",""1"",""16626""
","""event"",""trial"",""time""
""blur"",""0"",""0""
","""event"",""trial"",""time""
""focus"",""1"",""16493""
","""event"",""trial"",""time""
""fullscreenenter"",""1"",""16626""
","
",TRUE,,,,,,,,,,,,,,,,,,,,,,,,,,,
instruc_welcome,2,28021,0.0-2.0,"""event"",""trial"",""time""
""blur"",""0"",""0""
""focus"",""1"",""16493""
""fullscreenenter"",""1"",""16626""
","""event"",""trial"",""time""
""blur"",""0"",""0""
","""event"",""trial"",""time""
""focus"",""1"",""16493""
","""event"",""trial"",""time""
""fullscreenenter"",""1"",""16626""
","
",,null,run_exp/static/audio/clip_1_welcome.m4a,null,"<p>Howdy! In this experiment, you’ll be an explorer traveling through space to collect space treasure.</p><p>Your mission is to collect as much treasure as possible.</p><br><br><p><img src='run_exp/static/images/task_images/opening_img-01.jpg' height='300' width='auto'></p>",10255,4720,23.83,Male,,,,,,,,,,,,,,,,,,,
audio-keyboard-response,3,44647,0.0-3.0,"""event"",""trial"",""time""
""blur"",""0"",""0""
""focus"",""1"",""16493""
""fullscreenenter"",""1"",""16626""
","""event"",""trial"",""time""
""blur"",""0"",""0""
","""event"",""trial"",""time""
""focus"",""1"",""16493""
","""event"",""trial"",""time""
""fullscreenenter"",""1"",""16626""
","
",,null,run_exp/static/audio/clip_2_move.m4a,null,,,,,,,,,,,,,,,,,,,,,,,,
welcome_dec,4,50434,0.0-4.0,"""event"",""trial"",""time""
""blur"",""0"",""0""
""focus"",""1"",""16493""
""fullscreenenter"",""1"",""16626""
","""event"",""trial"",""time""
""blur"",""0"",""0""
","""event"",""trial"",""time""
""focus"",""1"",""16493""
","""event"",""trial"",""time""
""fullscreenenter"",""1"",""16626""
","
",,5784.6,"<p>Howdy! In this experiment, you’ll be an explorer traveling through space to collect space treasure.</p><p>Your mission is to collect as much treasure as possible.</p><br><br><p><img src='run_exp/static/images/task_images/opening_img-01.jpg' height='300' width='auto'></p>",,,,,,,0,,,,,,,,,,,,,,,,,,
html-keyboard-response,5,53866,0.0-5.0,"""event"",""trial"",""time""
""blur"",""0"",""0""
""focus"",""1"",""16493""
""fullscreenenter"",""1"",""16626""
","""event"",""trial"",""time""
""blur"",""0"",""0""
","""event"",""trial"",""time""
""focus"",""1"",""16493""
","""event"",""trial"",""time""
""fullscreenenter"",""1"",""16626""
","
",,3426.1,"<p>Howdy! In this experiment, you’ll be an explorer traveling through space to collect space treasure.</p><p>Your mission is to collect as much treasure as possible.</p><br><br><p><img src='run_exp/static/images/task_images/opening_img-01.jpg' height='300' width='auto'></p><button class=""jspsych-html-btn-chosen""><img src=""run_exp/static/images/task_images/planet-01.jpg"" height=""50""></button><button class=""jspsych-html-btn-unchosen""><img src=""run_exp/static/images/task_images/planet-02.jpg"" height=""50""></button><p><b>[press the space bar to lock in your answer]<b><br></p>",32,,,,,,,,,,,,,,,,,,,,,,,,
instruc_welcome,6,63612,0.0-6.0-0.0,"""event"",""trial"",""time""
""blur"",""0"",""0""
""focus"",""1"",""16493""
""fullscreenenter"",""1"",""16626""
","""event"",""trial"",""time""
""blur"",""0"",""0""
","""event"",""trial"",""time""
""focus"",""1"",""16493""
","""event"",""trial"",""time""
""fullscreenenter"",""1"",""16626""
","
",,null,run_exp/static/audio/clip_1_welcome.m4a,null,"<p>Howdy! In this experiment, you’ll be an explorer traveling through space to collect space treasure.</p><p>Your mission is to collect as much treasure as possible.</p><br><br><p><img src='run_exp/static/images/task_images/opening_img-01.jpg' height='300' width='auto'></p>",10255,4720,23,Male,,,,,,,,,,,,,,,,,,,
audio-keyboard-response,7,80421,0.0-6.0-1.0,"""event"",""trial"",""time""
""blur"",""0"",""0""
""focus"",""1"",""16493""
""fullscreenenter"",""1"",""16626""
","""event"",""trial"",""time""
""blur"",""0"",""0""
","""event"",""trial"",""time""
""focus"",""1"",""16493""
","""event"",""trial"",""time""
""fullscreenenter"",""1"",""16626""
","
",,null,run_exp/static/audio/clip_2_move.m4a,null,,,,,,,,,,,,,,,,,,,,,,,,
welcome_dec,8,84020,0.0-6.0-2.0,"""event"",""trial"",""time""
""blur"",""0"",""0""
""focus"",""1"",""16493""
""fullscreenenter"",""1"",""16626""
","""event"",""trial"",""time""
""blur"",""0"",""0""
","""event"",""trial"",""time""
""focus"",""1"",""16493""
","""event"",""trial"",""time""
""fullscreenenter"",""1"",""16626""
","
",,3594.5,"<p>Howdy! In this experiment, you’ll be an explorer traveling through space to collect space treasure.</p><p>Your mission is to collect as much treasure as possible.</p><br><br><p><img src='run_exp/static/images/task_images/opening_img-01.jpg' height='300' width='auto'></p>",,,,,,,1,,,,,,,,,,,,,,,,,,
html-keyboard-response,9,85227,0.0-6.0-3.0,"""event"",""trial"",""time""
""blur"",""0"",""0""
""focus"",""1"",""16493""
""fullscreenenter"",""1"",""16626""
","""event"",""trial"",""time""
""blur"",""0"",""0""
","""event"",""trial"",""time""
""focus"",""1"",""16493""
","""event"",""trial"",""time""
""fullscreenenter"",""1"",""16626""
","
",,1202.7,"<p>Howdy! In this experiment, you’ll be an explorer traveling through space to collect space treasure.</p><p>Your mission is to collect as much treasure as possible.</p><br><br><p><img src='run_exp/static/images/task_images/opening_img-01.jpg' height='300' width='auto'></p><button class=""jspsych-html-btn-unchosen""><img src=""run_exp/static/images/task_images/planet-01.jpg"" height=""50""></button><button class=""jspsych-html-btn-chosen""><img src=""run_exp/static/images/task_images/planet-02.jpg"" height=""50""></button><p><b>[press the space bar to lock in your answer]<b><br></p>",32,,,,,,,,,,,,,,,,,,,,,,,,
instruc_goal,10,95323,0.0-7.0-0.0,"""event"",""trial"",""time""
""blur"",""0"",""0""
""focus"",""1"",""16493""
""fullscreenenter"",""1"",""16626""
","""event"",""trial"",""time""
""blur"",""0"",""0""
","""event"",""trial"",""time""
""focus"",""1"",""16493""
","""event"",""trial"",""time""
""fullscreenenter"",""1"",""16626""
","
",,null,run_exp/static/audio/clip_3_goal.m4a,null,"<p> As a space explorer, you’ll visit different planets to dig for space treasure, these pink gems.</p> <p> The more treasure you dig up, the more bonus money you’ll win! </p><br><br><p><img src='run_exp/static/images/task_images/pink_gem.jpg' height='300' width='auto'></p>",,,,,,,,,,,,,,,,,,,,,,,
instruc_goal,11,97555,0.0-7.0-1.0,"""event"",""trial"",""time""
""blur"",""0"",""0""
""focus"",""1"",""16493""
""fullscreenenter"",""1"",""16626""
","""event"",""trial"",""time""
""blur"",""0"",""0""
","""event"",""trial"",""time""
""focus"",""1"",""16493""
","""event"",""trial"",""time""
""fullscreenenter"",""1"",""16626""
","
",,2228.7,"<p> As a space explorer, you’ll visit different planets to dig for space treasure, these pink gems.</p> <p> The more treasure you dig up, the more bonus money you’ll win! </p><br><br><p><img src='run_exp/static/images/task_images/pink_gem.jpg' height='300' width='auto'></p>",,,,,,,1,,,,,,,,,,,,,,,,,,
html-keyboard-response,12,98986,0.0-7.0-2.0,"""event"",""trial"",""time""
""blur"",""0"",""0""
""focus"",""1"",""16493""
""fullscreenenter"",""1"",""16626""
","""event"",""trial"",""time""
""blur"",""0"",""0""
","""event"",""trial"",""time""
""focus"",""1"",""16493""
","""event"",""trial"",""time""
""fullscreenenter"",""1"",""16626""
","
",,1428.7,"<p> As a space explorer, you’ll visit different planets to dig for space treasure, these pink gems.</p> <p> The more treasure you dig up, the more bonus money you’ll win! </p><br><br><p><img src='run_exp/static/images/task_images/pink_gem.jpg' height='300' width='auto'></p><button class=""jspsych-html-btn-unchosen""><img src=""run_exp/static/images/task_images/planet-01.jpg"" height=""50""></button><button class=""jspsych-html-btn-chosen""><img src=""run_exp/static/images/task_images/planet-02.jpg"" height=""50""></button><p><b>[press the space bar to lock in your answer]<b><br></p>",32,,,,,,,,,,,,,,,,,,,,,,,,
instruc_dig,13,115023,0.0-8.0-0.0,"""event"",""trial"",""time""
""blur"",""0"",""0""
""focus"",""1"",""16493""
""fullscreenenter"",""1"",""16626""
","""event"",""trial"",""time""
""blur"",""0"",""0""
","""event"",""trial"",""time""
""focus"",""1"",""16493""
","""event"",""trial"",""time""
""fullscreenenter"",""1"",""16626""
","
",,null,run_exp/static/audio/clip_4_dig.m4a,null,,,,,,,100,,,,,,,,,,,,,,,,,
instruc_dig_try,14,115395,0.0-8.0-1.0,"""event"",""trial"",""time""
""blur"",""0"",""0""
""focus"",""1"",""16493""
""fullscreenenter"",""1"",""16626""
","""event"",""trial"",""time""
""blur"",""0"",""0""
","""event"",""trial"",""time""
""focus"",""1"",""16493""
","""event"",""trial"",""time""
""fullscreenenter"",""1"",""16626""
","
",,368.6999998,"<p> When you’ve arrived at a new planet, you will dig once. </p> <p>Then, you get to decide if you want to stay on the planet and dig again or travel to a new planet and dig there.</p> <p> To stay and dig, press the letter <strong>‘A’</strong> on your keyboard. Try pressing it now! </p><p><img src='run_exp/static/images/task_images/land.jpg'  height='700' width='auto'></p>",65,"<p> When you’ve arrived at a new planet, you will dig once. </p> <p>Then, you get to decide if you want to stay on the planet and dig again or travel to a new planet and dig there.</p> <p> To stay and dig, press the letter <strong>‘A’</strong> on your keyboard. Try pressing it now! </p><p><img src='run_exp/static/images/task_images/land.jpg'  height='700' width='auto'></p>",,,,,,100,,,,,,,,,,,,,,,,,
dig_prac,15,117420,0.0-8.0-2.0,"""event"",""trial"",""time""
""blur"",""0"",""0""
""focus"",""1"",""16493""
""fullscreenenter"",""1"",""16626""
","""event"",""trial"",""time""
""blur"",""0"",""0""
","""event"",""trial"",""time""
""focus"",""1"",""16493""
","""event"",""trial"",""time""
""fullscreenenter"",""1"",""16626""
","
",,,,,,,,,,,,"[{""stimulus"":""run_exp/static/images/task_images/dig.jpg"",""time"":0.20000004768371582},{""stimulus"":""run_exp/static/images/task_images/land.jpg"",""time"":674.4000000953674},{""stimulus"":""run_exp/static/images/task_images/dig.jpg"",""time"":1342}]",[],,,,,,,,,,,,,,,
instruc_travel,16,153717,0.0-8.0-3.0,"""event"",""trial"",""time""
""blur"",""0"",""0""
""focus"",""1"",""16493""
""fullscreenenter"",""1"",""16626""
","""event"",""trial"",""time""
""blur"",""0"",""0""
","""event"",""trial"",""time""
""focus"",""1"",""16493""
","""event"",""trial"",""time""
""fullscreenenter"",""1"",""16626""
","
",,null,run_exp/static/audio/clip_5_travel.m4a,null,"<p>Every time you dig up gems, there are less gems on the planet, so the more you dig on a planet the fewer gems you’ll get with each dig.</p><p>When gems are running low, you may want to travel to a new planet. </p> <p>  Planets are very far apart in this galaxy, so it will take some time to travel between them. </p> <br><p>There are lots and lots of planets for you to visit, so you won’t be able to return to any planets you’ve seen before. </p><br><p>To leave this planet and travel to a new one, press the letter <strong>‘L’</strong> on your keyboard. Try pressing it now! </p><p><img src='run_exp/static/images/task_images/rocket-01.jpg'  height='600' width='auto'></p>",,,,,,,,,,,,,,,,,,,,,,,
instruc_travel_try,17,155157,0.0-8.0-4.0,"""event"",""trial"",""time""
""blur"",""0"",""0""
""focus"",""1"",""16493""
""fullscreenenter"",""1"",""16626""
","""event"",""trial"",""time""
""blur"",""0"",""0""
","""event"",""trial"",""time""
""focus"",""1"",""16493""
","""event"",""trial"",""time""
""fullscreenenter"",""1"",""16626""
","
",,1435.5,"<p>Every time you dig up gems, there are less gems on the planet, so the more you dig on a planet the fewer gems you’ll get with each dig.</p><p>When gems are running low, you may want to travel to a new planet. </p> <p>  Planets are very far apart in this galaxy, so it will take some time to travel between them. </p> <br><p>There are lots and lots of planets for you to visit, so you won’t be able to return to any planets you’ve seen before. </p><br><p>To leave this planet and travel to a new one, press the letter <strong>‘L’</strong> on your keyboard. Try pressing it now! </p><p><img src='run_exp/static/images/task_images/rocket-01.jpg'  height='600' width='auto'></p>",76,"<p>Every time you dig up gems, there are less gems on the planet, so the more you dig on a planet the fewer gems you’ll get with each dig.</p><p>When gems are running low, you may want to travel to a new planet. </p> <p>  Planets are very far apart in this galaxy, so it will take some time to travel between them. </p> <br><p>There are lots and lots of planets for you to visit, so you won’t be able to return to any planets you’ve seen before. </p><br><p>To leave this planet and travel to a new one, press the letter <strong>‘L’</strong> on your keyboard. Try pressing it now! </p><p><img src='run_exp/static/images/task_images/rocket-01.jpg'  height='600' width='auto'></p>",,,,,,,,,,,,,,,,,,,,,,,
travel_prac,18,165172,0.0-8.0-5.0,"""event"",""trial"",""time""
""blur"",""0"",""0""
""focus"",""1"",""16493""
""fullscreenenter"",""1"",""16626""
","""event"",""trial"",""time""
""blur"",""0"",""0""
","""event"",""trial"",""time""
""focus"",""1"",""16493""
","""event"",""trial"",""time""
""fullscreenenter"",""1"",""16626""
","
",,,,,,,,,,,,"[{""stimulus"":""run_exp/static/images/task_images/rocket-01.jpg"",""time"":0.5},{""stimulus"":""run_exp/static/images/task_images/rocket-02.jpg"",""time"":1127.1000001430511},{""stimulus"":""run_exp/static/images/task_images/rocket-03.jpg"",""time"":2226.5},{""stimulus"":""run_exp/static/images/task_images/rocket-04.jpg"",""time"":3337.5},{""stimulus"":""run_exp/static/images/task_images/rocket-05.jpg"",""time"":4458.300000190735},{""stimulus"":""run_exp/static/images/task_images/rocket-06.jpg"",""time"":5572.100000143051},{""stimulus"":""run_exp/static/images/task_images/rocket-07.jpg"",""time"":6673.200000047684},{""stimulus"":""run_exp/static/images/task_images/rocket-08.jpg"",""time"":7782.900000095367},{""stimulus"":""run_exp/static/images/task_images/rocket-09.jpg"",""time"":8905.700000047684}]",[],0,,,,,,,,,,,,,,
instruc_alien_greet,19,192382,0.0-8.0-6.0,"""event"",""trial"",""time""
""blur"",""0"",""0""
""focus"",""1"",""16493""
""fullscreenenter"",""1"",""16626""
","""event"",""trial"",""time""
""blur"",""0"",""0""
","""event"",""trial"",""time""
""focus"",""1"",""16493""
","""event"",""trial"",""time""
""fullscreenenter"",""1"",""16626""
","
",,null,run_exp/static/audio/clip_6_alien.m4a,null,"<p>When you arrive at a new planet, the alien who owns the treasure mine on that planet will greet you!</p><p>The better an alien takes care of their mine the easier it is to dig for gems. Some aliens take better care of their mine than others. So, you won’t get exactly the same amount of gems on each planet.</p><p>What the alien looks like does not tell you anything about how many gems there are on the planet.</p><br><p><img src=""run_exp/static/images/task_images/aliens/instructions_aliens/planet/alien_planet-1.jpg""  height=""600"" width=""auto""></p>",,,,,,,,,,,,,,,,,,,,,,,
instruc_alien_greet,20,210356,0.0-8.0-7.0,"""event"",""trial"",""time""
""blur"",""0"",""0""
""focus"",""1"",""16493""
""fullscreenenter"",""1"",""16626""
","""event"",""trial"",""time""
""blur"",""0"",""0""
","""event"",""trial"",""time""
""focus"",""1"",""16493""
","""event"",""trial"",""time""
""fullscreenenter"",""1"",""16626""
","
",,17975.7,"<p>When you arrive at a new planet, the alien who owns the treasure mine on that planet will greet you!</p><p>The better an alien takes care of their mine the easier it is to dig for gems. Some aliens take better care of their mine than others. So, you won’t get exactly the same amount of gems on each planet.</p><p>What the alien looks like does not tell you anything about how many gems there are on the planet.</p><br><p><img src=""run_exp/static/images/task_images/aliens/instructions_aliens/planet/alien_planet-1.jpg""  height=""600"" width=""auto""></p>",,,,,,,1,,,,,,,,,,,,,,,,,,
html-keyboard-response,21,215280,0.0-8.0-8.0,"""event"",""trial"",""time""
""blur"",""0"",""0""
""focus"",""1"",""16493""
""fullscreenenter"",""1"",""16626""
","""event"",""trial"",""time""
""blur"",""0"",""0""
","""event"",""trial"",""time""
""focus"",""1"",""16493""
","""event"",""trial"",""time""
""fullscreenenter"",""1"",""16626""
","
",,4920.2,"<p>When you arrive at a new planet, the alien who owns the treasure mine on that planet will greet you!</p><p>The better an alien takes care of their mine the easier it is to dig for gems. Some aliens take better care of their mine than others. So, you won’t get exactly the same amount of gems on each planet.</p><p>What the alien looks like does not tell you anything about how many gems there are on the planet.</p><br><p><img src=""run_exp/static/images/task_images/aliens/instructions_aliens/planet/alien_planet-1.jpg""  height=""600"" width=""auto""></p><button class=""jspsych-html-btn-unchosen""><img src=""run_exp/static/images/task_images/planet-01.jpg"" height=""50""></button><button class=""jspsych-html-btn-chosen""><img src=""run_exp/static/images/task_images/planet-02.jpg"" height=""50""></button><p><b>[press the space bar to lock in your answer]<b><br></p>",32,,,,,,,,,,,,,,,,,,,,,,,,
time_out,22,227046,0.0-9.0-0.0,"""event"",""trial"",""time""
""blur"",""0"",""0""
""focus"",""1"",""16493""
""fullscreenenter"",""1"",""16626""
","""event"",""trial"",""time""
""blur"",""0"",""0""
","""event"",""trial"",""time""
""focus"",""1"",""16493""
","""event"",""trial"",""time""
""fullscreenenter"",""1"",""16626""
","
",,null,run_exp/static/audio/clip_7_timeout.m4a,null,"<p>If you don't make your choice fast enough, you’ll have to wait a few seconds before you can make another one.</p><p>You can’t dig for more gems or travel to new planets. You just have to sit and wait.</p><br><p><img src='run_exp/static/images/task_images/time_out.jpg'  height='600' width='auto'></p>",,,,,,,,,,,,,,,,,,,,,,,
time_out,23,229408,0.0-9.0-1.0,"""event"",""trial"",""time""
""blur"",""0"",""0""
""focus"",""1"",""16493""
""fullscreenenter"",""1"",""16626""
","""event"",""trial"",""time""
""blur"",""0"",""0""
","""event"",""trial"",""time""
""focus"",""1"",""16493""
","""event"",""trial"",""time""
""fullscreenenter"",""1"",""16626""
","
",,2358.4,"<p>If you don't make your choice fast enough, you’ll have to wait a few seconds before you can make another one.</p><p>You can’t dig for more gems or travel to new planets. You just have to sit and wait.</p><br><p><img src='run_exp/static/images/task_images/time_out.jpg'  height='600' width='auto'></p>",,,,,,,1,,,,,,,,,,,,,,,,,,
html-keyboard-response,24,230292,0.0-9.0-2.0,"""event"",""trial"",""time""
""blur"",""0"",""0""
""focus"",""1"",""16493""
""fullscreenenter"",""1"",""16626""
","""event"",""trial"",""time""
""blur"",""0"",""0""
","""event"",""trial"",""time""
""focus"",""1"",""16493""
","""event"",""trial"",""time""
""fullscreenenter"",""1"",""16626""
","
",,881.8,"<p>If you don't make your choice fast enough, you’ll have to wait a few seconds before you can make another one.</p><p>You can’t dig for more gems or travel to new planets. You just have to sit and wait.</p><br><p><img src='run_exp/static/images/task_images/time_out.jpg'  height='600' width='auto'></p><button class=""jspsych-html-btn-unchosen""><img src=""run_exp/static/images/task_images/planet-01.jpg"" height=""50""></button><button class=""jspsych-html-btn-chosen""><img src=""run_exp/static/images/task_images/planet-02.jpg"" height=""50""></button><p><b>[press the space bar to lock in your answer]<b><br></p>",32,,,,,,,,,,,,,,,,,,,,,,,,
instruc_break,25,245986,0.0-10.0-0.0,"""event"",""trial"",""time""
""blur"",""0"",""0""
""focus"",""1"",""16493""
""fullscreenenter"",""1"",""16626""
","""event"",""trial"",""time""
""blur"",""0"",""0""
","""event"",""trial"",""time""
""focus"",""1"",""16493""
","""event"",""trial"",""time""
""fullscreenenter"",""1"",""16626""
","
",,null,run_exp/static/audio/clip_8_break.m4a,null,"<p> After digging and traveling for a while, you’ll be able to take a break at home base. </p><p>The game will last 20 minutes no matter what.</p><p>You will visit home base every 5 minutes, so, you will visit home base three times during the game.</p><br><p><img src='run_exp/static/images/task_images/home_base.jpg' height='600' width='auto'></p>",,,,,,,,,,,,,,,,,,,,,,,
instruc_break,26,247347,0.0-10.0-1.0,"""event"",""trial"",""time""
""blur"",""0"",""0""
""focus"",""1"",""16493""
""fullscreenenter"",""1"",""16626""
","""event"",""trial"",""time""
""blur"",""0"",""0""
","""event"",""trial"",""time""
""focus"",""1"",""16493""
","""event"",""trial"",""time""
""fullscreenenter"",""1"",""16626""
","
",,1356.7,"<p> After digging and traveling for a while, you’ll be able to take a break at home base. </p><p>The game will last 20 minutes no matter what.</p><p>You will visit home base every 5 minutes, so, you will visit home base three times during the game.</p><br><p><img src='run_exp/static/images/task_images/home_base.jpg' height='600' width='auto'></p>",,,,,,,1,,,,,,,,,,,,,,,,,,
html-keyboard-response,27,248087,0.0-10.0-2.0,"""event"",""trial"",""time""
""blur"",""0"",""0""
""focus"",""1"",""16493""
""fullscreenenter"",""1"",""16626""
","""event"",""trial"",""time""
""blur"",""0"",""0""
","""event"",""trial"",""time""
""focus"",""1"",""16493""
","""event"",""trial"",""time""
""fullscreenenter"",""1"",""16626""
","
",,737.5,"<p> After digging and traveling for a while, you’ll be able to take a break at home base. </p><p>The game will last 20 minutes no matter what.</p><p>You will visit home base every 5 minutes, so, you will visit home base three times during the game.</p><br><p><img src='run_exp/static/images/task_images/home_base.jpg' height='600' width='auto'></p><button class=""jspsych-html-btn-unchosen""><img src=""run_exp/static/images/task_images/planet-01.jpg"" height=""50""></button><button class=""jspsych-html-btn-chosen""><img src=""run_exp/static/images/task_images/planet-02.jpg"" height=""50""></button><p><b>[press the space bar to lock in your answer]<b><br></p>",32,,,,,,,,,,,,,,,,,,,,,,,,
instruc_prac_game,28,258226,0.0-11.0-0.0,"""event"",""trial"",""time""
""blur"",""0"",""0""
""focus"",""1"",""16493""
""fullscreenenter"",""1"",""16626""
","""event"",""trial"",""time""
""blur"",""0"",""0""
","""event"",""trial"",""time""
""focus"",""1"",""16493""
","""event"",""trial"",""time""
""fullscreenenter"",""1"",""16626""
","
",,null,run_exp/static/audio/clip_9_practice.m4a,null,"<p> Are you ready to play a practice game? </p> <p>In this practice game, you'll be digging up barrels of gems. But, in the real game, you'll be digging up the gems themselves. </p>",,,,,,,,,,,,,,,,,,,,,,,
html-button-response,29,261349,0.0-11.0-1.0,"""event"",""trial"",""time""
""blur"",""0"",""0""
""focus"",""1"",""16493""
""fullscreenenter"",""1"",""16626""
","""event"",""trial"",""time""
""blur"",""0"",""0""
","""event"",""trial"",""time""
""focus"",""1"",""16493""
","""event"",""trial"",""time""
""fullscreenenter"",""1"",""16626""
","
",,3119.8,"<p> Are you ready to play a practice game? </p> <p>In this practice game, you'll be digging up barrels of gems. But, in the real game, you'll be digging up the gems themselves. </p>",,,,,,,0,,,,,,,,,,,,,,,,,,
alien_welcome_prac,30,266360,0.0-12.0-0.0,"""event"",""trial"",""time""
""blur"",""0"",""0""
""focus"",""1"",""16493""
""fullscreenenter"",""1"",""16626""
","""event"",""trial"",""time""
""blur"",""0"",""0""
","""event"",""trial"",""time""
""focus"",""1"",""16493""
","""event"",""trial"",""time""
""fullscreenenter"",""1"",""16626""
","
",,null,run_exp/static/images/task_images/aliens/practice_aliens/planet/alien_planet-5.jpg,null,,,,,,,,,,,,,,,,,,,,,,,,
land_prac,31,266875,0.0-12.0-1.0,"""event"",""trial"",""time""
""blur"",""0"",""0""
""focus"",""1"",""16493""
""fullscreenenter"",""1"",""16626""
","""event"",""trial"",""time""
""blur"",""0"",""0""
","""event"",""trial"",""time""
""focus"",""1"",""16493""
","""event"",""trial"",""time""
""fullscreenenter"",""1"",""16626""
","
",,null,run_exp/static/images/task_images/land.jpg,null,,,,,,,98,,,0,,,,,,,,,,,,,,
dig_prac,32,268883,0.0-12.0-2.0,"""event"",""trial"",""time""
""blur"",""0"",""0""
""focus"",""1"",""16493""
""fullscreenenter"",""1"",""16626""
","""event"",""trial"",""time""
""blur"",""0"",""0""
","""event"",""trial"",""time""
""focus"",""1"",""16493""
","""event"",""trial"",""time""
""fullscreenenter"",""1"",""16626""
","
",,,,,,,,,,,,"[{""stimulus"":""run_exp/static/images/task_images/dig.jpg"",""time"":0.5},{""stimulus"":""run_exp/static/images/task_images/land.jpg"",""time"":679},{""stimulus"":""run_exp/static/images/task_images/dig.jpg"",""time"":1350.2000000476837}]",[],,,,,,,,,,,,,,,
harvest_prac,33,270387,0.0-12.0-3.0,"""event"",""trial"",""time""
""blur"",""0"",""0""
""focus"",""1"",""16493""
""fullscreenenter"",""1"",""16626""
","""event"",""trial"",""time""
""blur"",""0"",""0""
","""event"",""trial"",""time""
""focus"",""1"",""16493""
","""event"",""trial"",""time""
""fullscreenenter"",""1"",""16626""
","
",,null,run_exp/static/images/task_images/barrel_text.jpg,null,,,,,,,,,,,,,,,,,,,,,,,,
decision_prac,34,271297,0.0-12.0-4.0,"""event"",""trial"",""time""
""blur"",""0"",""0""
""focus"",""1"",""16493""
""fullscreenenter"",""1"",""16626""
","""event"",""trial"",""time""
""blur"",""0"",""0""
","""event"",""trial"",""time""
""focus"",""1"",""16493""
","""event"",""trial"",""time""
""fullscreenenter"",""1"",""16626""
","
",,907.8,run_exp/static/images/task_images/land.jpg,65,,,,,,,,,,,1,,,,,,,,,,,,,
dig_prac,35,273314,0.0-13.0-0.0,"""event"",""trial"",""time""
""blur"",""0"",""0""
""focus"",""1"",""16493""
""fullscreenenter"",""1"",""16626""
","""event"",""trial"",""time""
""blur"",""0"",""0""
","""event"",""trial"",""time""
""focus"",""1"",""16493""
","""event"",""trial"",""time""
""fullscreenenter"",""1"",""16626""
","
",,,,,,,,,,,,"[{""stimulus"":""run_exp/static/images/task_images/dig.jpg"",""time"":0.19999980926513672},{""stimulus"":""run_exp/static/images/task_images/land.jpg"",""time"":684.7999999523163},{""stimulus"":""run_exp/static/images/task_images/dig.jpg"",""time"":1338.0999999046326}]",[],,,,,,,,,,,,,,,
harvest_prac,36,274327,0.0-13.0-1.0,"""event"",""trial"",""time""
""blur"",""0"",""0""
""focus"",""1"",""16493""
""fullscreenenter"",""1"",""16626""
","""event"",""trial"",""time""
""blur"",""0"",""0""
","""event"",""trial"",""time""
""focus"",""1"",""16493""
","""event"",""trial"",""time""
""fullscreenenter"",""1"",""16626""
","
",,null,run_exp/static/images/task_images/barrel_text.jpg,null,,,,,,,,,,,,,,,,,,,,,,,,
decision_prac,37,275763,0.0-13.0-2.0,"""event"",""trial"",""time""
""blur"",""0"",""0""
""focus"",""1"",""16493""
""fullscreenenter"",""1"",""16626""
","""event"",""trial"",""time""
""blur"",""0"",""0""
","""event"",""trial"",""time""
""focus"",""1"",""16493""
","""event"",""trial"",""time""
""fullscreenenter"",""1"",""16626""
","
",,1432.4,run_exp/static/images/task_images/land.jpg,65,,,,,,,,,,,2,,,,,,,,,,,,,
dig_prac,38,277775,0.0-14.0-0.0,"""event"",""trial"",""time""
""blur"",""0"",""0""
""focus"",""1"",""16493""
""fullscreenenter"",""1"",""16626""
","""event"",""trial"",""time""
""blur"",""0"",""0""
","""event"",""trial"",""time""
""focus"",""1"",""16493""
","""event"",""trial"",""time""
""fullscreenenter"",""1"",""16626""
","
",,,,,,,,,,,,"[{""stimulus"":""run_exp/static/images/task_images/dig.jpg"",""time"":0.3000001907348633},{""stimulus"":""run_exp/static/images/task_images/land.jpg"",""time"":686.5},{""stimulus"":""run_exp/static/images/task_images/dig.jpg"",""time"":1340.9000000953674}]",[],,,,,,,,,,,,,,,
harvest_prac,39,278793,0.0-14.0-1.0,"""event"",""trial"",""time""
""blur"",""0"",""0""
""focus"",""1"",""16493""
""fullscreenenter"",""1"",""16626""
","""event"",""trial"",""time""
""blur"",""0"",""0""
","""event"",""trial"",""time""
""focus"",""1"",""16493""
","""event"",""trial"",""time""
""fullscreenenter"",""1"",""16626""
","
",,null,run_exp/static/images/task_images/barrel_text.jpg,null,,,,,,,,,,,,,,,,,,,,,,,,
decision_prac,40,278859,0.0-14.0-2.0,"""event"",""trial"",""time""
""blur"",""0"",""0""
""focus"",""1"",""16493""
""fullscreenenter"",""1"",""16626""
","""event"",""trial"",""time""
""blur"",""0"",""0""
","""event"",""trial"",""time""
""focus"",""1"",""16493""
","""event"",""trial"",""time""
""fullscreenenter"",""1"",""16626""
","
",,62.39999986,run_exp/static/images/task_images/land.jpg,65,,,,,,,,,,,3,,,,,,,,,,,,,
dig_prac,41,280881,0.0-15.0-0.0,"""event"",""trial"",""time""
""blur"",""0"",""0""
""focus"",""1"",""16493""
""fullscreenenter"",""1"",""16626""
","""event"",""trial"",""time""
""blur"",""0"",""0""
","""event"",""trial"",""time""
""focus"",""1"",""16493""
","""event"",""trial"",""time""
""fullscreenenter"",""1"",""16626""
","
",,,,,,,,,,,,"[{""stimulus"":""run_exp/static/images/task_images/dig.jpg"",""time"":0.3000001907348633},{""stimulus"":""run_exp/static/images/task_images/land.jpg"",""time"":672.4000000953674},{""stimulus"":""run_exp/static/images/task_images/dig.jpg"",""time"":1349.9000000953674}]",[],,,,,,,,,,,,,,,
harvest_prac,42,281904,0.0-15.0-1.0,"""event"",""trial"",""time""
""blur"",""0"",""0""
""focus"",""1"",""16493""
""fullscreenenter"",""1"",""16626""
","""event"",""trial"",""time""
""blur"",""0"",""0""
","""event"",""trial"",""time""
""focus"",""1"",""16493""
","""event"",""trial"",""time""
""fullscreenenter"",""1"",""16626""
","
",,null,run_exp/static/images/task_images/barrel_text.jpg,null,,,,,,,,,,,,,,,,,,,,,,,,
decision_prac,43,283834,0.0-15.0-2.0,"""event"",""trial"",""time""
""blur"",""0"",""0""
""focus"",""1"",""16493""
""fullscreenenter"",""1"",""16626""
","""event"",""trial"",""time""
""blur"",""0"",""0""
","""event"",""trial"",""time""
""focus"",""1"",""16493""
","""event"",""trial"",""time""
""fullscreenenter"",""1"",""16626""
","
",,1927,run_exp/static/images/task_images/land.jpg,65,,,,,,,,,,,4,,,,,,,,,,,,,
dig_prac,44,285857,0.0-16.0-0.0,"""event"",""trial"",""time""
""blur"",""0"",""0""
""focus"",""1"",""16493""
""fullscreenenter"",""1"",""16626""
","""event"",""trial"",""time""
""blur"",""0"",""0""
","""event"",""trial"",""time""
""focus"",""1"",""16493""
","""event"",""trial"",""time""
""fullscreenenter"",""1"",""16626""
","
",,,,,,,,,,,,"[{""stimulus"":""run_exp/static/images/task_images/dig.jpg"",""time"":0.39999985694885254},{""stimulus"":""run_exp/static/images/task_images/land.jpg"",""time"":684.5999999046326},{""stimulus"":""run_exp/static/images/task_images/dig.jpg"",""time"":1339.6999998092651}]",[],,,,,,,,,,,,,,,
harvest_prac,45,286865,0.0-16.0-1.0,"""event"",""trial"",""time""
""blur"",""0"",""0""
""focus"",""1"",""16493""
""fullscreenenter"",""1"",""16626""
","""event"",""trial"",""time""
""blur"",""0"",""0""
","""event"",""trial"",""time""
""focus"",""1"",""16493""
","""event"",""trial"",""time""
""fullscreenenter"",""1"",""16626""
","
",,null,run_exp/static/images/task_images/barrel_text.jpg,null,,,,,,,,,,,,,,,,,,,,,,,,
decision_prac,46,287197,0.0-16.0-2.0,"""event"",""trial"",""time""
""blur"",""0"",""0""
""focus"",""1"",""16493""
""fullscreenenter"",""1"",""16626""
","""event"",""trial"",""time""
""blur"",""0"",""0""
","""event"",""trial"",""time""
""focus"",""1"",""16493""
","""event"",""trial"",""time""
""fullscreenenter"",""1"",""16626""
","
",,328.9000001,run_exp/static/images/task_images/land.jpg,65,,,,,,,,,,,,1,,,,,,,,,,,,
quiz_instruc,47,300662,0.0-17.0-0.0,"""event"",""trial"",""time""
""blur"",""0"",""0""
""focus"",""1"",""16493""
""fullscreenenter"",""1"",""16626""
","""event"",""trial"",""time""
""blur"",""0"",""0""
","""event"",""trial"",""time""
""focus"",""1"",""16493""
","""event"",""trial"",""time""
""fullscreenenter"",""1"",""16626""
","
",,13462.2,run_exp/static/audio/clip_10_quiz.m4a,,,,,,,0,,,,,,,,,,,,,,,,,,
instruc_repeat,48,343448,0.0-17.0-1.0,"""event"",""trial"",""time""
""blur"",""0"",""0""
""focus"",""1"",""16493""
""fullscreenenter"",""1"",""16626""
","""event"",""trial"",""time""
""blur"",""0"",""0""
","""event"",""trial"",""time""
""focus"",""1"",""16493""
","""event"",""trial"",""time""
""fullscreenenter"",""1"",""16626""
","
",,null,"<p> Are you ready to play a practice game? </p> <p>In this practice game, you'll be digging up barrels of gems. But, in the real game, you'll be digging up the gems themselves. </p>",null,"<p>In this game, your goal is to collect as many gems as you can. That’s how you will win bonus money. </p> <p>The entire game will last 20 minutes no matter how many gems you collect or how many planets you visit. </p><p>To stay on a planet and dig again, press the letter A on your keyboard. To leave for a new planet, press the letter L.</p><p>The more you dig on a planet, the fewer gems you’ll get with each dig which is why you might consider leaving for a new planet. </p><p>When you arrive at a new planet, you’ll be greeted by an alien. What the alien looks like does not tell you anything about how much treasure is on the planet. </p>",,,,,,,,,,,,,,,,,,,,,,,
instruc_repeat_continue,49,346717,0.0-17.0-2.0,"""event"",""trial"",""time""
""blur"",""0"",""0""
""focus"",""1"",""16493""
""fullscreenenter"",""1"",""16626""
","""event"",""trial"",""time""
""blur"",""0"",""0""
","""event"",""trial"",""time""
""focus"",""1"",""16493""
","""event"",""trial"",""time""
""fullscreenenter"",""1"",""16626""
","
",,3266.7,"<p> Are you ready to play a practice game? </p> <p>In this practice game, you'll be digging up barrels of gems. But, in the real game, you'll be digging up the gems themselves. </p>",,,,,,,0,,,,,,,,,,,,,,,,,,
quiz_q_1_ask,50,350586,0.0-17.0-3.0,"""event"",""trial"",""time""
""blur"",""0"",""0""
""focus"",""1"",""16493""
""fullscreenenter"",""1"",""16626""
","""event"",""trial"",""time""
""blur"",""0"",""0""
","""event"",""trial"",""time""
""focus"",""1"",""16493""
","""event"",""trial"",""time""
""fullscreenenter"",""1"",""16626""
","
",,3866.3,run_exp/static/audio/clip_11_q1_ask.m4a,,,,,,,2,,,,,,,,,,,,,,,,,,
quiz_q_1_fb_correct,51,354467,0.0-18.0-0.0,"""event"",""trial"",""time""
""blur"",""0"",""0""
""focus"",""1"",""16493""
""fullscreenenter"",""1"",""16626""
","""event"",""trial"",""time""
""blur"",""0"",""0""
","""event"",""trial"",""time""
""focus"",""1"",""16493""
","""event"",""trial"",""time""
""fullscreenenter"",""1"",""16626""
","
",,null,run_exp/static/audio/clip_12_q1_correct.m4a,null,<p>That’s correct. You win extra money by collecting more gems.</p>,,,,,,,,,,,,,,,,,,,,,,,
quiz_q_2_ask,52,358223,0.0-18.0-1.0,"""event"",""trial"",""time""
""blur"",""0"",""0""
""focus"",""1"",""16493""
""fullscreenenter"",""1"",""16626""
","""event"",""trial"",""time""
""blur"",""0"",""0""
","""event"",""trial"",""time""
""focus"",""1"",""16493""
","""event"",""trial"",""time""
""fullscreenenter"",""1"",""16626""
","
",,3750.9,run_exp/static/audio/clip_14_q2_ask.m4a,,,,,,,1,,,,,,,,,,,,,,,,,,
quiz_q_2_fb_correct,53,362228,0.0-19.0-0.0,"""event"",""trial"",""time""
""blur"",""0"",""0""
""focus"",""1"",""16493""
""fullscreenenter"",""1"",""16626""
","""event"",""trial"",""time""
""blur"",""0"",""0""
","""event"",""trial"",""time""
""focus"",""1"",""16493""
","""event"",""trial"",""time""
""fullscreenenter"",""1"",""16626""
","
",,null,run_exp/static/audio/clip_15_q2_correct.m4a,null,<p>That’s correct. The experiment is 20 minutes no matter what.</p>,,,,,,,,,,,,,,,,,,,,,,,
quiz_q_3_ask,54,364971,0.0-19.0-1.0,"""event"",""trial"",""time""
""blur"",""0"",""0""
""focus"",""1"",""16493""
""fullscreenenter"",""1"",""16626""
","""event"",""trial"",""time""
""blur"",""0"",""0""
","""event"",""trial"",""time""
""focus"",""1"",""16493""
","""event"",""trial"",""time""
""fullscreenenter"",""1"",""16626""
","
",,2737.2,run_exp/static/audio/clip_17_q3_ask.m4a,,,,,,,1,,,,,,,,,,,,,,,,,,
quiz_q_3_fb_correct,55,368967,0.0-20.0-0.0,"""event"",""trial"",""time""
""blur"",""0"",""0""
""focus"",""1"",""16493""
""fullscreenenter"",""1"",""16626""
","""event"",""trial"",""time""
""blur"",""0"",""0""
","""event"",""trial"",""time""
""focus"",""1"",""16493""
","""event"",""trial"",""time""
""fullscreenenter"",""1"",""16626""
","
",,null,run_exp/static/audio/clip_18_q3_correct.m4a,null,<p> That’s correct. You press the letter L to travel to a new planet.</p>,,,,,,,,,,,,,,,,,,,,,,,
quiz_q_4_ask,56,373129,0.0-20.0-1.0,"""event"",""trial"",""time""
""blur"",""0"",""0""
""focus"",""1"",""16493""
""fullscreenenter"",""1"",""16626""
","""event"",""trial"",""time""
""blur"",""0"",""0""
","""event"",""trial"",""time""
""focus"",""1"",""16493""
","""event"",""trial"",""time""
""fullscreenenter"",""1"",""16626""
","
",,4156.1,run_exp/static/audio/clip_20_q4_ask.m4a,,,,,,,0,,,,,,,,,,,,,,,,,,
quiz_q_4_fb_correct,57,378472,0.0-21.0-0.0,"""event"",""trial"",""time""
""blur"",""0"",""0""
""focus"",""1"",""16493""
""fullscreenenter"",""1"",""16626""
","""event"",""trial"",""time""
""blur"",""0"",""0""
","""event"",""trial"",""time""
""focus"",""1"",""16493""
","""event"",""trial"",""time""
""fullscreenenter"",""1"",""16626""
","
",,null,run_exp/static/audio/clip_21_q4_correct.m4a,null,<p> That’s correct. The more you dig on a planet the fewer gems you’ll get with each dig. </p>,,,,,,,,,,,,,,,,,,,,,,,
quiz_q_5_ask,58,382140,0.0-21.0-1.0,"""event"",""trial"",""time""
""blur"",""0"",""0""
""focus"",""1"",""16493""
""fullscreenenter"",""1"",""16626""
","""event"",""trial"",""time""
""blur"",""0"",""0""
","""event"",""trial"",""time""
""focus"",""1"",""16493""
","""event"",""trial"",""time""
""fullscreenenter"",""1"",""16626""
","
",,3665,run_exp/static/audio/clip_23_q5_ask.m4a,,,,,,,1,,,,,,,,,,,,,,,,,,
quiz_q_5_fb_correct,59,387147,0.0-22.0-0.0,"""event"",""trial"",""time""
""blur"",""0"",""0""
""focus"",""1"",""16493""
""fullscreenenter"",""1"",""16626""
","""event"",""trial"",""time""
""blur"",""0"",""0""
","""event"",""trial"",""time""
""focus"",""1"",""16493""
","""event"",""trial"",""time""
""fullscreenenter"",""1"",""16626""
","
",,null,run_exp/static/audio/clip_24_q5_correct.m4a,null,<p> That’s correct. The alien tells you nothing about how much treasure is on the planet.</p>,,,,,,,,,,,,,,,,,,,,,,,
quiz_correct,60,390627,0.0-23.0-0.0,"""event"",""trial"",""time""
""blur"",""0"",""0""
""focus"",""1"",""16493""
""fullscreenenter"",""1"",""16626""
","""event"",""trial"",""time""
""blur"",""0"",""0""
","""event"",""trial"",""time""
""focus"",""1"",""16493""
","""event"",""trial"",""time""
""fullscreenenter"",""1"",""16626""
","
",,null,run_exp/static/audio/clip_26_correct_quiz.m4a,null,,,,,,,,,,,,,,,,,,,,,,,,
quiz_correct_continue,61,391908,0.0-23.0-1.0,"""event"",""trial"",""time""
""blur"",""0"",""0""
""focus"",""1"",""16493""
""fullscreenenter"",""1"",""16626""
","""event"",""trial"",""time""
""blur"",""0"",""0""
","""event"",""trial"",""time""
""focus"",""1"",""16493""
","""event"",""trial"",""time""
""fullscreenenter"",""1"",""16626""
","
",,1278.5,<p>Good job! You're now ready to move on to the real game!</p>,,,,,,,0,,,,,,,,,,,,,,,,,,
audio-keyboard-response,62,402054,0.0-23.0-2.0,"""event"",""trial"",""time""
""blur"",""0"",""0""
""focus"",""1"",""16493""
""fullscreenenter"",""1"",""16626""
","""event"",""trial"",""time""
""blur"",""0"",""0""
","""event"",""trial"",""time""
""focus"",""1"",""16493""
","""event"",""trial"",""time""
""fullscreenenter"",""1"",""16626""
","
",,null,run_exp/static/audio/clip_28_real_game.m4a,null,,,,,,,,,,,,,,,,,,,,,,,,
instruc_begin_exp_contine,63,405967,0.0-23.0-3.0,"""event"",""trial"",""time""
""blur"",""0"",""0""
""focus"",""1"",""16493""
""fullscreenenter"",""1"",""16626""
","""event"",""trial"",""time""
""blur"",""0"",""0""
","""event"",""trial"",""time""
""focus"",""1"",""16493""
","""event"",""trial"",""time""
""fullscreenenter"",""1"",""16626""
","
",,3909.3,"<p>Now that you know how  to dig for space treasure and travel to new planets,you can start exploring! </p><p>Do you want to go over the instructions again or get started with the real game?</p>",,,,,,,1,,,,,,1,,,,,,,,,,,,
alien_welcome,64,410984,0.0-24.0-0.0,"""event"",""trial"",""time""
""blur"",""0"",""0""
""focus"",""1"",""16493""
""fullscreenenter"",""1"",""16626""
","""event"",""trial"",""time""
""blur"",""0"",""0""
","""event"",""trial"",""time""
""focus"",""1"",""16493""
","""event"",""trial"",""time""
""fullscreenenter"",""1"",""16626""
","
",,null,run_exp/static/images/task_images/aliens/old_aliens/planet/alien_planet-21.jpg,null,,,,,,,,,,,,,21,"21,64,77,43,38,28,60,46,39,25,6,36,52,54,80,7,72,61,45,78,57,40,70,66,42,55,16,1,75,65",,,,,,,,,,
land,65,411495,0.0-24.0-1.0,"""event"",""trial"",""time""
""blur"",""0"",""0""
""focus"",""1"",""16493""
""fullscreenenter"",""1"",""16626""
","""event"",""trial"",""time""
""blur"",""0"",""0""
","""event"",""trial"",""time""
""focus"",""1"",""16493""
","""event"",""trial"",""time""
""fullscreenenter"",""1"",""16626""
","
",,null,run_exp/static/images/task_images/land.jpg,null,,,,,,,106,,,1,,,,,,,,,,,,,,
dig,66,413515,0.0-24.0-2.0,"""event"",""trial"",""time""
""blur"",""0"",""0""
""focus"",""1"",""16493""
""fullscreenenter"",""1"",""16626""
","""event"",""trial"",""time""
""blur"",""0"",""0""
","""event"",""trial"",""time""
""focus"",""1"",""16493""
","""event"",""trial"",""time""
""fullscreenenter"",""1"",""16626""
","
",,,,,,,,,,,,"[{""stimulus"":""run_exp/static/images/task_images/dig.jpg"",""time"":0.9000000953674316},{""stimulus"":""run_exp/static/images/task_images/land.jpg"",""time"":679.9000000953674},{""stimulus"":""run_exp/static/images/task_images/dig.jpg"",""time"":1347.7999999523163}]",[],1,,,,,,,,,,,,,,
harvest,67,414532,0.0-24.0-3.0,"""event"",""trial"",""time""
""blur"",""0"",""0""
""focus"",""1"",""16493""
""fullscreenenter"",""1"",""16626""
","""event"",""trial"",""time""
""blur"",""0"",""0""
","""event"",""trial"",""time""
""focus"",""1"",""16493""
","""event"",""trial"",""time""
""fullscreenenter"",""1"",""16626""
","
",,null,run_exp/static/images/task_images/gems/106.jpg,null,,,,,,,11,,,1,,,,,106,0.099210796,0.103773585,,,,,,,
decision,68,416274,0.0-24.0-4.0,"""event"",""trial"",""time""
""blur"",""0"",""0""
""focus"",""1"",""16493""
""fullscreenenter"",""1"",""16626""
","""event"",""trial"",""time""
""blur"",""0"",""0""
","""event"",""trial"",""time""
""focus"",""1"",""16493""
","""event"",""trial"",""time""
""fullscreenenter"",""1"",""16626""
","
",,1734,run_exp/static/images/task_images/land.jpg,65,,,,,,,11,,,1,,,,,,,,10307,1,0,FALSE,,,
dig,69,417553,0.0-25.0-0.0,"""event"",""trial"",""time""
""blur"",""0"",""0""
""focus"",""1"",""16493""
""fullscreenenter"",""1"",""16626""
","""event"",""trial"",""time""
""blur"",""0"",""0""
","""event"",""trial"",""time""
""focus"",""1"",""16493""
","""event"",""trial"",""time""
""fullscreenenter"",""1"",""16626""
","
",,,,,,,,,,,,"[{""stimulus"":""run_exp/static/images/task_images/dig.jpg"",""time"":0.2999999523162842},{""stimulus"":""run_exp/static/images/task_images/land.jpg"",""time"":426},{""stimulus"":""run_exp/static/images/task_images/dig.jpg"",""time"":857.5999999046326}]",[],1,,,,,,,,,,,,,,
harvest,70,418559,0.0-25.0-1.0,"""event"",""trial"",""time""
""blur"",""0"",""0""
""focus"",""1"",""16493""
""fullscreenenter"",""1"",""16626""
","""event"",""trial"",""time""
""blur"",""0"",""0""
","""event"",""trial"",""time""
""focus"",""1"",""16493""
","""event"",""trial"",""time""
""fullscreenenter"",""1"",""16626""
","
",,null,run_exp/static/images/task_images/gems/11.jpg,null,,,,,,,2,,,1,,,,,11,0.185362781,0.181818182,,,,,,,
decision,71,419290,0.0-25.0-2.0,"""event"",""trial"",""time""
""blur"",""0"",""0""
""focus"",""1"",""16493""
""fullscreenenter"",""1"",""16626""
","""event"",""trial"",""time""
""blur"",""0"",""0""
","""event"",""trial"",""time""
""focus"",""1"",""16493""
","""event"",""trial"",""time""
""fullscreenenter"",""1"",""16626""
","
",,726,run_exp/static/images/task_images/land.jpg,65,,,,,,,2,,,1,,,,,,,,13321,1,1,FALSE,,,
dig,72,421584,0.0-26.0-0.0,"""event"",""trial"",""time""
""blur"",""0"",""0""
""focus"",""1"",""16493""
""fullscreenenter"",""1"",""16626""
","""event"",""trial"",""time""
""blur"",""0"",""0""
","""event"",""trial"",""time""
""focus"",""1"",""16493""
","""event"",""trial"",""time""
""fullscreenenter"",""1"",""16626""
","
",,,,,,,,,,,,"[{""stimulus"":""run_exp/static/images/task_images/dig.jpg"",""time"":0.20000004768371582},{""stimulus"":""run_exp/static/images/task_images/land.jpg"",""time"":767.9000000953674},{""stimulus"":""run_exp/static/images/task_images/dig.jpg"",""time"":1529.1000001430511}]",[],1,,,,,,,,,,,,,,
harvest,73,422592,0.0-26.0-1.0,"""event"",""trial"",""time""
""blur"",""0"",""0""
""focus"",""1"",""16493""
""fullscreenenter"",""1"",""16626""
","""event"",""trial"",""time""
""blur"",""0"",""0""
","""event"",""trial"",""time""
""focus"",""1"",""16493""
","""event"",""trial"",""time""
""fullscreenenter"",""1"",""16626""
","
",,null,run_exp/static/images/task_images/gems/2.jpg,null,,,,,,,0,,,1,,,,,2,0.17397414,0,,,,,,,
decision,74,423166,0.0-26.0-2.0,"""event"",""trial"",""time""
""blur"",""0"",""0""
""focus"",""1"",""16493""
""fullscreenenter"",""1"",""16626""
","""event"",""trial"",""time""
""blur"",""0"",""0""
","""event"",""trial"",""time""
""focus"",""1"",""16493""
","""event"",""trial"",""time""
""fullscreenenter"",""1"",""16626""
","
",,571.5999999,run_exp/static/images/task_images/land.jpg,76,,,,,,,0,,,1,,,,,,,,17199,1,2,TRUE,,,
travel,75,432599,0.0-27.0-0.0,"""event"",""trial"",""time""
""blur"",""0"",""0""
""focus"",""1"",""16493""
""fullscreenenter"",""1"",""16626""
","""event"",""trial"",""time""
""blur"",""0"",""0""
","""event"",""trial"",""time""
""focus"",""1"",""16493""
","""event"",""trial"",""time""
""fullscreenenter"",""1"",""16626""
","
",,,,,,,,,,,,"[{""stimulus"":""run_exp/static/images/task_images/rocket-01.jpg"",""time"":0.3000001907348633},{""stimulus"":""run_exp/static/images/task_images/rocket-02.jpg"",""time"":1054.5},{""stimulus"":""run_exp/static/images/task_images/rocket-03.jpg"",""time"":2106},{""stimulus"":""run_exp/static/images/task_images/rocket-04.jpg"",""time"":3157.4000000953674},{""stimulus"":""run_exp/static/images/task_images/rocket-05.jpg"",""time"":4198.900000095367},{""stimulus"":""run_exp/static/images/task_images/rocket-06.jpg"",""time"":5245.800000190735},{""stimulus"":""run_exp/static/images/task_images/rocket-07.jpg"",""time"":6288.600000143051},{""stimulus"":""run_exp/static/images/task_images/rocket-08.jpg"",""time"":7338.300000190735},{""stimulus"":""run_exp/static/images/task_images/rocket-09.jpg"",""time"":8394.600000143051}]",[],1,,,,,,,,,,,,,,
alien_welcome,76,437617,0.0-27.0-1.0,"""event"",""trial"",""time""
""blur"",""0"",""0""
""focus"",""1"",""16493""
""fullscreenenter"",""1"",""16626""
","""event"",""trial"",""time""
""blur"",""0"",""0""
","""event"",""trial"",""time""
""focus"",""1"",""16493""
","""event"",""trial"",""time""
""fullscreenenter"",""1"",""16626""
","
",,null,run_exp/static/images/task_images/aliens/old_aliens/planet/alien_planet-64.jpg,null,,,,,,,,,,,,,64,"21,64,77,43,38,28,60,46,39,25,6,36,52,54,80,7,72,61,45,78,57,40,70,66,42,55,16,1,75,65",,,,,,,,,,
land,77,438130,0.0-27.0-2.0,"""event"",""trial"",""time""
""blur"",""0"",""0""
""focus"",""1"",""16493""
""fullscreenenter"",""1"",""16626""
","""event"",""trial"",""time""
""blur"",""0"",""0""
","""event"",""trial"",""time""
""focus"",""1"",""16493""
","""event"",""trial"",""time""
""fullscreenenter"",""1"",""16626""
","
",,null,run_exp/static/images/task_images/land.jpg,null,,,,,,,106,,,2,,,,,,,,,,,,,,
dig,78,440149,0.0-27.0-3.0,"""event"",""trial"",""time""
""blur"",""0"",""0""
""focus"",""1"",""16493""
""fullscreenenter"",""1"",""16626""
","""event"",""trial"",""time""
""blur"",""0"",""0""
","""event"",""trial"",""time""
""focus"",""1"",""16493""
","""event"",""trial"",""time""
""fullscreenenter"",""1"",""16626""
","
",,,,,,,,,,,,"[{""stimulus"":""run_exp/static/images/task_images/dig.jpg"",""time"":0.2999999523162842},{""stimulus"":""run_exp/static/images/task_images/land.jpg"",""time"":675.0999999046326},{""stimulus"":""run_exp/static/images/task_images/dig.jpg"",""time"":1342.2999999523163}]",[],2,,,,,,,,,,,,,,
harvest,79,441163,0.0-27.0-4.0,"""event"",""trial"",""time""
""blur"",""0"",""0""
""focus"",""1"",""16493""
""fullscreenenter"",""1"",""16626""
","""event"",""trial"",""time""
""blur"",""0"",""0""
","""event"",""trial"",""time""
""focus"",""1"",""16493""
","""event"",""trial"",""time""
""fullscreenenter"",""1"",""16626""
","
",,null,run_exp/static/images/task_images/gems/106.jpg,null,,,,,,,18,,,2,,,,,106,0.171230067,0.169811321,,,,,,,
decision,80,443011,0.0-27.0-5.0,"""event"",""trial"",""time""
""blur"",""0"",""0""
""focus"",""1"",""16493""
""fullscreenenter"",""1"",""16626""
","""event"",""trial"",""time""
""blur"",""0"",""0""
","""event"",""trial"",""time""
""focus"",""1"",""16493""
","""event"",""trial"",""time""
""fullscreenenter"",""1"",""16626""
","
",,1843.6,run_exp/static/images/task_images/land.jpg,65,,,,,,,18,,,2,,,,,,,,37042,1,0,FALSE,,,
dig,81,444173,0.0-28.0-0.0,"""event"",""trial"",""time""
""blur"",""0"",""0""
""focus"",""1"",""16493""
""fullscreenenter"",""1"",""16626""
","""event"",""trial"",""time""
""blur"",""0"",""0""
","""event"",""trial"",""time""
""focus"",""1"",""16493""
","""event"",""trial"",""time""
""fullscreenenter"",""1"",""16626""
","
",,,,,,,,,,,,"[{""stimulus"":""run_exp/static/images/task_images/dig.jpg"",""time"":0.2999999523162842},{""stimulus"":""run_exp/static/images/task_images/land.jpg"",""time"":392.09999990463257},{""stimulus"":""run_exp/static/images/task_images/dig.jpg"",""time"":777.2999999523163}]",[],2,,,,,,,,,,,,,,
harvest,82,445180,0.0-28.0-1.0,"""event"",""trial"",""time""
""blur"",""0"",""0""
""focus"",""1"",""16493""
""fullscreenenter"",""1"",""16626""
","""event"",""trial"",""time""
""blur"",""0"",""0""
","""event"",""trial"",""time""
""focus"",""1"",""16493""
","""event"",""trial"",""time""
""fullscreenenter"",""1"",""16626""
","
",,null,run_exp/static/images/task_images/gems/18.jpg,null,,,,,,,4,,,2,,,,,18,0.226623667,0.222222222,,,,,,,
decision,83,445502,0.0-28.0-2.0,"""event"",""trial"",""time""
""blur"",""0"",""0""
""focus"",""1"",""16493""
""fullscreenenter"",""1"",""16626""
","""event"",""trial"",""time""
""blur"",""0"",""0""
","""event"",""trial"",""time""
""focus"",""1"",""16493""
","""event"",""trial"",""time""
""fullscreenenter"",""1"",""16626""
","
",,316.8000002,run_exp/static/images/task_images/land.jpg,65,,,,,,,4,,,2,,,,,,,,39533,1,1,FALSE,,,
dig,84,448200,0.0-29.0-0.0,"""event"",""trial"",""time""
""blur"",""0"",""0""
""focus"",""1"",""16493""
""fullscreenenter"",""1"",""16626""
","""event"",""trial"",""time""
""blur"",""0"",""0""
","""event"",""trial"",""time""
""focus"",""1"",""16493""
","""event"",""trial"",""time""
""fullscreenenter"",""1"",""16626""
","
",,,,,,,,,,,,"[{""stimulus"":""run_exp/static/images/task_images/dig.jpg"",""time"":0.2999999523162842},{""stimulus"":""run_exp/static/images/task_images/land.jpg"",""time"":896.8999998569489},{""stimulus"":""run_exp/static/images/task_images/dig.jpg"",""time"":1802.5999999046326}]",[],2,,,,,,,,,,,,,,
harvest,85,449213,0.0-29.0-1.0,"""event"",""trial"",""time""
""blur"",""0"",""0""
""focus"",""1"",""16493""
""fullscreenenter"",""1"",""16626""
","""event"",""trial"",""time""
""blur"",""0"",""0""
","""event"",""trial"",""time""
""focus"",""1"",""16493""
","""event"",""trial"",""time""
""fullscreenenter"",""1"",""16626""
","
",,null,run_exp/static/images/task_images/gems/4.jpg,null,,,,,,,1,,,2,,,,,4,0.232446422,0.25,,,,,,,
decision,86,449293,0.0-29.0-2.0,"""event"",""trial"",""time""
""blur"",""0"",""0""
""focus"",""1"",""16493""
""fullscreenenter"",""1"",""16626""
","""event"",""trial"",""time""
""blur"",""0"",""0""
","""event"",""trial"",""time""
""focus"",""1"",""16493""
","""event"",""trial"",""time""
""fullscreenenter"",""1"",""16626""
","
",,76.70000005,run_exp/static/images/task_images/land.jpg,76,,,,,,,1,,,2,,,,,,,,43324,1,2,TRUE,,,
travel,87,459218,0.0-30.0-0.0,"""event"",""trial"",""time""
""blur"",""0"",""0""
""focus"",""1"",""16493""
""fullscreenenter"",""1"",""16626""
","""event"",""trial"",""time""
""blur"",""0"",""0""
","""event"",""trial"",""time""
""focus"",""1"",""16493""
","""event"",""trial"",""time""
""fullscreenenter"",""1"",""16626""
","
",,,,,,,,,,,,"[{""stimulus"":""run_exp/static/images/task_images/rocket-01.jpg"",""time"":0.20000004768371582},{""stimulus"":""run_exp/static/images/task_images/rocket-02.jpg"",""time"":1109.8000001907349},{""stimulus"":""run_exp/static/images/task_images/rocket-03.jpg"",""time"":2217.2000000476837},{""stimulus"":""run_exp/static/images/task_images/rocket-04.jpg"",""time"":3311.5},{""stimulus"":""run_exp/static/images/task_images/rocket-05.jpg"",""time"":4418.900000095367},{""stimulus"":""run_exp/static/images/task_images/rocket-06.jpg"",""time"":5526.200000047684},{""stimulus"":""run_exp/static/images/task_images/rocket-07.jpg"",""time"":6629.100000143051},{""stimulus"":""run_exp/static/images/task_images/rocket-08.jpg"",""time"":7720.800000190735},{""stimulus"":""run_exp/static/images/task_images/rocket-09.jpg"",""time"":8825.400000095367}]",[],2,,,,,,,,,,,,,,
alien_welcome,88,464224,0.0-30.0-1.0,"""event"",""trial"",""time""
""blur"",""0"",""0""
""focus"",""1"",""16493""
""fullscreenenter"",""1"",""16626""
","""event"",""trial"",""time""
""blur"",""0"",""0""
","""event"",""trial"",""time""
""focus"",""1"",""16493""
","""event"",""trial"",""time""
""fullscreenenter"",""1"",""16626""
","
",,null,run_exp/static/images/task_images/aliens/old_aliens/planet/alien_planet-77.jpg,null,,,,,,,,,,,,,77,"21,64,77,43,38,28,60,46,39,25,6,36,52,54,80,7,72,61,45,78,57,40,70,66,42,55,16,1,75,65",,,,,,,,,,
land,89,464736,0.0-30.0-2.0,"""event"",""trial"",""time""
""blur"",""0"",""0""
""focus"",""1"",""16493""
""fullscreenenter"",""1"",""16626""
","""event"",""trial"",""time""
""blur"",""0"",""0""
","""event"",""trial"",""time""
""focus"",""1"",""16493""
","""event"",""trial"",""time""
""fullscreenenter"",""1"",""16626""
","
",,null,run_exp/static/images/task_images/land.jpg,null,,,,,,,101,,,3,,,,,,,,,,,,,,
dig,90,466759,0.0-30.0-3.0,"""event"",""trial"",""time""
""blur"",""0"",""0""
""focus"",""1"",""16493""
""fullscreenenter"",""1"",""16626""
","""event"",""trial"",""time""
""blur"",""0"",""0""
","""event"",""trial"",""time""
""focus"",""1"",""16493""
","""event"",""trial"",""time""
""fullscreenenter"",""1"",""16626""
","
",,,,,,,,,,,,"[{""stimulus"":""run_exp/static/images/task_images/dig.jpg"",""time"":0.7000000476837158},{""stimulus"":""run_exp/static/images/task_images/land.jpg"",""time"":683.5},{""stimulus"":""run_exp/static/images/task_images/dig.jpg"",""time"":1338.2000000476837}]",[],3,,,,,,,,,,,,,,
harvest,91,467778,0.0-30.0-4.0,"""event"",""trial"",""time""
""blur"",""0"",""0""
""focus"",""1"",""16493""
""fullscreenenter"",""1"",""16626""
","""event"",""trial"",""time""
""blur"",""0"",""0""
","""event"",""trial"",""time""
""focus"",""1"",""16493""
","""event"",""trial"",""time""
""fullscreenenter"",""1"",""16626""
","
",,null,run_exp/static/images/task_images/gems/101.jpg,null,,,,,,,52,,,3,,,,,101,0.514515493,0.514851485,,,,,,,
decision,92,468996,0.0-30.0-5.0,"""event"",""trial"",""time""
""blur"",""0"",""0""
""focus"",""1"",""16493""
""fullscreenenter"",""1"",""16626""
","""event"",""trial"",""time""
""blur"",""0"",""0""
","""event"",""trial"",""time""
""focus"",""1"",""16493""
","""event"",""trial"",""time""
""fullscreenenter"",""1"",""16626""
","
",,1215.3,run_exp/static/images/task_images/land.jpg,65,,,,,,,52,,,3,,,,,,,,63028,1,0,FALSE,,,
dig,93,470795,0.0-31.0-0.0,"""event"",""trial"",""time""
""blur"",""0"",""0""
""focus"",""1"",""16493""
""fullscreenenter"",""1"",""16626""
","""event"",""trial"",""time""
""blur"",""0"",""0""
","""event"",""trial"",""time""
""focus"",""1"",""16493""
","""event"",""trial"",""time""
""fullscreenenter"",""1"",""16626""
","
",,,,,,,,,,,,"[{""stimulus"":""run_exp/static/images/task_images/dig.jpg"",""time"":0.20000004768371582},{""stimulus"":""run_exp/static/images/task_images/land.jpg"",""time"":611.6000001430511},{""stimulus"":""run_exp/static/images/task_images/dig.jpg"",""time"":1201.7999999523163}]",[],3,,,,,,,,,,,,,,
harvest,94,471816,0.0-31.0-1.0,"""event"",""trial"",""time""
""blur"",""0"",""0""
""focus"",""1"",""16493""
""fullscreenenter"",""1"",""16626""
","""event"",""trial"",""time""
""blur"",""0"",""0""
","""event"",""trial"",""time""
""focus"",""1"",""16493""
","""event"",""trial"",""time""
""fullscreenenter"",""1"",""16626""
","
",,null,run_exp/static/images/task_images/gems/52.jpg,null,,,,,,,25,,,3,,,,,52,0.476650479,0.480769231,,,,,,,
decision,95,471960,0.0-31.0-2.0,"""event"",""trial"",""time""
""blur"",""0"",""0""
""focus"",""1"",""16493""
""fullscreenenter"",""1"",""16626""
","""event"",""trial"",""time""
""blur"",""0"",""0""
","""event"",""trial"",""time""
""focus"",""1"",""16493""
","""event"",""trial"",""time""
""fullscreenenter"",""1"",""16626""
","
",,140.7,run_exp/static/images/task_images/land.jpg,65,,,,,,,25,,,3,,,,,,,,65991,1,1,FALSE,,,
dig,96,474842,0.0-32.0-0.0,"""event"",""trial"",""time""
""blur"",""0"",""0""
""focus"",""1"",""16493""
""fullscreenenter"",""1"",""16626""
","""event"",""trial"",""time""
""blur"",""0"",""0""
","""event"",""trial"",""time""
""focus"",""1"",""16493""
","""event"",""trial"",""time""
""fullscreenenter"",""1"",""16626""
","
",,,,,,,,,,,,"[{""stimulus"":""run_exp/static/images/task_images/dig.jpg"",""time"":0.5},{""stimulus"":""run_exp/static/images/task_images/land.jpg"",""time"":958.6999998092651},{""stimulus"":""run_exp/static/images/task_images/dig.jpg"",""time"":1916.6999998092651}]",[],3,,,,,,,,,,,,,,
harvest,97,475854,0.0-32.0-1.0,"""event"",""trial"",""time""
""blur"",""0"",""0""
""focus"",""1"",""16493""
""fullscreenenter"",""1"",""16626""
","""event"",""trial"",""time""
""blur"",""0"",""0""
","""event"",""trial"",""time""
""focus"",""1"",""16493""
","""event"",""trial"",""time""
""fullscreenenter"",""1"",""16626""
","
",,null,run_exp/static/images/task_images/gems/25.jpg,null,,,,,,,13,,,3,,,,,25,0.523461077,0.52,,,,,,,
decision,98,477203,0.0-32.0-2.0,"""event"",""trial"",""time""
""blur"",""0"",""0""
""focus"",""1"",""16493""
""fullscreenenter"",""1"",""16626""
","""event"",""trial"",""time""
""blur"",""0"",""0""
","""event"",""trial"",""time""
""focus"",""1"",""16493""
","""event"",""trial"",""time""
""fullscreenenter"",""1"",""16626""
","
",,1338.9,run_exp/static/images/task_images/land.jpg,65,,,,,,,13,,,3,,,,,,,,71234,1,2,FALSE,,,
dig,99,478879,0.0-33.0-0.0,"""event"",""trial"",""time""
""blur"",""0"",""0""
""focus"",""1"",""16493""
""fullscreenenter"",""1"",""16626""
","""event"",""trial"",""time""
""blur"",""0"",""0""
","""event"",""trial"",""time""
""focus"",""1"",""16493""
","""event"",""trial"",""time""
""fullscreenenter"",""1"",""16626""
","
",,,,,,,,,,,,"[{""stimulus"":""run_exp/static/images/task_images/dig.jpg"",""time"":0.20000004768371582},{""stimulus"":""run_exp/static/images/task_images/land.jpg"",""time"":570.0999999046326},{""stimulus"":""run_exp/static/images/task_images/dig.jpg"",""time"":1109.4000000953674}]",[],3,,,,,,,,,,,,,,
harvest,100,479891,0.0-33.0-1.0,"""event"",""trial"",""time""
""blur"",""0"",""0""
""focus"",""1"",""16493""
""fullscreenenter"",""1"",""16626""
","""event"",""trial"",""time""
""blur"",""0"",""0""
","""event"",""trial"",""time""
""focus"",""1"",""16493""
","""event"",""trial"",""time""
""fullscreenenter"",""1"",""16626""
","
",,null,run_exp/static/images/task_images/gems/13.jpg,null,,,,,,,5,,,3,,,,,13,0.420894252,0.384615385,,,,,,,
decision,101,479965,0.0-33.0-2.0,"""event"",""trial"",""time""
""blur"",""0"",""0""
""focus"",""1"",""16493""
""fullscreenenter"",""1"",""16626""
","""event"",""trial"",""time""
""blur"",""0"",""0""
","""event"",""trial"",""time""
""focus"",""1"",""16493""
","""event"",""trial"",""time""
""fullscreenenter"",""1"",""16626""
","
",,69,run_exp/static/images/task_images/land.jpg,65,,,,,,,5,,,3,,,,,,,,73996,1,3,FALSE,,,
dig,102,482909,0.0-34.0-0.0,"""event"",""trial"",""time""
""blur"",""0"",""0""
""focus"",""1"",""16493""
""fullscreenenter"",""1"",""16626""
","""event"",""trial"",""time""
""blur"",""0"",""0""
","""event"",""trial"",""time""
""focus"",""1"",""16493""
","""event"",""trial"",""time""
""fullscreenenter"",""1"",""16626""
","
",,,,,,,,,,,,"[{""stimulus"":""run_exp/static/images/task_images/dig.jpg"",""time"":0.20000004768371582},{""stimulus"":""run_exp/static/images/task_images/land.jpg"",""time"":980.5},{""stimulus"":""run_exp/static/images/task_images/dig.jpg"",""time"":1963.9000000953674}]",[],3,,,,,,,,,,,,,,
harvest,103,483922,0.0-34.0-1.0,"""event"",""trial"",""time""
""blur"",""0"",""0""
""focus"",""1"",""16493""
""fullscreenenter"",""1"",""16626""
","""event"",""trial"",""time""
""blur"",""0"",""0""
","""event"",""trial"",""time""
""focus"",""1"",""16493""
","""event"",""trial"",""time""
""fullscreenenter"",""1"",""16626""
","
",,null,run_exp/static/images/task_images/gems/5.jpg,null,,,,,,,3,,,3,,,,,5,0.533421553,0.6,,,,,,,
decision,104,485195,0.0-34.0-2.0,"""event"",""trial"",""time""
""blur"",""0"",""0""
""focus"",""1"",""16493""
""fullscreenenter"",""1"",""16626""
","""event"",""trial"",""time""
""blur"",""0"",""0""
","""event"",""trial"",""time""
""focus"",""1"",""16493""
","""event"",""trial"",""time""
""fullscreenenter"",""1"",""16626""
","
",,1268.4,run_exp/static/images/task_images/land.jpg,76,,,,,,,3,,,3,,,,,,,,79226,1,4,TRUE,,,
travel,105,493938,0.0-35.0-0.0,"""event"",""trial"",""time""
""blur"",""0"",""0""
""focus"",""1"",""16493""
""fullscreenenter"",""1"",""16626""
","""event"",""trial"",""time""
""blur"",""0"",""0""
","""event"",""trial"",""time""
""focus"",""1"",""16493""
","""event"",""trial"",""time""
""fullscreenenter"",""1"",""16626""
","
",,,,,,,,,,,,"[{""stimulus"":""run_exp/static/images/task_images/rocket-01.jpg"",""time"":0.2999999523162842},{""stimulus"":""run_exp/static/images/task_images/rocket-02.jpg"",""time"":982.6999998092651},{""stimulus"":""run_exp/static/images/task_images/rocket-03.jpg"",""time"":1947.6999998092651},{""stimulus"":""run_exp/static/images/task_images/rocket-04.jpg"",""time"":2924.199999809265},{""stimulus"":""run_exp/static/images/task_images/rocket-05.jpg"",""time"":3891.2999999523163},{""stimulus"":""run_exp/static/images/task_images/rocket-06.jpg"",""time"":4863.099999904633},{""stimulus"":""run_exp/static/images/task_images/rocket-07.jpg"",""time"":5835.099999904633},{""stimulus"":""run_exp/static/images/task_images/rocket-08.jpg"",""time"":6797.699999809265},{""stimulus"":""run_exp/static/images/task_images/rocket-09.jpg"",""time"":7779.5}]",[],3,,,,,,,,,,,,,,
alien_welcome,106,498961,0.0-35.0-1.0,"""event"",""trial"",""time""
""blur"",""0"",""0""
""focus"",""1"",""16493""
""fullscreenenter"",""1"",""16626""
","""event"",""trial"",""time""
""blur"",""0"",""0""
","""event"",""trial"",""time""
""focus"",""1"",""16493""
","""event"",""trial"",""time""
""fullscreenenter"",""1"",""16626""
","
",,null,run_exp/static/images/task_images/aliens/old_aliens/planet/alien_planet-43.jpg,null,,,,,,,,,,,,,43,"21,64,77,43,38,28,60,46,39,25,6,36,52,54,80,7,72,61,45,78,57,40,70,66,42,55,16,1,75,65",,,,,,,,,,
land,107,499479,0.0-35.0-2.0,"""event"",""trial"",""time""
""blur"",""0"",""0""
""focus"",""1"",""16493""
""fullscreenenter"",""1"",""16626""
","""event"",""trial"",""time""
""blur"",""0"",""0""
","""event"",""trial"",""time""
""focus"",""1"",""16493""
","""event"",""trial"",""time""
""fullscreenenter"",""1"",""16626""
","
",,null,run_exp/static/images/task_images/land.jpg,null,,,,,,,93,,,4,,,,,,,,,,,,,,
dig,108,501489,0.0-35.0-3.0,"""event"",""trial"",""time""
""blur"",""0"",""0""
""focus"",""1"",""16493""
""fullscreenenter"",""1"",""16626""
","""event"",""trial"",""time""
""blur"",""0"",""0""
","""event"",""trial"",""time""
""focus"",""1"",""16493""
","""event"",""trial"",""time""
""fullscreenenter"",""1"",""16626""
","
",,,,,,,,,,,,"[{""stimulus"":""run_exp/static/images/task_images/dig.jpg"",""time"":0.3000001907348633},{""stimulus"":""run_exp/static/images/task_images/land.jpg"",""time"":677.7000000476837},{""stimulus"":""run_exp/static/images/task_images/dig.jpg"",""time"":1343.6000001430511}]",[],4,,,,,,,,,,,,,,
harvest,109,502500,0.0-35.0-4.0,"""event"",""trial"",""time""
""blur"",""0"",""0""
""focus"",""1"",""16493""
""fullscreenenter"",""1"",""16626""
","""event"",""trial"",""time""
""blur"",""0"",""0""
","""event"",""trial"",""time""
""focus"",""1"",""16493""
","""event"",""trial"",""time""
""fullscreenenter"",""1"",""16626""
","
",,null,run_exp/static/images/task_images/gems/93.jpg,null,,,,,,,42,,,4,,,,,93,0.448002719,0.451612903,,,,,,,
decision,110,503164,0.0-35.0-5.0,"""event"",""trial"",""time""
""blur"",""0"",""0""
""focus"",""1"",""16493""
""fullscreenenter"",""1"",""16626""
","""event"",""trial"",""time""
""blur"",""0"",""0""
","""event"",""trial"",""time""
""focus"",""1"",""16493""
","""event"",""trial"",""time""
""fullscreenenter"",""1"",""16626""
","
",,659.8999999,run_exp/static/images/task_images/land.jpg,65,,,,,,,42,,,4,,,,,,,,97195,1,0,FALSE,,,
dig,111,505521,0.0-36.0-0.0,"""event"",""trial"",""time""
""blur"",""0"",""0""
""focus"",""1"",""16493""
""fullscreenenter"",""1"",""16626""
","""event"",""trial"",""time""
""blur"",""0"",""0""
","""event"",""trial"",""time""
""focus"",""1"",""16493""
","""event"",""trial"",""time""
""fullscreenenter"",""1"",""16626""
","
",,,,,,,,,,,,"[{""stimulus"":""run_exp/static/images/task_images/dig.jpg"",""time"":0.19999980926513672},{""stimulus"":""run_exp/static/images/task_images/land.jpg"",""time"":787},{""stimulus"":""run_exp/static/images/task_images/dig.jpg"",""time"":1571.1999998092651}]",[],4,,,,,,,,,,,,,,
harvest,112,506542,0.0-36.0-1.0,"""event"",""trial"",""time""
""blur"",""0"",""0""
""focus"",""1"",""16493""
""fullscreenenter"",""1"",""16626""
","""event"",""trial"",""time""
""blur"",""0"",""0""
","""event"",""trial"",""time""
""focus"",""1"",""16493""
","""event"",""trial"",""time""
""fullscreenenter"",""1"",""16626""
","
",,null,run_exp/static/images/task_images/gems/42.jpg,null,,,,,,,18,,,4,,,,,42,0.440126047,0.428571429,,,,,,,
decision,113,506980,0.0-36.0-2.0,"""event"",""trial"",""time""
""blur"",""0"",""0""
""focus"",""1"",""16493""
""fullscreenenter"",""1"",""16626""
","""event"",""trial"",""time""
""blur"",""0"",""0""
","""event"",""trial"",""time""
""focus"",""1"",""16493""
","""event"",""trial"",""time""
""fullscreenenter"",""1"",""16626""
","
",,436.0999999,run_exp/static/images/task_images/land.jpg,65,,,,,,,18,,,4,,,,,,,,101011,1,1,FALSE,,,
dig,114,509555,0.0-37.0-0.0,"""event"",""trial"",""time""
""blur"",""0"",""0""
""focus"",""1"",""16493""
""fullscreenenter"",""1"",""16626""
","""event"",""trial"",""time""
""blur"",""0"",""0""
","""event"",""trial"",""time""
""focus"",""1"",""16493""
","""event"",""trial"",""time""
""fullscreenenter"",""1"",""16626""
","
",,,,,,,,,,,,"[{""stimulus"":""run_exp/static/images/task_images/dig.jpg"",""time"":0.2999999523162842},{""stimulus"":""run_exp/static/images/task_images/land.jpg"",""time"":863.6000001430511},{""stimulus"":""run_exp/static/images/task_images/dig.jpg"",""time"":1725.9000000953674}]",[],4,,,,,,,,,,,,,,
harvest,115,510578,0.0-37.0-1.0,"""event"",""trial"",""time""
""blur"",""0"",""0""
""focus"",""1"",""16493""
""fullscreenenter"",""1"",""16626""
","""event"",""trial"",""time""
""blur"",""0"",""0""
","""event"",""trial"",""time""
""focus"",""1"",""16493""
","""event"",""trial"",""time""
""fullscreenenter"",""1"",""16626""
","
",,null,run_exp/static/images/task_images/gems/18.jpg,null,,,,,,,8,,,4,,,,,18,0.438393662,0.444444444,,,,,,,
decision,116,510975,0.0-37.0-2.0,"""event"",""trial"",""time""
""blur"",""0"",""0""
""focus"",""1"",""16493""
""fullscreenenter"",""1"",""16626""
","""event"",""trial"",""time""
""blur"",""0"",""0""
","""event"",""trial"",""time""
""focus"",""1"",""16493""
","""event"",""trial"",""time""
""fullscreenenter"",""1"",""16626""
","
",,392.8000002,run_exp/static/images/task_images/land.jpg,65,,,,,,,8,,,4,,,,,,,,105007,1,2,FALSE,,,
dig,117,513605,0.0-38.0-0.0,"""event"",""trial"",""time""
""blur"",""0"",""0""
""focus"",""1"",""16493""
""fullscreenenter"",""1"",""16626""
","""event"",""trial"",""time""
""blur"",""0"",""0""
","""event"",""trial"",""time""
""focus"",""1"",""16493""
","""event"",""trial"",""time""
""fullscreenenter"",""1"",""16626""
","
",,,,,,,,,,,,"[{""stimulus"":""run_exp/static/images/task_images/dig.jpg"",""time"":0.2999999523162842},{""stimulus"":""run_exp/static/images/task_images/land.jpg"",""time"":881.3999998569489},{""stimulus"":""run_exp/static/images/task_images/dig.jpg"",""time"":1747.1999998092651}]",[],4,,,,,,,,,,,,,,
harvest,118,514616,0.0-38.0-1.0,"""event"",""trial"",""time""
""blur"",""0"",""0""
""focus"",""1"",""16493""
""fullscreenenter"",""1"",""16626""
","""event"",""trial"",""time""
""blur"",""0"",""0""
","""event"",""trial"",""time""
""focus"",""1"",""16493""
","""event"",""trial"",""time""
""fullscreenenter"",""1"",""16626""
","
",,null,run_exp/static/images/task_images/gems/8.jpg,null,,,,,,,4,,,4,,,,,8,0.502775741,0.5,,,,,,,
decision,119,515042,0.0-38.0-2.0,"""event"",""trial"",""time""
""blur"",""0"",""0""
""focus"",""1"",""16493""
""fullscreenenter"",""1"",""16626""
","""event"",""trial"",""time""
""blur"",""0"",""0""
","""event"",""trial"",""time""
""focus"",""1"",""16493""
","""event"",""trial"",""time""
""fullscreenenter"",""1"",""16626""
","
",,423.7,run_exp/static/images/task_images/land.jpg,65,,,,,,,4,,,4,,,,,,,,109073,1,3,FALSE,,,
dig,120,517636,0.0-39.0-0.0,"""event"",""trial"",""time""
""blur"",""0"",""0""
""focus"",""1"",""16493""
""fullscreenenter"",""1"",""16626""
","""event"",""trial"",""time""
""blur"",""0"",""0""
","""event"",""trial"",""time""
""focus"",""1"",""16493""
","""event"",""trial"",""time""
""fullscreenenter"",""1"",""16626""
","
",,,,,,,,,,,,"[{""stimulus"":""run_exp/static/images/task_images/dig.jpg"",""time"":0.20000004768371582},{""stimulus"":""run_exp/static/images/task_images/land.jpg"",""time"":862.6000001430511},{""stimulus"":""run_exp/static/images/task_images/dig.jpg"",""time"":1724.2000000476837}]",[],4,,,,,,,,,,,,,,
harvest,121,518649,0.0-39.0-1.0,"""event"",""trial"",""time""
""blur"",""0"",""0""
""focus"",""1"",""16493""
""fullscreenenter"",""1"",""16626""
","""event"",""trial"",""time""
""blur"",""0"",""0""
","""event"",""trial"",""time""
""focus"",""1"",""16493""
","""event"",""trial"",""time""
""fullscreenenter"",""1"",""16626""
","
",,null,run_exp/static/images/task_images/gems/4.jpg,null,,,,,,,2,,,4,,,,,4,0.412144656,0.5,,,,,,,
decision,122,518732,0.0-39.0-2.0,"""event"",""trial"",""time""
""blur"",""0"",""0""
""focus"",""1"",""16493""
""fullscreenenter"",""1"",""16626""
","""event"",""trial"",""time""
""blur"",""0"",""0""
","""event"",""trial"",""time""
""focus"",""1"",""16493""
","""event"",""trial"",""time""
""fullscreenenter"",""1"",""16626""
","
",,81.30000019,run_exp/static/images/task_images/land.jpg,76,,,,,,,2,,,4,,,,,,,,112763,1,4,TRUE,,,
travel,123,528665,0.0-40.0-0.0,"""event"",""trial"",""time""
""blur"",""0"",""0""
""focus"",""1"",""16493""
""fullscreenenter"",""1"",""16626""
","""event"",""trial"",""time""
""blur"",""0"",""0""
","""event"",""trial"",""time""
""focus"",""1"",""16493""
","""event"",""trial"",""time""
""fullscreenenter"",""1"",""16626""
","
",,,,,,,,,,,,"[{""stimulus"":""run_exp/static/images/task_images/rocket-01.jpg"",""time"":0.09999990463256836},{""stimulus"":""run_exp/static/images/task_images/rocket-02.jpg"",""time"":1119.2000000476837},{""stimulus"":""run_exp/static/images/task_images/rocket-03.jpg"",""time"":2221.2999999523163},{""stimulus"":""run_exp/static/images/task_images/rocket-04.jpg"",""time"":3310.5},{""stimulus"":""run_exp/static/images/task_images/rocket-05.jpg"",""time"":4420.900000095367},{""stimulus"":""run_exp/static/images/task_images/rocket-06.jpg"",""time"":5516},{""stimulus"":""run_exp/static/images/task_images/rocket-07.jpg"",""time"":6626.200000047684},{""stimulus"":""run_exp/static/images/task_images/rocket-08.jpg"",""time"":7719.099999904633},{""stimulus"":""run_exp/static/images/task_images/rocket-09.jpg"",""time"":8828.400000095367}]",[],4,,,,,,,,,,,,,,
alien_welcome,124,533686,0.0-40.0-1.0,"""event"",""trial"",""time""
""blur"",""0"",""0""
""focus"",""1"",""16493""
""fullscreenenter"",""1"",""16626""
","""event"",""trial"",""time""
""blur"",""0"",""0""
","""event"",""trial"",""time""
""focus"",""1"",""16493""
","""event"",""trial"",""time""
""fullscreenenter"",""1"",""16626""
","
",,null,run_exp/static/images/task_images/aliens/old_aliens/planet/alien_planet-38.jpg,null,,,,,,,,,,,,,38,"21,64,77,43,38,28,60,46,39,25,6,36,52,54,80,7,72,61,45,78,57,40,70,66,42,55,16,1,75,65",,,,,,,,,,
land,125,534197,0.0-40.0-2.0,"""event"",""trial"",""time""
""blur"",""0"",""0""
""focus"",""1"",""16493""
""fullscreenenter"",""1"",""16626""
","""event"",""trial"",""time""
""blur"",""0"",""0""
","""event"",""trial"",""time""
""focus"",""1"",""16493""
","""event"",""trial"",""time""
""fullscreenenter"",""1"",""16626""
","
",,null,run_exp/static/images/task_images/land.jpg,null,,,,,,,109,,,5,,,,,,,,,,,,,,
dig,126,536210,0.0-40.0-3.0,"""event"",""trial"",""time""
""blur"",""0"",""0""
""focus"",""1"",""16493""
""fullscreenenter"",""1"",""16626""
","""event"",""trial"",""time""
""blur"",""0"",""0""
","""event"",""trial"",""time""
""focus"",""1"",""16493""
","""event"",""trial"",""time""
""fullscreenenter"",""1"",""16626""
","
",,,,,,,,,,,,"[{""stimulus"":""run_exp/static/images/task_images/dig.jpg"",""time"":0.7999999523162842},{""stimulus"":""run_exp/static/images/task_images/land.jpg"",""time"":681.5},{""stimulus"":""run_exp/static/images/task_images/dig.jpg"",""time"":1344.6999998092651}]",[],5,,,,,,,,,,,,,,
harvest,127,537217,0.0-40.0-4.0,"""event"",""trial"",""time""
""blur"",""0"",""0""
""focus"",""1"",""16493""
""fullscreenenter"",""1"",""16626""
","""event"",""trial"",""time""
""blur"",""0"",""0""
","""event"",""trial"",""time""
""focus"",""1"",""16493""
","""event"",""trial"",""time""
""fullscreenenter"",""1"",""16626""
","
",,null,run_exp/static/images/task_images/gems/109.jpg,null,,,,,,,53,,,5,,,,,109,0.483250106,0.486238532,,,,,,,
decision,128,537280,0.0-40.0-5.0,"""event"",""trial"",""time""
""blur"",""0"",""0""
""focus"",""1"",""16493""
""fullscreenenter"",""1"",""16626""
","""event"",""trial"",""time""
""blur"",""0"",""0""
","""event"",""trial"",""time""
""focus"",""1"",""16493""
","""event"",""trial"",""time""
""fullscreenenter"",""1"",""16626""
","
",,58.89999986,run_exp/static/images/task_images/land.jpg,65,,,,,,,53,,,5,,,,,,,,131311,1,0,FALSE,,,
dig,129,540236,0.0-41.0-0.0,"""event"",""trial"",""time""
""blur"",""0"",""0""
""focus"",""1"",""16493""
""fullscreenenter"",""1"",""16626""
","""event"",""trial"",""time""
""blur"",""0"",""0""
","""event"",""trial"",""time""
""focus"",""1"",""16493""
","""event"",""trial"",""time""
""fullscreenenter"",""1"",""16626""
","
",,,,,,,,,,,,"[{""stimulus"":""run_exp/static/images/task_images/dig.jpg"",""time"":0.40000009536743164},{""stimulus"":""run_exp/static/images/task_images/land.jpg"",""time"":998.6000001430511},{""stimulus"":""run_exp/static/images/task_images/dig.jpg"",""time"":1967.5}]",[],5,,,,,,,,,,,,,,
harvest,130,541249,0.0-41.0-1.0,"""event"",""trial"",""time""
""blur"",""0"",""0""
""focus"",""1"",""16493""
""fullscreenenter"",""1"",""16626""
","""event"",""trial"",""time""
""blur"",""0"",""0""
","""event"",""trial"",""time""
""focus"",""1"",""16493""
","""event"",""trial"",""time""
""fullscreenenter"",""1"",""16626""
","
",,null,run_exp/static/images/task_images/gems/53.jpg,null,,,,,,,27,,,5,,,,,53,0.509312199,0.509433962,,,,,,,
decision,131,542286,0.0-41.0-2.0,"""event"",""trial"",""time""
""blur"",""0"",""0""
""focus"",""1"",""16493""
""fullscreenenter"",""1"",""16626""
","""event"",""trial"",""time""
""blur"",""0"",""0""
","""event"",""trial"",""time""
""focus"",""1"",""16493""
","""event"",""trial"",""time""
""fullscreenenter"",""1"",""16626""
","
",,1033.3,run_exp/static/images/task_images/land.jpg,65,,,,,,,27,,,5,,,,,,,,136317,1,1,FALSE,,,
dig,132,544265,0.0-42.0-0.0,"""event"",""trial"",""time""
""blur"",""0"",""0""
""focus"",""1"",""16493""
""fullscreenenter"",""1"",""16626""
","""event"",""trial"",""time""
""blur"",""0"",""0""
","""event"",""trial"",""time""
""focus"",""1"",""16493""
","""event"",""trial"",""time""
""fullscreenenter"",""1"",""16626""
","
",,,,,,,,,,,,"[{""stimulus"":""run_exp/static/images/task_images/dig.jpg"",""time"":0.40000009536743164},{""stimulus"":""run_exp/static/images/task_images/land.jpg"",""time"":664.3000001907349},{""stimulus"":""run_exp/static/images/task_images/dig.jpg"",""time"":1318.2000000476837}]",[],5,,,,,,,,,,,,,,
harvest,133,545281,0.0-42.0-1.0,"""event"",""trial"",""time""
""blur"",""0"",""0""
""focus"",""1"",""16493""
""fullscreenenter"",""1"",""16626""
","""event"",""trial"",""time""
""blur"",""0"",""0""
","""event"",""trial"",""time""
""focus"",""1"",""16493""
","""event"",""trial"",""time""
""fullscreenenter"",""1"",""16626""
","
",,null,run_exp/static/images/task_images/gems/27.jpg,null,,,,,,,14,,,5,,,,,27,0.522691079,0.518518519,,,,,,,
decision,134,545552,0.0-42.0-2.0,"""event"",""trial"",""time""
""blur"",""0"",""0""
""focus"",""1"",""16493""
""fullscreenenter"",""1"",""16626""
","""event"",""trial"",""time""
""blur"",""0"",""0""
","""event"",""trial"",""time""
""focus"",""1"",""16493""
","""event"",""trial"",""time""
""fullscreenenter"",""1"",""16626""
","
",,267.6999998,run_exp/static/images/task_images/land.jpg,65,,,,,,,14,,,5,,,,,,,,139583,1,2,FALSE,,,
dig,135,548299,0.0-43.0-0.0,"""event"",""trial"",""time""
""blur"",""0"",""0""
""focus"",""1"",""16493""
""fullscreenenter"",""1"",""16626""
","""event"",""trial"",""time""
""blur"",""0"",""0""
","""event"",""trial"",""time""
""focus"",""1"",""16493""
","""event"",""trial"",""time""
""fullscreenenter"",""1"",""16626""
","
",,,,,,,,,,,,"[{""stimulus"":""run_exp/static/images/task_images/dig.jpg"",""time"":0.3000001907348633},{""stimulus"":""run_exp/static/images/task_images/land.jpg"",""time"":922.4000000953674},{""stimulus"":""run_exp/static/images/task_images/dig.jpg"",""time"":1828.4000000953674}]",[],5,,,,,,,,,,,,,,
harvest,136,549312,0.0-43.0-1.0,"""event"",""trial"",""time""
""blur"",""0"",""0""
""focus"",""1"",""16493""
""fullscreenenter"",""1"",""16626""
","""event"",""trial"",""time""
""blur"",""0"",""0""
","""event"",""trial"",""time""
""focus"",""1"",""16493""
","""event"",""trial"",""time""
""fullscreenenter"",""1"",""16626""
","
",,null,run_exp/static/images/task_images/gems/14.jpg,null,,,,,,,7,,,5,,,,,14,0.496712038,0.5,,,,,,,
decision,137,551578,0.0-43.0-2.0,"""event"",""trial"",""time""
""blur"",""0"",""0""
""focus"",""1"",""16493""
""fullscreenenter"",""1"",""16626""
","""event"",""trial"",""time""
""blur"",""0"",""0""
","""event"",""trial"",""time""
""focus"",""1"",""16493""
","""event"",""trial"",""time""
""fullscreenenter"",""1"",""16626""
","
",,2261.8,run_exp/static/images/task_images/land.jpg,65,,,,,,,7,,,5,,,,,,,,145609,1,3,FALSE,,,
dig,138,552332,0.0-44.0-0.0,"""event"",""trial"",""time""
""blur"",""0"",""0""
""focus"",""1"",""16493""
""fullscreenenter"",""1"",""16626""
","""event"",""trial"",""time""
""blur"",""0"",""0""
","""event"",""trial"",""time""
""focus"",""1"",""16493""
","""event"",""trial"",""time""
""fullscreenenter"",""1"",""16626""
","
",,,,,,,,,,,,"[{""stimulus"":""run_exp/static/images/task_images/dig.jpg"",""time"":0.40000009536743164},{""stimulus"":""run_exp/static/images/task_images/land.jpg"",""time"":250.79999995231628},{""stimulus"":""run_exp/static/images/task_images/dig.jpg"",""time"":505.40000009536743}]",[],5,,,,,,,,,,,,,,
harvest,139,553345,0.0-44.0-1.0,"""event"",""trial"",""time""
""blur"",""0"",""0""
""focus"",""1"",""16493""
""fullscreenenter"",""1"",""16626""
","""event"",""trial"",""time""
""blur"",""0"",""0""
","""event"",""trial"",""time""
""focus"",""1"",""16493""
","""event"",""trial"",""time""
""fullscreenenter"",""1"",""16626""
","
",,null,run_exp/static/images/task_images/gems/7.jpg,null,,,,,,,3,,,5,,,,,7,0.438942483,0.428571429,,,,,,,
decision,140,553732,0.0-44.0-2.0,"""event"",""trial"",""time""
""blur"",""0"",""0""
""focus"",""1"",""16493""
""fullscreenenter"",""1"",""16626""
","""event"",""trial"",""time""
""blur"",""0"",""0""
","""event"",""trial"",""time""
""focus"",""1"",""16493""
","""event"",""trial"",""time""
""fullscreenenter"",""1"",""16626""
","
",,383.3,run_exp/static/images/task_images/land.jpg,76,,,,,,,3,,,5,,,,,,,,147763,1,4,TRUE,,,
travel,141,563353,0.0-45.0-0.0,"""event"",""trial"",""time""
""blur"",""0"",""0""
""focus"",""1"",""16493""
""fullscreenenter"",""1"",""16626""
","""event"",""trial"",""time""
""blur"",""0"",""0""
","""event"",""trial"",""time""
""focus"",""1"",""16493""
","""event"",""trial"",""time""
""fullscreenenter"",""1"",""16626""
","
",,,,,,,,,,,,"[{""stimulus"":""run_exp/static/images/task_images/rocket-01.jpg"",""time"":0.2999999523162842},{""stimulus"":""run_exp/static/images/task_images/rocket-02.jpg"",""time"":1072.5},{""stimulus"":""run_exp/static/images/task_images/rocket-03.jpg"",""time"":2146.7999999523163},{""stimulus"":""run_exp/static/images/task_images/rocket-04.jpg"",""time"":3216.0999999046326},{""stimulus"":""run_exp/static/images/task_images/rocket-05.jpg"",""time"":4281.5},{""stimulus"":""run_exp/static/images/task_images/rocket-06.jpg"",""time"":5353.099999904633},{""stimulus"":""run_exp/static/images/task_images/rocket-07.jpg"",""time"":6421.099999904633},{""stimulus"":""run_exp/static/images/task_images/rocket-08.jpg"",""time"":7481.799999952316},{""stimulus"":""run_exp/static/images/task_images/rocket-09.jpg"",""time"":8561.299999952316}]",[],5,,,,,,,,,,,,,,
alien_welcome,142,568380,0.0-45.0-1.0,"""event"",""trial"",""time""
""blur"",""0"",""0""
""focus"",""1"",""16493""
""fullscreenenter"",""1"",""16626""
","""event"",""trial"",""time""
""blur"",""0"",""0""
","""event"",""trial"",""time""
""focus"",""1"",""16493""
","""event"",""trial"",""time""
""fullscreenenter"",""1"",""16626""
","
",,null,run_exp/static/images/task_images/aliens/old_aliens/planet/alien_planet-28.jpg,null,,,,,,,,,,,,,28,"21,64,77,43,38,28,60,46,39,25,6,36,52,54,80,7,72,61,45,78,57,40,70,66,42,55,16,1,75,65",,,,,,,,,,
land,143,568887,0.0-45.0-2.0,"""event"",""trial"",""time""
""blur"",""0"",""0""
""focus"",""1"",""16493""
""fullscreenenter"",""1"",""16626""
","""event"",""trial"",""time""
""blur"",""0"",""0""
","""event"",""trial"",""time""
""focus"",""1"",""16493""
","""event"",""trial"",""time""
""fullscreenenter"",""1"",""16626""
","
",,null,run_exp/static/images/task_images/land.jpg,null,,,,,,,99,,,6,,,,,,,,,,,,,,
dig,144,570907,0.0-45.0-3.0,"""event"",""trial"",""time""
""blur"",""0"",""0""
""focus"",""1"",""16493""
""fullscreenenter"",""1"",""16626""
","""event"",""trial"",""time""
""blur"",""0"",""0""
","""event"",""trial"",""time""
""focus"",""1"",""16493""
","""event"",""trial"",""time""
""fullscreenenter"",""1"",""16626""
","
",,,,,,,,,,,,"[{""stimulus"":""run_exp/static/images/task_images/dig.jpg"",""time"":0.7999999523162842},{""stimulus"":""run_exp/static/images/task_images/land.jpg"",""time"":684.8999998569489},{""stimulus"":""run_exp/static/images/task_images/dig.jpg"",""time"":1341}]",[],6,,,,,,,,,,,,,,
harvest,145,571924,0.0-45.0-4.0,"""event"",""trial"",""time""
""blur"",""0"",""0""
""focus"",""1"",""16493""
""fullscreenenter"",""1"",""16626""
","""event"",""trial"",""time""
""blur"",""0"",""0""
","""event"",""trial"",""time""
""focus"",""1"",""16493""
","""event"",""trial"",""time""
""fullscreenenter"",""1"",""16626""
","
",,null,run_exp/static/images/task_images/gems/99.jpg,null,,,,,,,76,,,6,,,,,99,0.771843446,0.767676768,,,,,,,
decision,146,572112,0.0-45.0-5.0,"""event"",""trial"",""time""
""blur"",""0"",""0""
""focus"",""1"",""16493""
""fullscreenenter"",""1"",""16626""
","""event"",""trial"",""time""
""blur"",""0"",""0""
","""event"",""trial"",""time""
""focus"",""1"",""16493""
","""event"",""trial"",""time""
""fullscreenenter"",""1"",""16626""
","
",,184.3,run_exp/static/images/task_images/land.jpg,65,,,,,,,76,,,6,,,,,,,,166143,1,0,FALSE,,,
dig,147,574936,0.0-46.0-0.0,"""event"",""trial"",""time""
""blur"",""0"",""0""
""focus"",""1"",""16493""
""fullscreenenter"",""1"",""16626""
","""event"",""trial"",""time""
""blur"",""0"",""0""
","""event"",""trial"",""time""
""focus"",""1"",""16493""
","""event"",""trial"",""time""
""fullscreenenter"",""1"",""16626""
","
",,,,,,,,,,,,"[{""stimulus"":""run_exp/static/images/task_images/dig.jpg"",""time"":0.19999980926513672},{""stimulus"":""run_exp/static/images/task_images/land.jpg"",""time"":950.1999998092651},{""stimulus"":""run_exp/static/images/task_images/dig.jpg"",""time"":1889.0999999046326}]",[],6,,,,,,,,,,,,,,
harvest,148,575946,0.0-46.0-1.0,"""event"",""trial"",""time""
""blur"",""0"",""0""
""focus"",""1"",""16493""
""fullscreenenter"",""1"",""16626""
","""event"",""trial"",""time""
""blur"",""0"",""0""
","""event"",""trial"",""time""
""focus"",""1"",""16493""
","""event"",""trial"",""time""
""fullscreenenter"",""1"",""16626""
","
",,null,run_exp/static/images/task_images/gems/76.jpg,null,,,,,,,60,,,6,,,,,76,0.79508871,0.789473684,,,,,,,
decision,149,577124,0.0-46.0-2.0,"""event"",""trial"",""time""
""blur"",""0"",""0""
""focus"",""1"",""16493""
""fullscreenenter"",""1"",""16626""
","""event"",""trial"",""time""
""blur"",""0"",""0""
","""event"",""trial"",""time""
""focus"",""1"",""16493""
","""event"",""trial"",""time""
""fullscreenenter"",""1"",""16626""
","
",,1174.7,run_exp/static/images/task_images/land.jpg,65,,,,,,,60,,,6,,,,,,,,171155,1,1,FALSE,,,
dig,150,578957,0.0-47.0-0.0,"""event"",""trial"",""time""
""blur"",""0"",""0""
""focus"",""1"",""16493""
""fullscreenenter"",""1"",""16626""
","""event"",""trial"",""time""
""blur"",""0"",""0""
","""event"",""trial"",""time""
""focus"",""1"",""16493""
","""event"",""trial"",""time""
""fullscreenenter"",""1"",""16626""
","
",,,,,,,,,,,,"[{""stimulus"":""run_exp/static/images/task_images/dig.jpg"",""time"":0.2999999523162842},{""stimulus"":""run_exp/static/images/task_images/land.jpg"",""time"":612.1000001430511},{""stimulus"":""run_exp/static/images/task_images/dig.jpg"",""time"":1218}]",[],6,,,,,,,,,,,,,,
harvest,151,579972,0.0-47.0-1.0,"""event"",""trial"",""time""
""blur"",""0"",""0""
""focus"",""1"",""16493""
""fullscreenenter"",""1"",""16626""
","""event"",""trial"",""time""
""blur"",""0"",""0""
","""event"",""trial"",""time""
""focus"",""1"",""16493""
","""event"",""trial"",""time""
""fullscreenenter"",""1"",""16626""
","
",,null,run_exp/static/images/task_images/gems/60.jpg,null,,,,,,,44,,,6,,,,,60,0.729040259,0.733333333,,,,,,,
decision,152,580268,0.0-47.0-2.0,"""event"",""trial"",""time""
""blur"",""0"",""0""
""focus"",""1"",""16493""
""fullscreenenter"",""1"",""16626""
","""event"",""trial"",""time""
""blur"",""0"",""0""
","""event"",""trial"",""time""
""focus"",""1"",""16493""
","""event"",""trial"",""time""
""fullscreenenter"",""1"",""16626""
","
",,292.6999998,run_exp/static/images/task_images/land.jpg,65,,,,,,,44,,,6,,,,,,,,174299,1,2,FALSE,,,
dig,153,582982,0.0-48.0-0.0,"""event"",""trial"",""time""
""blur"",""0"",""0""
""focus"",""1"",""16493""
""fullscreenenter"",""1"",""16626""
","""event"",""trial"",""time""
""blur"",""0"",""0""
","""event"",""trial"",""time""
""focus"",""1"",""16493""
","""event"",""trial"",""time""
""fullscreenenter"",""1"",""16626""
","
",,,,,,,,,,,,"[{""stimulus"":""run_exp/static/images/task_images/dig.jpg"",""time"":0.09999990463256836},{""stimulus"":""run_exp/static/images/task_images/land.jpg"",""time"":918.7000000476837},{""stimulus"":""run_exp/static/images/task_images/dig.jpg"",""time"":1810.9000000953674}]",[],6,,,,,,,,,,,,,,
harvest,154,583988,0.0-48.0-1.0,"""event"",""trial"",""time""
""blur"",""0"",""0""
""focus"",""1"",""16493""
""fullscreenenter"",""1"",""16626""
","""event"",""trial"",""time""
""blur"",""0"",""0""
","""event"",""trial"",""time""
""focus"",""1"",""16493""
","""event"",""trial"",""time""
""fullscreenenter"",""1"",""16626""
","
",,null,run_exp/static/images/task_images/gems/44.jpg,null,,,,,,,38,,,6,,,,,44,0.871051271,0.863636364,,,,,,,
decision,155,584222,0.0-48.0-2.0,"""event"",""trial"",""time""
""blur"",""0"",""0""
""focus"",""1"",""16493""
""fullscreenenter"",""1"",""16626""
","""event"",""trial"",""time""
""blur"",""0"",""0""
","""event"",""trial"",""time""
""focus"",""1"",""16493""
","""event"",""trial"",""time""
""fullscreenenter"",""1"",""16626""
","
",,231.0999999,run_exp/static/images/task_images/land.jpg,65,,,,,,,38,,,6,,,,,,,,178254,1,3,FALSE,,,
dig,156,587000,0.0-49.0-0.0,"""event"",""trial"",""time""
""blur"",""0"",""0""
""focus"",""1"",""16493""
""fullscreenenter"",""1"",""16626""
","""event"",""trial"",""time""
""blur"",""0"",""0""
","""event"",""trial"",""time""
""focus"",""1"",""16493""
","""event"",""trial"",""time""
""fullscreenenter"",""1"",""16626""
","
",,,,,,,,,,,,"[{""stimulus"":""run_exp/static/images/task_images/dig.jpg"",""time"":0.20000004768371582},{""stimulus"":""run_exp/static/images/task_images/land.jpg"",""time"":928.0999999046326},{""stimulus"":""run_exp/static/images/task_images/dig.jpg"",""time"":1857.0999999046326}]",[],6,,,,,,,,,,,,,,
harvest,157,588010,0.0-49.0-1.0,"""event"",""trial"",""time""
""blur"",""0"",""0""
""focus"",""1"",""16493""
""fullscreenenter"",""1"",""16626""
","""event"",""trial"",""time""
""blur"",""0"",""0""
","""event"",""trial"",""time""
""focus"",""1"",""16493""
","""event"",""trial"",""time""
""fullscreenenter"",""1"",""16626""
","
",,null,run_exp/static/images/task_images/gems/38.jpg,null,,,,,,,31,,,6,,,,,38,0.823261267,0.815789474,,,,,,,
decision,158,588229,0.0-49.0-2.0,"""event"",""trial"",""time""
""blur"",""0"",""0""
""focus"",""1"",""16493""
""fullscreenenter"",""1"",""16626""
","""event"",""trial"",""time""
""blur"",""0"",""0""
","""event"",""trial"",""time""
""focus"",""1"",""16493""
","""event"",""trial"",""time""
""fullscreenenter"",""1"",""16626""
","
",,217.4000001,run_exp/static/images/task_images/land.jpg,65,,,,,,,31,,,6,,,,,,,,182260,1,4,FALSE,,,
dig,159,591030,0.0-50.0-0.0,"""event"",""trial"",""time""
""blur"",""0"",""0""
""focus"",""1"",""16493""
""fullscreenenter"",""1"",""16626""
","""event"",""trial"",""time""
""blur"",""0"",""0""
","""event"",""trial"",""time""
""focus"",""1"",""16493""
","""event"",""trial"",""time""
""fullscreenenter"",""1"",""16626""
","
",,,,,,,,,,,,"[{""stimulus"":""run_exp/static/images/task_images/dig.jpg"",""time"":0.39999985694885254},{""stimulus"":""run_exp/static/images/task_images/land.jpg"",""time"":940.6999998092651},{""stimulus"":""run_exp/static/images/task_images/dig.jpg"",""time"":1861.2999999523163}]",[],6,,,,,,,,,,,,,,
harvest,160,592042,0.0-50.0-1.0,"""event"",""trial"",""time""
""blur"",""0"",""0""
""focus"",""1"",""16493""
""fullscreenenter"",""1"",""16626""
","""event"",""trial"",""time""
""blur"",""0"",""0""
","""event"",""trial"",""time""
""focus"",""1"",""16493""
","""event"",""trial"",""time""
""fullscreenenter"",""1"",""16626""
","
",,null,run_exp/static/images/task_images/gems/31.jpg,null,,,,,,,24,,,6,,,,,31,0.759190493,0.774193548,,,,,,,
decision,161,592506,0.0-50.0-2.0,"""event"",""trial"",""time""
""blur"",""0"",""0""
""focus"",""1"",""16493""
""fullscreenenter"",""1"",""16626""
","""event"",""trial"",""time""
""blur"",""0"",""0""
","""event"",""trial"",""time""
""focus"",""1"",""16493""
","""event"",""trial"",""time""
""fullscreenenter"",""1"",""16626""
","
",,461.5,run_exp/static/images/task_images/land.jpg,65,,,,,,,24,,,6,,,,,,,,186537,1,5,FALSE,,,
dig,162,595061,0.0-51.0-0.0,"""event"",""trial"",""time""
""blur"",""0"",""0""
""focus"",""1"",""16493""
""fullscreenenter"",""1"",""16626""
","""event"",""trial"",""time""
""blur"",""0"",""0""
","""event"",""trial"",""time""
""focus"",""1"",""16493""
","""event"",""trial"",""time""
""fullscreenenter"",""1"",""16626""
","
",,,,,,,,,,,,"[{""stimulus"":""run_exp/static/images/task_images/dig.jpg"",""time"":0.3000001907348633},{""stimulus"":""run_exp/static/images/task_images/land.jpg"",""time"":857.5},{""stimulus"":""run_exp/static/images/task_images/dig.jpg"",""time"":1704.4000000953674}]",[],6,,,,,,,,,,,,,,
harvest,163,596069,0.0-51.0-1.0,"""event"",""trial"",""time""
""blur"",""0"",""0""
""focus"",""1"",""16493""
""fullscreenenter"",""1"",""16626""
","""event"",""trial"",""time""
""blur"",""0"",""0""
","""event"",""trial"",""time""
""focus"",""1"",""16493""
","""event"",""trial"",""time""
""fullscreenenter"",""1"",""16626""
","
",,null,run_exp/static/images/task_images/gems/24.jpg,null,,,,,,,20,,,6,,,,,24,0.831828423,0.833333333,,,,,,,
decision,164,597589,0.0-51.0-2.0,"""event"",""trial"",""time""
""blur"",""0"",""0""
""focus"",""1"",""16493""
""fullscreenenter"",""1"",""16626""
","""event"",""trial"",""time""
""blur"",""0"",""0""
","""event"",""trial"",""time""
""focus"",""1"",""16493""
","""event"",""trial"",""time""
""fullscreenenter"",""1"",""16626""
","
",,1511.2,run_exp/static/images/task_images/land.jpg,65,,,,,,,20,,,6,,,,,,,,191620,1,6,FALSE,,,
dig,165,599087,0.0-52.0-0.0,"""event"",""trial"",""time""
""blur"",""0"",""0""
""focus"",""1"",""16493""
""fullscreenenter"",""1"",""16626""
","""event"",""trial"",""time""
""blur"",""0"",""0""
","""event"",""trial"",""time""
""focus"",""1"",""16493""
","""event"",""trial"",""time""
""fullscreenenter"",""1"",""16626""
","
",,,,,,,,,,,,"[{""stimulus"":""run_exp/static/images/task_images/dig.jpg"",""time"":0.40000009536743164},{""stimulus"":""run_exp/static/images/task_images/land.jpg"",""time"":506.60000014305115},{""stimulus"":""run_exp/static/images/task_images/dig.jpg"",""time"":1002}]",[],6,,,,,,,,,,,,,,
harvest,166,600099,0.0-52.0-1.0,"""event"",""trial"",""time""
""blur"",""0"",""0""
""focus"",""1"",""16493""
""fullscreenenter"",""1"",""16626""
","""event"",""trial"",""time""
""blur"",""0"",""0""
","""event"",""trial"",""time""
""focus"",""1"",""16493""
","""event"",""trial"",""time""
""fullscreenenter"",""1"",""16626""
","
",,null,run_exp/static/images/task_images/gems/20.jpg,null,,,,,,,16,,,6,,,,,20,0.78849911,0.8,,,,,,,
decision,167,600649,0.0-52.0-2.0,"""event"",""trial"",""time""
""blur"",""0"",""0""
""focus"",""1"",""16493""
""fullscreenenter"",""1"",""16626""
","""event"",""trial"",""time""
""blur"",""0"",""0""
","""event"",""trial"",""time""
""focus"",""1"",""16493""
","""event"",""trial"",""time""
""fullscreenenter"",""1"",""16626""
","
",,546.2,run_exp/static/images/task_images/land.jpg,65,,,,,,,16,,,6,,,,,,,,194680,1,7,FALSE,,,
dig,168,603115,0.0-53.0-0.0,"""event"",""trial"",""time""
""blur"",""0"",""0""
""focus"",""1"",""16493""
""fullscreenenter"",""1"",""16626""
","""event"",""trial"",""time""
""blur"",""0"",""0""
","""event"",""trial"",""time""
""focus"",""1"",""16493""
","""event"",""trial"",""time""
""fullscreenenter"",""1"",""16626""
","
",,,,,,,,,,,,"[{""stimulus"":""run_exp/static/images/task_images/dig.jpg"",""time"":0.39999985694885254},{""stimulus"":""run_exp/static/images/task_images/land.jpg"",""time"":834.0999999046326},{""stimulus"":""run_exp/static/images/task_images/dig.jpg"",""time"":1646.5}]",[],6,,,,,,,,,,,,,,
harvest,169,604130,0.0-53.0-1.0,"""event"",""trial"",""time""
""blur"",""0"",""0""
""focus"",""1"",""16493""
""fullscreenenter"",""1"",""16626""
","""event"",""trial"",""time""
""blur"",""0"",""0""
","""event"",""trial"",""time""
""focus"",""1"",""16493""
","""event"",""trial"",""time""
""fullscreenenter"",""1"",""16626""
","
",,null,run_exp/static/images/task_images/gems/16.jpg,null,,,,,,,13,,,6,,,,,16,0.79587719,0.8125,,,,,,,
decision,170,604268,0.0-53.0-2.0,"""event"",""trial"",""time""
""blur"",""0"",""0""
""focus"",""1"",""16493""
""fullscreenenter"",""1"",""16626""
","""event"",""trial"",""time""
""blur"",""0"",""0""
","""event"",""trial"",""time""
""focus"",""1"",""16493""
","""event"",""trial"",""time""
""fullscreenenter"",""1"",""16626""
","
",,134.6000001,run_exp/static/images/task_images/land.jpg,65,,,,,,,13,,,6,,,,,,,,198299,1,8,FALSE,,,
dig,171,607163,0.0-54.0-0.0,"""event"",""trial"",""time""
""blur"",""0"",""0""
""focus"",""1"",""16493""
""fullscreenenter"",""1"",""16626""
","""event"",""trial"",""time""
""blur"",""0"",""0""
","""event"",""trial"",""time""
""focus"",""1"",""16493""
","""event"",""trial"",""time""
""fullscreenenter"",""1"",""16626""
","
",,,,,,,,,,,,"[{""stimulus"":""run_exp/static/images/task_images/dig.jpg"",""time"":0.20000004768371582},{""stimulus"":""run_exp/static/images/task_images/land.jpg"",""time"":959.3999998569489},{""stimulus"":""run_exp/static/images/task_images/dig.jpg"",""time"":1917.5}]",[],6,,,,,,,,,,,,,,
harvest,172,608168,0.0-54.0-1.0,"""event"",""trial"",""time""
""blur"",""0"",""0""
""focus"",""1"",""16493""
""fullscreenenter"",""1"",""16626""
","""event"",""trial"",""time""
""blur"",""0"",""0""
","""event"",""trial"",""time""
""focus"",""1"",""16493""
","""event"",""trial"",""time""
""fullscreenenter"",""1"",""16626""
","
",,null,run_exp/static/images/task_images/gems/13.jpg,null,,,,,,,11,,,6,,,,,13,0.855120443,0.846153846,,,,,,,
decision,173,608812,0.0-54.0-2.0,"""event"",""trial"",""time""
""blur"",""0"",""0""
""focus"",""1"",""16493""
""fullscreenenter"",""1"",""16626""
","""event"",""trial"",""time""
""blur"",""0"",""0""
","""event"",""trial"",""time""
""focus"",""1"",""16493""
","""event"",""trial"",""time""
""fullscreenenter"",""1"",""16626""
","
",,640.3,run_exp/static/images/task_images/land.jpg,65,,,,,,,11,,,6,,,,,,,,202843,1,9,FALSE,,,
dig,174,611180,0.0-55.0-0.0,"""event"",""trial"",""time""
""blur"",""0"",""0""
""focus"",""1"",""16493""
""fullscreenenter"",""1"",""16626""
","""event"",""trial"",""time""
""blur"",""0"",""0""
","""event"",""trial"",""time""
""focus"",""1"",""16493""
","""event"",""trial"",""time""
""fullscreenenter"",""1"",""16626""
","
",,,,,,,,,,,,"[{""stimulus"":""run_exp/static/images/task_images/dig.jpg"",""time"":0.20000004768371582},{""stimulus"":""run_exp/static/images/task_images/land.jpg"",""time"":790},{""stimulus"":""run_exp/static/images/task_images/dig.jpg"",""time"":1590}]",[],6,,,,,,,,,,,,,,
harvest,175,612188,0.0-55.0-1.0,"""event"",""trial"",""time""
""blur"",""0"",""0""
""focus"",""1"",""16493""
""fullscreenenter"",""1"",""16626""
","""event"",""trial"",""time""
""blur"",""0"",""0""
","""event"",""trial"",""time""
""focus"",""1"",""16493""
","""event"",""trial"",""time""
""fullscreenenter"",""1"",""16626""
","
",,null,run_exp/static/images/task_images/gems/11.jpg,null,,,,,,,9,,,6,,,,,11,0.805655116,0.818181818,,,,,,,
decision,176,612418,0.0-55.0-2.0,"""event"",""trial"",""time""
""blur"",""0"",""0""
""focus"",""1"",""16493""
""fullscreenenter"",""1"",""16626""
","""event"",""trial"",""time""
""blur"",""0"",""0""
","""event"",""trial"",""time""
""focus"",""1"",""16493""
","""event"",""trial"",""time""
""fullscreenenter"",""1"",""16626""
","
