trial_type,trial_index,time_elapsed,internal_node_id,interactions,blur_events,focus_events,fullscreenenter_events,fullscreenexit_events,success,rt,stimulus,key_press,prompt,subject_id,participant_id,age,gender,button_pressed,next_reward,animation_sequence,responses,planet,curr_prac_trial,n_prac_rounds,alien,aliens,reward_received,decay_rate_actual,decay_rate_exp,time_in_block,block_num,prt,last_trial_on_planet,button_html,bonus,num_failures
pavlovia,0,2,0.0-0.0,"""event"",""trial"",""time""
""fullscreenenter"",""1"",""126639""
","
","
","""event"",""trial"",""time""
""fullscreenenter"",""1"",""126639""
","
",,,,,,,,,,,,,,,,,,,,,,,,,,,,
fullscreen,1,127625,0.0-1.0,"""event"",""trial"",""time""
""fullscreenenter"",""1"",""126639""
","
","
","""event"",""trial"",""time""
""fullscreenenter"",""1"",""126639""
","
",TRUE,,,,,,,,,,,,,,,,,,,,,,,,,,,
instruc_welcome,2,137335,0.0-2.0,"""event"",""trial"",""time""
""fullscreenenter"",""1"",""126639""
""fullscreenexit"",""3"",""146828""
","
","
","""event"",""trial"",""time""
""fullscreenenter"",""1"",""126639""
","""event"",""trial"",""time""
""fullscreenexit"",""3"",""146828""
",,null,run_exp/static/audio/clip_1_welcome.m4a,null,"<p>Howdy! In this experiment, you’ll be an explorer traveling through space to collect space treasure.</p><p>Your mission is to collect as much treasure as possible.</p><br><br><p><img src='run_exp/static/images/task_images/opening_img-01.jpg' height='300' width='auto'></p>",8521,3874,17.54,Male,,,,,,,,,,,,,,,,,,,
audio-keyboard-response,3,153898,0.0-3.0,"""event"",""trial"",""time""
""fullscreenenter"",""1"",""126639""
""fullscreenexit"",""3"",""146828""
","
","
","""event"",""trial"",""time""
""fullscreenenter"",""1"",""126639""
","""event"",""trial"",""time""
""fullscreenexit"",""3"",""146828""
",,null,run_exp/static/audio/clip_2_move.m4a,null,,,,,,,,,,,,,,,,,,,,,,,,
welcome_dec,4,156771,0.0-4.0,"""event"",""trial"",""time""
""fullscreenenter"",""1"",""126639""
""fullscreenexit"",""3"",""146828""
","
","
","""event"",""trial"",""time""
""fullscreenenter"",""1"",""126639""
","""event"",""trial"",""time""
""fullscreenexit"",""3"",""146828""
",,2871.3,"<p>Howdy! In this experiment, you’ll be an explorer traveling through space to collect space treasure.</p><p>Your mission is to collect as much treasure as possible.</p><br><br><p><img src='run_exp/static/images/task_images/opening_img-01.jpg' height='300' width='auto'></p>",,,,,,,0,,,,,,,,,,,,,,,,,,
html-keyboard-response,5,158785,0.0-5.0,"""event"",""trial"",""time""
""fullscreenenter"",""1"",""126639""
""fullscreenexit"",""3"",""146828""
","
","
","""event"",""trial"",""time""
""fullscreenenter"",""1"",""126639""
","""event"",""trial"",""time""
""fullscreenexit"",""3"",""146828""
",,2012.8,"<p>Howdy! In this experiment, you’ll be an explorer traveling through space to collect space treasure.</p><p>Your mission is to collect as much treasure as possible.</p><br><br><p><img src='run_exp/static/images/task_images/opening_img-01.jpg' height='300' width='auto'></p><button class=""jspsych-html-btn-chosen""><img src=""run_exp/static/images/task_images/planet-01.jpg"" height=""50""></button><button class=""jspsych-html-btn-unchosen""><img src=""run_exp/static/images/task_images/planet-02.jpg"" height=""50""></button><p><b>[press the space bar to lock in your answer]<b><br></p>",32,,,,,,,,,,,,,,,,,,,,,,,,
instruc_welcome,6,168518,0.0-6.0-0.0,"""event"",""trial"",""time""
""fullscreenenter"",""1"",""126639""
""fullscreenexit"",""3"",""146828""
","
","
","""event"",""trial"",""time""
""fullscreenenter"",""1"",""126639""
","""event"",""trial"",""time""
""fullscreenexit"",""3"",""146828""
",,null,run_exp/static/audio/clip_1_welcome.m4a,null,"<p>Howdy! In this experiment, you’ll be an explorer traveling through space to collect space treasure.</p><p>Your mission is to collect as much treasure as possible.</p><br><br><p><img src='run_exp/static/images/task_images/opening_img-01.jpg' height='300' width='auto'></p>",8521,3874,17,Male,,,,,,,,,,,,,,,,,,,
audio-keyboard-response,7,185098,0.0-6.0-1.0,"""event"",""trial"",""time""
""fullscreenenter"",""1"",""126639""
""fullscreenexit"",""3"",""146828""
","
","
","""event"",""trial"",""time""
""fullscreenenter"",""1"",""126639""
","""event"",""trial"",""time""
""fullscreenexit"",""3"",""146828""
",,null,run_exp/static/audio/clip_2_move.m4a,null,,,,,,,,,,,,,,,,,,,,,,,,
welcome_dec,8,186901,0.0-6.0-2.0,"""event"",""trial"",""time""
""fullscreenenter"",""1"",""126639""
""fullscreenexit"",""3"",""146828""
","
","
","""event"",""trial"",""time""
""fullscreenenter"",""1"",""126639""
","""event"",""trial"",""time""
""fullscreenexit"",""3"",""146828""
",,1801.5,"<p>Howdy! In this experiment, you’ll be an explorer traveling through space to collect space treasure.</p><p>Your mission is to collect as much treasure as possible.</p><br><br><p><img src='run_exp/static/images/task_images/opening_img-01.jpg' height='300' width='auto'></p>",,,,,,,1,,,,,,,,,,,,,,,,,,
html-keyboard-response,9,187413,0.0-6.0-3.0,"""event"",""trial"",""time""
""fullscreenenter"",""1"",""126639""
""fullscreenexit"",""3"",""146828""
","
","
","""event"",""trial"",""time""
""fullscreenenter"",""1"",""126639""
","""event"",""trial"",""time""
""fullscreenexit"",""3"",""146828""
",,512.2,"<p>Howdy! In this experiment, you’ll be an explorer traveling through space to collect space treasure.</p><p>Your mission is to collect as much treasure as possible.</p><br><br><p><img src='run_exp/static/images/task_images/opening_img-01.jpg' height='300' width='auto'></p><button class=""jspsych-html-btn-unchosen""><img src=""run_exp/static/images/task_images/planet-01.jpg"" height=""50""></button><button class=""jspsych-html-btn-chosen""><img src=""run_exp/static/images/task_images/planet-02.jpg"" height=""50""></button><p><b>[press the space bar to lock in your answer]<b><br></p>",32,,,,,,,,,,,,,,,,,,,,,,,,
instruc_goal,10,197478,0.0-7.0-0.0,"""event"",""trial"",""time""
""fullscreenenter"",""1"",""126639""
""fullscreenexit"",""3"",""146828""
","
","
","""event"",""trial"",""time""
""fullscreenenter"",""1"",""126639""
","""event"",""trial"",""time""
""fullscreenexit"",""3"",""146828""
",,null,run_exp/static/audio/clip_3_goal.m4a,null,"<p> As a space explorer, you’ll visit different planets to dig for space treasure, these pink gems.</p> <p> The more treasure you dig up, the more bonus money you’ll win! </p><br><br><p><img src='run_exp/static/images/task_images/pink_gem.jpg' height='300' width='auto'></p>",,,,,,,,,,,,,,,,,,,,,,,
instruc_goal,11,228661,0.0-7.0-1.0,"""event"",""trial"",""time""
""fullscreenenter"",""1"",""126639""
""fullscreenexit"",""3"",""146828""
","
","
","""event"",""trial"",""time""
""fullscreenenter"",""1"",""126639""
","""event"",""trial"",""time""
""fullscreenexit"",""3"",""146828""
",,31181.9,"<p> As a space explorer, you’ll visit different planets to dig for space treasure, these pink gems.</p> <p> The more treasure you dig up, the more bonus money you’ll win! </p><br><br><p><img src='run_exp/static/images/task_images/pink_gem.jpg' height='300' width='auto'></p>",,,,,,,1,,,,,,,,,,,,,,,,,,
html-keyboard-response,12,229182,0.0-7.0-2.0,"""event"",""trial"",""time""
""fullscreenenter"",""1"",""126639""
""fullscreenexit"",""3"",""146828""
","
","
","""event"",""trial"",""time""
""fullscreenenter"",""1"",""126639""
","""event"",""trial"",""time""
""fullscreenexit"",""3"",""146828""
",,520.3,"<p> As a space explorer, you’ll visit different planets to dig for space treasure, these pink gems.</p> <p> The more treasure you dig up, the more bonus money you’ll win! </p><br><br><p><img src='run_exp/static/images/task_images/pink_gem.jpg' height='300' width='auto'></p><button class=""jspsych-html-btn-unchosen""><img src=""run_exp/static/images/task_images/planet-01.jpg"" height=""50""></button><button class=""jspsych-html-btn-chosen""><img src=""run_exp/static/images/task_images/planet-02.jpg"" height=""50""></button><p><b>[press the space bar to lock in your answer]<b><br></p>",32,,,,,,,,,,,,,,,,,,,,,,,,
instruc_dig,13,245162,0.0-8.0-0.0,"""event"",""trial"",""time""
""fullscreenenter"",""1"",""126639""
""fullscreenexit"",""3"",""146828""
","
","
","""event"",""trial"",""time""
""fullscreenenter"",""1"",""126639""
","""event"",""trial"",""time""
""fullscreenexit"",""3"",""146828""
",,null,run_exp/static/audio/clip_4_dig.m4a,null,,,,,,,100,,,,,,,,,,,,,,,,,
instruc_dig_try,14,245429,0.0-8.0-1.0,"""event"",""trial"",""time""
""fullscreenenter"",""1"",""126639""
""fullscreenexit"",""3"",""146828""
","
","
","""event"",""trial"",""time""
""fullscreenenter"",""1"",""126639""
","""event"",""trial"",""time""
""fullscreenexit"",""3"",""146828""
",,266.6999999,"<p> When you’ve arrived at a new planet, you will dig once. </p> <p>Then, you get to decide if you want to stay on the planet and dig again or travel to a new planet and dig there.</p> <p> To stay and dig, press the letter <strong>‘A’</strong> on your keyboard. Try pressing it now! </p><p><img src='run_exp/static/images/task_images/land.jpg'  height='700' width='auto'></p>",65,"<p> When you’ve arrived at a new planet, you will dig once. </p> <p>Then, you get to decide if you want to stay on the planet and dig again or travel to a new planet and dig there.</p> <p> To stay and dig, press the letter <strong>‘A’</strong> on your keyboard. Try pressing it now! </p><p><img src='run_exp/static/images/task_images/land.jpg'  height='700' width='auto'></p>",,,,,,100,,,,,,,,,,,,,,,,,
dig_prac,15,247446,0.0-8.0-2.0,"""event"",""trial"",""time""
""fullscreenenter"",""1"",""126639""
""fullscreenexit"",""3"",""146828""
","
","
","""event"",""trial"",""time""
""fullscreenenter"",""1"",""126639""
","""event"",""trial"",""time""
""fullscreenexit"",""3"",""146828""
",,,,,,,,,,,,"[{""stimulus"":""run_exp/static/images/task_images/dig.jpg"",""time"":0.19999992847442627},{""stimulus"":""run_exp/static/images/task_images/land.jpg"",""time"":682.7999999523163},{""stimulus"":""run_exp/static/images/task_images/dig.jpg"",""time"":1342}]",[],,,,,,,,,,,,,,,
instruc_travel,16,283682,0.0-8.0-3.0,"""event"",""trial"",""time""
""fullscreenenter"",""1"",""126639""
""fullscreenexit"",""3"",""146828""
","
","
","""event"",""trial"",""time""
""fullscreenenter"",""1"",""126639""
","""event"",""trial"",""time""
""fullscreenexit"",""3"",""146828""
",,null,run_exp/static/audio/clip_5_travel.m4a,null,"<p>Every time you dig up gems, there are less gems on the planet, so the more you dig on a planet the fewer gems you’ll get with each dig.</p><p>When gems are running low, you may want to travel to a new planet. </p> <p>  Planets are very far apart in this galaxy, so it will take some time to travel between them. </p> <br><p>There are lots and lots of planets for you to visit, so you won’t be able to return to any planets you’ve seen before. </p><br><p>To leave this planet and travel to a new one, press the letter <strong>‘L’</strong> on your keyboard. Try pressing it now! </p><p><img src='run_exp/static/images/task_images/rocket-01.jpg'  height='600' width='auto'></p>",,,,,,,,,,,,,,,,,,,,,,,
instruc_travel_try,17,286247,0.0-8.0-4.0,"""event"",""trial"",""time""
""fullscreenenter"",""1"",""126639""
""fullscreenexit"",""3"",""146828""
","
","
","""event"",""trial"",""time""
""fullscreenenter"",""1"",""126639""
","""event"",""trial"",""time""
""fullscreenexit"",""3"",""146828""
",,2564.6,"<p>Every time you dig up gems, there are less gems on the planet, so the more you dig on a planet the fewer gems you’ll get with each dig.</p><p>When gems are running low, you may want to travel to a new planet. </p> <p>  Planets are very far apart in this galaxy, so it will take some time to travel between them. </p> <br><p>There are lots and lots of planets for you to visit, so you won’t be able to return to any planets you’ve seen before. </p><br><p>To leave this planet and travel to a new one, press the letter <strong>‘L’</strong> on your keyboard. Try pressing it now! </p><p><img src='run_exp/static/images/task_images/rocket-01.jpg'  height='600' width='auto'></p>",76,"<p>Every time you dig up gems, there are less gems on the planet, so the more you dig on a planet the fewer gems you’ll get with each dig.</p><p>When gems are running low, you may want to travel to a new planet. </p> <p>  Planets are very far apart in this galaxy, so it will take some time to travel between them. </p> <br><p>There are lots and lots of planets for you to visit, so you won’t be able to return to any planets you’ve seen before. </p><br><p>To leave this planet and travel to a new one, press the letter <strong>‘L’</strong> on your keyboard. Try pressing it now! </p><p><img src='run_exp/static/images/task_images/rocket-01.jpg'  height='600' width='auto'></p>",,,,,,,,,,,,,,,,,,,,,,,
travel_prac,18,296253,0.0-8.0-5.0,"""event"",""trial"",""time""
""fullscreenenter"",""1"",""126639""
""fullscreenexit"",""3"",""146828""
","
","
","""event"",""trial"",""time""
""fullscreenenter"",""1"",""126639""
","""event"",""trial"",""time""
""fullscreenexit"",""3"",""146828""
",,,,,,,,,,,,"[{""stimulus"":""run_exp/static/images/task_images/rocket-01.jpg"",""time"":0.10000002384185791},{""stimulus"":""run_exp/static/images/task_images/rocket-02.jpg"",""time"":1116.8000000715256},{""stimulus"":""run_exp/static/images/task_images/rocket-03.jpg"",""time"":2236.7000000476837},{""stimulus"":""run_exp/static/images/task_images/rocket-04.jpg"",""time"":3340.4000000953674},{""stimulus"":""run_exp/static/images/task_images/rocket-05.jpg"",""time"":4453.5},{""stimulus"":""run_exp/static/images/task_images/rocket-06.jpg"",""time"":5571},{""stimulus"":""run_exp/static/images/task_images/rocket-07.jpg"",""time"":6674.700000047684},{""stimulus"":""run_exp/static/images/task_images/rocket-08.jpg"",""time"":7789.700000047684},{""stimulus"":""run_exp/static/images/task_images/rocket-09.jpg"",""time"":8900.900000095367}]",[],0,,,,,,,,,,,,,,
instruc_alien_greet,19,323422,0.0-8.0-6.0,"""event"",""trial"",""time""
""fullscreenenter"",""1"",""126639""
""fullscreenexit"",""3"",""146828""
","
","
","""event"",""trial"",""time""
""fullscreenenter"",""1"",""126639""
","""event"",""trial"",""time""
""fullscreenexit"",""3"",""146828""
",,null,run_exp/static/audio/clip_6_alien.m4a,null,"<p>When you arrive at a new planet, the alien who owns the treasure mine on that planet will greet you!</p><p>The better an alien takes care of their mine the easier it is to dig for gems. Some aliens take better care of their mine than others. So, you won’t get exactly the same amount of gems on each planet.</p><p>What the alien looks like does not tell you anything about how many gems there are on the planet.</p><br><p><img src=""run_exp/static/images/task_images/aliens/instructions_aliens/planet/alien_planet-1.jpg""  height=""600"" width=""auto""></p>",,,,,,,,,,,,,,,,,,,,,,,
instruc_alien_greet,20,324402,0.0-8.0-7.0,"""event"",""trial"",""time""
""fullscreenenter"",""1"",""126639""
""fullscreenexit"",""3"",""146828""
","
","
","""event"",""trial"",""time""
""fullscreenenter"",""1"",""126639""
","""event"",""trial"",""time""
""fullscreenexit"",""3"",""146828""
",,979,"<p>When you arrive at a new planet, the alien who owns the treasure mine on that planet will greet you!</p><p>The better an alien takes care of their mine the easier it is to dig for gems. Some aliens take better care of their mine than others. So, you won’t get exactly the same amount of gems on each planet.</p><p>What the alien looks like does not tell you anything about how many gems there are on the planet.</p><br><p><img src=""run_exp/static/images/task_images/aliens/instructions_aliens/planet/alien_planet-1.jpg""  height=""600"" width=""auto""></p>",,,,,,,1,,,,,,,,,,,,,,,,,,
html-keyboard-response,21,324671,0.0-8.0-8.0,"""event"",""trial"",""time""
""fullscreenenter"",""1"",""126639""
""fullscreenexit"",""3"",""146828""
","
","
","""event"",""trial"",""time""
""fullscreenenter"",""1"",""126639""
","""event"",""trial"",""time""
""fullscreenexit"",""3"",""146828""
",,268.6,"<p>When you arrive at a new planet, the alien who owns the treasure mine on that planet will greet you!</p><p>The better an alien takes care of their mine the easier it is to dig for gems. Some aliens take better care of their mine than others. So, you won’t get exactly the same amount of gems on each planet.</p><p>What the alien looks like does not tell you anything about how many gems there are on the planet.</p><br><p><img src=""run_exp/static/images/task_images/aliens/instructions_aliens/planet/alien_planet-1.jpg""  height=""600"" width=""auto""></p><button class=""jspsych-html-btn-unchosen""><img src=""run_exp/static/images/task_images/planet-01.jpg"" height=""50""></button><button class=""jspsych-html-btn-chosen""><img src=""run_exp/static/images/task_images/planet-02.jpg"" height=""50""></button><p><b>[press the space bar to lock in your answer]<b><br></p>",32,,,,,,,,,,,,,,,,,,,,,,,,
time_out,22,335742,0.0-9.0-0.0,"""event"",""trial"",""time""
""fullscreenenter"",""1"",""126639""
""fullscreenexit"",""3"",""146828""
","
","
","""event"",""trial"",""time""
""fullscreenenter"",""1"",""126639""
","""event"",""trial"",""time""
""fullscreenexit"",""3"",""146828""
",,null,run_exp/static/audio/clip_7_timeout.m4a,null,"<p>If you don't make your choice fast enough, you’ll have to wait a few seconds before you can make another one.</p><p>You can’t dig for more gems or travel to new planets. You just have to sit and wait.</p><br><p><img src='run_exp/static/images/task_images/time_out.jpg'  height='600' width='auto'></p>",,,,,,,,,,,,,,,,,,,,,,,
time_out,23,357790,0.0-9.0-1.0,"""event"",""trial"",""time""
""fullscreenenter"",""1"",""126639""
""fullscreenexit"",""3"",""146828""
","
","
","""event"",""trial"",""time""
""fullscreenenter"",""1"",""126639""
","""event"",""trial"",""time""
""fullscreenexit"",""3"",""146828""
",,22047.2,"<p>If you don't make your choice fast enough, you’ll have to wait a few seconds before you can make another one.</p><p>You can’t dig for more gems or travel to new planets. You just have to sit and wait.</p><br><p><img src='run_exp/static/images/task_images/time_out.jpg'  height='600' width='auto'></p>",,,,,,,1,,,,,,,,,,,,,,,,,,
html-keyboard-response,24,358194,0.0-9.0-2.0,"""event"",""trial"",""time""
""fullscreenenter"",""1"",""126639""
""fullscreenexit"",""3"",""146828""
","
","
","""event"",""trial"",""time""
""fullscreenenter"",""1"",""126639""
","""event"",""trial"",""time""
""fullscreenexit"",""3"",""146828""
",,403.5,"<p>If you don't make your choice fast enough, you’ll have to wait a few seconds before you can make another one.</p><p>You can’t dig for more gems or travel to new planets. You just have to sit and wait.</p><br><p><img src='run_exp/static/images/task_images/time_out.jpg'  height='600' width='auto'></p><button class=""jspsych-html-btn-unchosen""><img src=""run_exp/static/images/task_images/planet-01.jpg"" height=""50""></button><button class=""jspsych-html-btn-chosen""><img src=""run_exp/static/images/task_images/planet-02.jpg"" height=""50""></button><p><b>[press the space bar to lock in your answer]<b><br></p>",32,,,,,,,,,,,,,,,,,,,,,,,,
instruc_break,25,373833,0.0-10.0-0.0,"""event"",""trial"",""time""
""fullscreenenter"",""1"",""126639""
""fullscreenexit"",""3"",""146828""
","
","
","""event"",""trial"",""time""
""fullscreenenter"",""1"",""126639""
","""event"",""trial"",""time""
""fullscreenexit"",""3"",""146828""
",,null,run_exp/static/audio/clip_8_break.m4a,null,"<p> After digging and traveling for a while, you’ll be able to take a break at home base. </p><p>The game will last 20 minutes no matter what.</p><p>You will visit home base every 5 minutes, so, you will visit home base three times during the game.</p><br><p><img src='run_exp/static/images/task_images/home_base.jpg' height='600' width='auto'></p>",,,,,,,,,,,,,,,,,,,,,,,
instruc_break,26,379756,0.0-10.0-1.0,"""event"",""trial"",""time""
""fullscreenenter"",""1"",""126639""
""fullscreenexit"",""3"",""146828""
","
","
","""event"",""trial"",""time""
""fullscreenenter"",""1"",""126639""
","""event"",""trial"",""time""
""fullscreenexit"",""3"",""146828""
",,5921.3,"<p> After digging and traveling for a while, you’ll be able to take a break at home base. </p><p>The game will last 20 minutes no matter what.</p><p>You will visit home base every 5 minutes, so, you will visit home base three times during the game.</p><br><p><img src='run_exp/static/images/task_images/home_base.jpg' height='600' width='auto'></p>",,,,,,,1,,,,,,,,,,,,,,,,,,
html-keyboard-response,27,380229,0.0-10.0-2.0,"""event"",""trial"",""time""
""fullscreenenter"",""1"",""126639""
""fullscreenexit"",""3"",""146828""
","
","
","""event"",""trial"",""time""
""fullscreenenter"",""1"",""126639""
","""event"",""trial"",""time""
""fullscreenexit"",""3"",""146828""
",,472.4,"<p> After digging and traveling for a while, you’ll be able to take a break at home base. </p><p>The game will last 20 minutes no matter what.</p><p>You will visit home base every 5 minutes, so, you will visit home base three times during the game.</p><br><p><img src='run_exp/static/images/task_images/home_base.jpg' height='600' width='auto'></p><button class=""jspsych-html-btn-unchosen""><img src=""run_exp/static/images/task_images/planet-01.jpg"" height=""50""></button><button class=""jspsych-html-btn-chosen""><img src=""run_exp/static/images/task_images/planet-02.jpg"" height=""50""></button><p><b>[press the space bar to lock in your answer]<b><br></p>",32,,,,,,,,,,,,,,,,,,,,,,,,
instruc_prac_game,28,390353,0.0-11.0-0.0,"""event"",""trial"",""time""
""fullscreenenter"",""1"",""126639""
""fullscreenexit"",""3"",""146828""
","
","
","""event"",""trial"",""time""
""fullscreenenter"",""1"",""126639""
","""event"",""trial"",""time""
""fullscreenexit"",""3"",""146828""
",,null,run_exp/static/audio/clip_9_practice.m4a,null,"<p> Are you ready to play a practice game? </p> <p>In this practice game, you'll be digging up barrels of gems. But, in the real game, you'll be digging up the gems themselves. </p>",,,,,,,,,,,,,,,,,,,,,,,
html-button-response,29,394350,0.0-11.0-1.0,"""event"",""trial"",""time""
""fullscreenenter"",""1"",""126639""
""fullscreenexit"",""3"",""146828""
","
","
","""event"",""trial"",""time""
""fullscreenenter"",""1"",""126639""
","""event"",""trial"",""time""
""fullscreenexit"",""3"",""146828""
",,3996,"<p> Are you ready to play a practice game? </p> <p>In this practice game, you'll be digging up barrels of gems. But, in the real game, you'll be digging up the gems themselves. </p>",,,,,,,0,,,,,,,,,,,,,,,,,,
alien_welcome_prac,30,399354,0.0-12.0-0.0,"""event"",""trial"",""time""
""fullscreenenter"",""1"",""126639""
""fullscreenexit"",""3"",""146828""
","
","
","""event"",""trial"",""time""
""fullscreenenter"",""1"",""126639""
","""event"",""trial"",""time""
""fullscreenexit"",""3"",""146828""
",,null,run_exp/static/images/task_images/aliens/practice_aliens/planet/alien_planet-5.jpg,null,,,,,,,,,,,,,,,,,,,,,,,,
land_prac,31,399860,0.0-12.0-1.0,"""event"",""trial"",""time""
""fullscreenenter"",""1"",""126639""
""fullscreenexit"",""3"",""146828""
","
","
","""event"",""trial"",""time""
""fullscreenenter"",""1"",""126639""
","""event"",""trial"",""time""
""fullscreenexit"",""3"",""146828""
",,null,run_exp/static/images/task_images/land.jpg,null,,,,,,,98,,,0,,,,,,,,,,,,,,
dig_prac,32,401863,0.0-12.0-2.0,"""event"",""trial"",""time""
""fullscreenenter"",""1"",""126639""
""fullscreenexit"",""3"",""146828""
","
","
","""event"",""trial"",""time""
""fullscreenenter"",""1"",""126639""
","""event"",""trial"",""time""
""fullscreenexit"",""3"",""146828""
",,,,,,,,,,,,"[{""stimulus"":""run_exp/static/images/task_images/dig.jpg"",""time"":0.09999990463256836},{""stimulus"":""run_exp/static/images/task_images/land.jpg"",""time"":679.6999999284744},{""stimulus"":""run_exp/static/images/task_images/dig.jpg"",""time"":1341.3999999761581}]",[],,,,,,,,,,,,,,,
harvest_prac,33,402876,0.0-12.0-3.0,"""event"",""trial"",""time""
""fullscreenenter"",""1"",""126639""
""fullscreenexit"",""3"",""146828""
","
","
","""event"",""trial"",""time""
""fullscreenenter"",""1"",""126639""
","""event"",""trial"",""time""
""fullscreenexit"",""3"",""146828""
",,null,run_exp/static/images/task_images/barrel_text.jpg,null,,,,,,,,,,,,,,,,,,,,,,,,
decision_prac,34,405411,0.0-12.0-4.0,"""event"",""trial"",""time""
""fullscreenenter"",""1"",""126639""
""fullscreenexit"",""3"",""146828""
","
","
","""event"",""trial"",""time""
""fullscreenenter"",""1"",""126639""
","""event"",""trial"",""time""
""fullscreenexit"",""3"",""146828""
",,2534.8,run_exp/static/images/task_images/land.jpg,65,,,,,,,,,,,1,,,,,,,,,,,,,
dig_prac,35,407415,0.0-13.0-0.0,"""event"",""trial"",""time""
""fullscreenenter"",""1"",""126639""
""fullscreenexit"",""3"",""146828""
","
","
","""event"",""trial"",""time""
""fullscreenenter"",""1"",""126639""
","""event"",""trial"",""time""
""fullscreenexit"",""3"",""146828""
",,,,,,,,,,,,"[{""stimulus"":""run_exp/static/images/task_images/dig.jpg"",""time"":0.09999990463256836},{""stimulus"":""run_exp/static/images/task_images/land.jpg"",""time"":667.5999999046326},{""stimulus"":""run_exp/static/images/task_images/dig.jpg"",""time"":1347.3999999761581}]",[],,,,,,,,,,,,,,,
harvest_prac,36,408425,0.0-13.0-1.0,"""event"",""trial"",""time""
""fullscreenenter"",""1"",""126639""
""fullscreenexit"",""3"",""146828""
","
","
","""event"",""trial"",""time""
""fullscreenenter"",""1"",""126639""
","""event"",""trial"",""time""
""fullscreenexit"",""3"",""146828""
",,null,run_exp/static/images/task_images/barrel_text.jpg,null,,,,,,,,,,,,,,,,,,,,,,,,
decision_prac,37,408958,0.0-13.0-2.0,"""event"",""trial"",""time""
""fullscreenenter"",""1"",""126639""
""fullscreenexit"",""3"",""146828""
","
","
","""event"",""trial"",""time""
""fullscreenenter"",""1"",""126639""
","""event"",""trial"",""time""
""fullscreenexit"",""3"",""146828""
",,532.8,run_exp/static/images/task_images/land.jpg,65,,,,,,,,,,,2,,,,,,,,,,,,,
dig_prac,38,410975,0.0-14.0-0.0,"""event"",""trial"",""time""
""fullscreenenter"",""1"",""126639""
""fullscreenexit"",""3"",""146828""
","
","
","""event"",""trial"",""time""
""fullscreenenter"",""1"",""126639""
","""event"",""trial"",""time""
""fullscreenexit"",""3"",""146828""
",,,,,,,,,,,,"[{""stimulus"":""run_exp/static/images/task_images/dig.jpg"",""time"":0},{""stimulus"":""run_exp/static/images/task_images/land.jpg"",""time"":669.6000000238419},{""stimulus"":""run_exp/static/images/task_images/dig.jpg"",""time"":1347.5}]",[],,,,,,,,,,,,,,,
harvest_prac,39,411978,0.0-14.0-1.0,"""event"",""trial"",""time""
""fullscreenenter"",""1"",""126639""
""fullscreenexit"",""3"",""146828""
","
","
","""event"",""trial"",""time""
""fullscreenenter"",""1"",""126639""
","""event"",""trial"",""time""
""fullscreenexit"",""3"",""146828""
",,null,run_exp/static/images/task_images/barrel_text.jpg,null,,,,,,,,,,,,,,,,,,,,,,,,
decision_prac,40,412663,0.0-14.0-2.0,"""event"",""trial"",""time""
""fullscreenenter"",""1"",""126639""
""fullscreenexit"",""3"",""146828""
","
","
","""event"",""trial"",""time""
""fullscreenenter"",""1"",""126639""
","""event"",""trial"",""time""
""fullscreenexit"",""3"",""146828""
",,685,run_exp/static/images/task_images/land.jpg,65,,,,,,,,,,,3,,,,,,,,,,,,,
dig_prac,41,414678,0.0-15.0-0.0,"""event"",""trial"",""time""
""fullscreenenter"",""1"",""126639""
""fullscreenexit"",""3"",""146828""
","
","
","""event"",""trial"",""time""
""fullscreenenter"",""1"",""126639""
","""event"",""trial"",""time""
""fullscreenexit"",""3"",""146828""
",,,,,,,,,,,,"[{""stimulus"":""run_exp/static/images/task_images/dig.jpg"",""time"":0.10000002384185791},{""stimulus"":""run_exp/static/images/task_images/land.jpg"",""time"":678.7999999523163},{""stimulus"":""run_exp/static/images/task_images/dig.jpg"",""time"":1341.6000000238419}]",[],,,,,,,,,,,,,,,
harvest_prac,42,415684,0.0-15.0-1.0,"""event"",""trial"",""time""
""fullscreenenter"",""1"",""126639""
""fullscreenexit"",""3"",""146828""
","
","
","""event"",""trial"",""time""
""fullscreenenter"",""1"",""126639""
","""event"",""trial"",""time""
""fullscreenexit"",""3"",""146828""
",,null,run_exp/static/images/task_images/barrel_text.jpg,null,,,,,,,,,,,,,,,,,,,,,,,,
decision_prac,43,416081,0.0-15.0-2.0,"""event"",""trial"",""time""
""fullscreenenter"",""1"",""126639""
""fullscreenexit"",""3"",""146828""
","
","
","""event"",""trial"",""time""
""fullscreenenter"",""1"",""126639""
","""event"",""trial"",""time""
""fullscreenexit"",""3"",""146828""
",,396.8,run_exp/static/images/task_images/land.jpg,65,,,,,,,,,,,4,,,,,,,,,,,,,
dig_prac,44,418092,0.0-16.0-0.0,"""event"",""trial"",""time""
""fullscreenenter"",""1"",""126639""
""fullscreenexit"",""3"",""146828""
","
","
","""event"",""trial"",""time""
""fullscreenenter"",""1"",""126639""
","""event"",""trial"",""time""
""fullscreenexit"",""3"",""146828""
",,,,,,,,,,,,"[{""stimulus"":""run_exp/static/images/task_images/dig.jpg"",""time"":0},{""stimulus"":""run_exp/static/images/task_images/land.jpg"",""time"":677.7000000476837},{""stimulus"":""run_exp/static/images/task_images/dig.jpg"",""time"":1335.7999999523163}]",[],,,,,,,,,,,,,,,
harvest_prac,45,419097,0.0-16.0-1.0,"""event"",""trial"",""time""
""fullscreenenter"",""1"",""126639""
""fullscreenexit"",""3"",""146828""
","
","
","""event"",""trial"",""time""
""fullscreenenter"",""1"",""126639""
","""event"",""trial"",""time""
""fullscreenexit"",""3"",""146828""
",,null,run_exp/static/images/task_images/barrel_text.jpg,null,,,,,,,,,,,,,,,,,,,,,,,,
decision_prac,46,419599,0.0-16.0-2.0,"""event"",""trial"",""time""
""fullscreenenter"",""1"",""126639""
""fullscreenexit"",""3"",""146828""
","
","
","""event"",""trial"",""time""
""fullscreenenter"",""1"",""126639""
","""event"",""trial"",""time""
""fullscreenexit"",""3"",""146828""
",,501.8000001,run_exp/static/images/task_images/land.jpg,65,,,,,,,,,,,,1,,,,,,,,,,,,
quiz_instruc,47,422806,0.0-17.0-0.0,"""event"",""trial"",""time""
""fullscreenenter"",""1"",""126639""
""fullscreenexit"",""3"",""146828""
""blur"",""48"",""434842""
""focus"",""48"",""438412""
","""event"",""trial"",""time""
""blur"",""48"",""434842""
","""event"",""trial"",""time""
""focus"",""48"",""438412""
","""event"",""trial"",""time""
""fullscreenenter"",""1"",""126639""
","""event"",""trial"",""time""
""fullscreenexit"",""3"",""146828""
",,3205.5,run_exp/static/audio/clip_10_quiz.m4a,,,,,,,0,,,,,,,,,,,,,,,,,,
instruc_repeat,48,465562,0.0-17.0-1.0,"""event"",""trial"",""time""
""fullscreenenter"",""1"",""126639""
""fullscreenexit"",""3"",""146828""
""blur"",""48"",""434842""
""focus"",""48"",""438412""
","""event"",""trial"",""time""
""blur"",""48"",""434842""
","""event"",""trial"",""time""
""focus"",""48"",""438412""
","""event"",""trial"",""time""
""fullscreenenter"",""1"",""126639""
","""event"",""trial"",""time""
""fullscreenexit"",""3"",""146828""
",,null,"<p> Are you ready to play a practice game? </p> <p>In this practice game, you'll be digging up barrels of gems. But, in the real game, you'll be digging up the gems themselves. </p>",null,"<p>In this game, your goal is to collect as many gems as you can. That’s how you will win bonus money. </p> <p>The entire game will last 20 minutes no matter how many gems you collect or how many planets you visit. </p><p>To stay on a planet and dig again, press the letter A on your keyboard. To leave for a new planet, press the letter L.</p><p>The more you dig on a planet, the fewer gems you’ll get with each dig which is why you might consider leaving for a new planet. </p><p>When you arrive at a new planet, you’ll be greeted by an alien. What the alien looks like does not tell you anything about how much treasure is on the planet. </p>",,,,,,,,,,,,,,,,,,,,,,,
instruc_repeat_continue,49,488716,0.0-17.0-2.0,"""event"",""trial"",""time""
""fullscreenenter"",""1"",""126639""
""fullscreenexit"",""3"",""146828""
""blur"",""48"",""434842""
""focus"",""48"",""438412""
","""event"",""trial"",""time""
""blur"",""48"",""434842""
","""event"",""trial"",""time""
""focus"",""48"",""438412""
","""event"",""trial"",""time""
""fullscreenenter"",""1"",""126639""
","""event"",""trial"",""time""
""fullscreenexit"",""3"",""146828""
",,23152.5,"<p> Are you ready to play a practice game? </p> <p>In this practice game, you'll be digging up barrels of gems. But, in the real game, you'll be digging up the gems themselves. </p>",,,,,,,0,,,,,,,,,,,,,,,,,,
quiz_q_1_ask,50,490854,0.0-17.0-3.0,"""event"",""trial"",""time""
""fullscreenenter"",""1"",""126639""
""fullscreenexit"",""3"",""146828""
""blur"",""48"",""434842""
""focus"",""48"",""438412""
","""event"",""trial"",""time""
""blur"",""48"",""434842""
","""event"",""trial"",""time""
""focus"",""48"",""438412""
","""event"",""trial"",""time""
""fullscreenenter"",""1"",""126639""
","""event"",""trial"",""time""
""fullscreenexit"",""3"",""146828""
",,2137.2,run_exp/static/audio/clip_11_q1_ask.m4a,,,,,,,2,,,,,,,,,,,,,,,,,,
quiz_q_1_fb_correct,51,494692,0.0-18.0-0.0,"""event"",""trial"",""time""
""fullscreenenter"",""1"",""126639""
""fullscreenexit"",""3"",""146828""
""blur"",""48"",""434842""
""focus"",""48"",""438412""
","""event"",""trial"",""time""
""blur"",""48"",""434842""
","""event"",""trial"",""time""
""focus"",""48"",""438412""
","""event"",""trial"",""time""
""fullscreenenter"",""1"",""126639""
","""event"",""trial"",""time""
""fullscreenexit"",""3"",""146828""
",,null,run_exp/static/audio/clip_12_q1_correct.m4a,null,<p>That’s correct. You win extra money by collecting more gems.</p>,,,,,,,,,,,,,,,,,,,,,,,
quiz_q_2_ask,52,527893,0.0-18.0-1.0,"""event"",""trial"",""time""
""fullscreenenter"",""1"",""126639""
""fullscreenexit"",""3"",""146828""
""blur"",""48"",""434842""
""focus"",""48"",""438412""
","""event"",""trial"",""time""
""blur"",""48"",""434842""
","""event"",""trial"",""time""
""focus"",""48"",""438412""
","""event"",""trial"",""time""
""fullscreenenter"",""1"",""126639""
","""event"",""trial"",""time""
""fullscreenexit"",""3"",""146828""
",,33200.7,run_exp/static/audio/clip_14_q2_ask.m4a,,,,,,,2,,,,,,,,,,,,,,,,,,
quiz_q_2_fb_incorrect,53,531971,0.0-19.0-0.0,"""event"",""trial"",""time""
""fullscreenenter"",""1"",""126639""
""fullscreenexit"",""3"",""146828""
""blur"",""48"",""434842""
""focus"",""48"",""438412""
","""event"",""trial"",""time""
""blur"",""48"",""434842""
","""event"",""trial"",""time""
""focus"",""48"",""438412""
","""event"",""trial"",""time""
""fullscreenenter"",""1"",""126639""
","""event"",""trial"",""time""
""fullscreenexit"",""3"",""146828""
",,null,run_exp/static/audio/clip_16_q2_incorrect.m4a,null,<p>That’s incorrect. The experiment is 20 minutes no matter what.</p>,,,,,,,,,,,,,,,,,,,,,,,
quiz_q_3_ask,54,570481,0.0-19.0-1.0,"""event"",""trial"",""time""
""fullscreenenter"",""1"",""126639""
""fullscreenexit"",""3"",""146828""
""blur"",""48"",""434842""
""focus"",""48"",""438412""
","""event"",""trial"",""time""
""blur"",""48"",""434842""
","""event"",""trial"",""time""
""focus"",""48"",""438412""
","""event"",""trial"",""time""
""fullscreenenter"",""1"",""126639""
","""event"",""trial"",""time""
""fullscreenexit"",""3"",""146828""
",,38509.1,run_exp/static/audio/clip_17_q3_ask.m4a,,,,,,,1,,,,,,,,,,,,,,,,,,
quiz_q_3_fb_correct,55,574441,0.0-20.0-0.0,"""event"",""trial"",""time""
""fullscreenenter"",""1"",""126639""
""fullscreenexit"",""3"",""146828""
""blur"",""48"",""434842""
""focus"",""48"",""438412""
","""event"",""trial"",""time""
""blur"",""48"",""434842""
","""event"",""trial"",""time""
""focus"",""48"",""438412""
","""event"",""trial"",""time""
""fullscreenenter"",""1"",""126639""
","""event"",""trial"",""time""
""fullscreenexit"",""3"",""146828""
",,null,run_exp/static/audio/clip_18_q3_correct.m4a,null,<p> That’s correct. You press the letter L to travel to a new planet.</p>,,,,,,,,,,,,,,,,,,,,,,,
quiz_q_4_ask,56,580673,0.0-20.0-1.0,"""event"",""trial"",""time""
""fullscreenenter"",""1"",""126639""
""fullscreenexit"",""3"",""146828""
""blur"",""48"",""434842""
""focus"",""48"",""438412""
","""event"",""trial"",""time""
""blur"",""48"",""434842""
","""event"",""trial"",""time""
""focus"",""48"",""438412""
","""event"",""trial"",""time""
""fullscreenenter"",""1"",""126639""
","""event"",""trial"",""time""
""fullscreenexit"",""3"",""146828""
",,6231.7,run_exp/static/audio/clip_20_q4_ask.m4a,,,,,,,0,,,,,,,,,,,,,,,,,,
quiz_q_4_fb_correct,57,586001,0.0-21.0-0.0,"""event"",""trial"",""time""
""fullscreenenter"",""1"",""126639""
""fullscreenexit"",""3"",""146828""
""blur"",""48"",""434842""
""focus"",""48"",""438412""
","""event"",""trial"",""time""
""blur"",""48"",""434842""
","""event"",""trial"",""time""
""focus"",""48"",""438412""
","""event"",""trial"",""time""
""fullscreenenter"",""1"",""126639""
","""event"",""trial"",""time""
""fullscreenexit"",""3"",""146828""
",,null,run_exp/static/audio/clip_21_q4_correct.m4a,null,<p> That’s correct. The more you dig on a planet the fewer gems you’ll get with each dig. </p>,,,,,,,,,,,,,,,,,,,,,,,
quiz_q_5_ask,58,616491,0.0-21.0-1.0,"""event"",""trial"",""time""
""fullscreenenter"",""1"",""126639""
""fullscreenexit"",""3"",""146828""
""blur"",""48"",""434842""
""focus"",""48"",""438412""
","""event"",""trial"",""time""
""blur"",""48"",""434842""
","""event"",""trial"",""time""
""focus"",""48"",""438412""
","""event"",""trial"",""time""
""fullscreenenter"",""1"",""126639""
","""event"",""trial"",""time""
""fullscreenexit"",""3"",""146828""
",,30489.5,run_exp/static/audio/clip_23_q5_ask.m4a,,,,,,,1,,,,,,,,,,,,,,,,,,
quiz_q_5_fb_correct,59,621471,0.0-22.0-0.0,"""event"",""trial"",""time""
""fullscreenenter"",""1"",""126639""
""fullscreenexit"",""3"",""146828""
""blur"",""48"",""434842""
""focus"",""48"",""438412""
","""event"",""trial"",""time""
""blur"",""48"",""434842""
","""event"",""trial"",""time""
""focus"",""48"",""438412""
","""event"",""trial"",""time""
""fullscreenenter"",""1"",""126639""
","""event"",""trial"",""time""
""fullscreenexit"",""3"",""146828""
",,null,run_exp/static/audio/clip_24_q5_correct.m4a,null,<p> That’s correct. The alien tells you nothing about how much treasure is on the planet.</p>,,,,,,,,,,,,,,,,,,,,,,,
quiz_incorrect,60,627011,0.0-23.0-0.0,"""event"",""trial"",""time""
""fullscreenenter"",""1"",""126639""
""fullscreenexit"",""3"",""146828""
""blur"",""48"",""434842""
""focus"",""48"",""438412""
","""event"",""trial"",""time""
""blur"",""48"",""434842""
","""event"",""trial"",""time""
""focus"",""48"",""438412""
","""event"",""trial"",""time""
""fullscreenenter"",""1"",""126639""
","""event"",""trial"",""time""
""fullscreenexit"",""3"",""146828""
",,null,run_exp/static/audio/clip_27_incorrect_quiz.m4a,null,,,,,,,,,,,,,,,,,,,,,,,,
quiz_incorrect_continue,61,651469,0.0-23.0-1.0,"""event"",""trial"",""time""
""fullscreenenter"",""1"",""126639""
""fullscreenexit"",""3"",""146828""
""blur"",""48"",""434842""
""focus"",""48"",""438412""
","""event"",""trial"",""time""
""blur"",""48"",""434842""
","""event"",""trial"",""time""
""focus"",""48"",""438412""
","""event"",""trial"",""time""
""fullscreenenter"",""1"",""126639""
","""event"",""trial"",""time""
""fullscreenexit"",""3"",""146828""
",,24458,"<p>Oops, you missed some questions.</p><p>Now that you’ve heard the correct answers. Try the quiz again!</p>",,,,,,,0,,,,,,,,,,,,,,,,,,
quiz_q_1_ask,62,653079,0.0-23.0-2.0,"""event"",""trial"",""time""
""fullscreenenter"",""1"",""126639""
""fullscreenexit"",""3"",""146828""
""blur"",""48"",""434842""
""focus"",""48"",""438412""
","""event"",""trial"",""time""
""blur"",""48"",""434842""
","""event"",""trial"",""time""
""focus"",""48"",""438412""
","""event"",""trial"",""time""
""fullscreenenter"",""1"",""126639""
","""event"",""trial"",""time""
""fullscreenexit"",""3"",""146828""
",,1609.1,run_exp/static/audio/clip_11_q1_ask.m4a,,,,,,,2,,,,,,,,,,,,,,,,,,
quiz_q_1_fb_correct,63,656911,0.0-24.0-0.0,"""event"",""trial"",""time""
""fullscreenenter"",""1"",""126639""
""fullscreenexit"",""3"",""146828""
""blur"",""48"",""434842""
""focus"",""48"",""438412""
","""event"",""trial"",""time""
""blur"",""48"",""434842""
","""event"",""trial"",""time""
""focus"",""48"",""438412""
","""event"",""trial"",""time""
""fullscreenenter"",""1"",""126639""
","""event"",""trial"",""time""
""fullscreenexit"",""3"",""146828""
",,null,run_exp/static/audio/clip_12_q1_correct.m4a,null,<p>That’s correct. You win extra money by collecting more gems.</p>,,,,,,,,,,,,,,,,,,,,,,,
quiz_q_2_ask,64,658333,0.0-24.0-1.0,"""event"",""trial"",""time""
""fullscreenenter"",""1"",""126639""
""fullscreenexit"",""3"",""146828""
""blur"",""48"",""434842""
""focus"",""48"",""438412""
","""event"",""trial"",""time""
""blur"",""48"",""434842""
","""event"",""trial"",""time""
""focus"",""48"",""438412""
","""event"",""trial"",""time""
""fullscreenenter"",""1"",""126639""
","""event"",""trial"",""time""
""fullscreenexit"",""3"",""146828""
",,1421.9,run_exp/static/audio/clip_14_q2_ask.m4a,,,,,,,1,,,,,,,,,,,,,,,,,,
quiz_q_2_fb_correct,65,662330,0.0-25.0-0.0,"""event"",""trial"",""time""
""fullscreenenter"",""1"",""126639""
""fullscreenexit"",""3"",""146828""
""blur"",""48"",""434842""
""focus"",""48"",""438412""
","""event"",""trial"",""time""
""blur"",""48"",""434842""
","""event"",""trial"",""time""
""focus"",""48"",""438412""
","""event"",""trial"",""time""
""fullscreenenter"",""1"",""126639""
","""event"",""trial"",""time""
""fullscreenexit"",""3"",""146828""
",,null,run_exp/static/audio/clip_15_q2_correct.m4a,null,<p>That’s correct. The experiment is 20 minutes no matter what.</p>,,,,,,,,,,,,,,,,,,,,,,,
quiz_q_3_ask,66,663301,0.0-25.0-1.0,"""event"",""trial"",""time""
""fullscreenenter"",""1"",""126639""
""fullscreenexit"",""3"",""146828""
""blur"",""48"",""434842""
""focus"",""48"",""438412""
","""event"",""trial"",""time""
""blur"",""48"",""434842""
","""event"",""trial"",""time""
""focus"",""48"",""438412""
","""event"",""trial"",""time""
""fullscreenenter"",""1"",""126639""
","""event"",""trial"",""time""
""fullscreenexit"",""3"",""146828""
",,970.1999999,run_exp/static/audio/clip_17_q3_ask.m4a,,,,,,,1,,,,,,,,,,,,,,,,,,
quiz_q_3_fb_correct,67,667271,0.0-26.0-0.0,"""event"",""trial"",""time""
""fullscreenenter"",""1"",""126639""
""fullscreenexit"",""3"",""146828""
""blur"",""48"",""434842""
""focus"",""48"",""438412""
","""event"",""trial"",""time""
""blur"",""48"",""434842""
","""event"",""trial"",""time""
""focus"",""48"",""438412""
","""event"",""trial"",""time""
""fullscreenenter"",""1"",""126639""
","""event"",""trial"",""time""
""fullscreenexit"",""3"",""146828""
",,null,run_exp/static/audio/clip_18_q3_correct.m4a,null,<p> That’s correct. You press the letter L to travel to a new planet.</p>,,,,,,,,,,,,,,,,,,,,,,,
quiz_q_4_ask,68,668471,0.0-26.0-1.0,"""event"",""trial"",""time""
""fullscreenenter"",""1"",""126639""
""fullscreenexit"",""3"",""146828""
""blur"",""48"",""434842""
""focus"",""48"",""438412""
","""event"",""trial"",""time""
""blur"",""48"",""434842""
","""event"",""trial"",""time""
""focus"",""48"",""438412""
","""event"",""trial"",""time""
""fullscreenenter"",""1"",""126639""
","""event"",""trial"",""time""
""fullscreenexit"",""3"",""146828""
",,1199.7,run_exp/static/audio/clip_20_q4_ask.m4a,,,,,,,0,,,,,,,,,,,,,,,,,,
quiz_q_4_fb_correct,69,673790,0.0-27.0-0.0,"""event"",""trial"",""time""
""fullscreenenter"",""1"",""126639""
""fullscreenexit"",""3"",""146828""
""blur"",""48"",""434842""
""focus"",""48"",""438412""
","""event"",""trial"",""time""
""blur"",""48"",""434842""
","""event"",""trial"",""time""
""focus"",""48"",""438412""
","""event"",""trial"",""time""
""fullscreenenter"",""1"",""126639""
","""event"",""trial"",""time""
""fullscreenexit"",""3"",""146828""
",,null,run_exp/static/audio/clip_21_q4_correct.m4a,null,<p> That’s correct. The more you dig on a planet the fewer gems you’ll get with each dig. </p>,,,,,,,,,,,,,,,,,,,,,,,
quiz_q_5_ask,70,674533,0.0-27.0-1.0,"""event"",""trial"",""time""
""fullscreenenter"",""1"",""126639""
""fullscreenexit"",""3"",""146828""
""blur"",""48"",""434842""
""focus"",""48"",""438412""
","""event"",""trial"",""time""
""blur"",""48"",""434842""
","""event"",""trial"",""time""
""focus"",""48"",""438412""
","""event"",""trial"",""time""
""fullscreenenter"",""1"",""126639""
","""event"",""trial"",""time""
""fullscreenexit"",""3"",""146828""
",,742.1999999,run_exp/static/audio/clip_23_q5_ask.m4a,,,,,,,1,,,,,,,,,,,,,,,,,,
quiz_q_5_fb_correct,71,679531,0.0-28.0-0.0,"""event"",""trial"",""time""
""fullscreenenter"",""1"",""126639""
""fullscreenexit"",""3"",""146828""
""blur"",""48"",""434842""
""focus"",""48"",""438412""
","""event"",""trial"",""time""
""blur"",""48"",""434842""
","""event"",""trial"",""time""
""focus"",""48"",""438412""
","""event"",""trial"",""time""
""fullscreenenter"",""1"",""126639""
","""event"",""trial"",""time""
""fullscreenexit"",""3"",""146828""
",,null,run_exp/static/audio/clip_24_q5_correct.m4a,null,<p> That’s correct. The alien tells you nothing about how much treasure is on the planet.</p>,,,,,,,,,,,,,,,,,,,,,,,
quiz_correct,72,682991,0.0-29.0-0.0,"""event"",""trial"",""time""
""fullscreenenter"",""1"",""126639""
""fullscreenexit"",""3"",""146828""
""blur"",""48"",""434842""
""focus"",""48"",""438412""
","""event"",""trial"",""time""
""blur"",""48"",""434842""
","""event"",""trial"",""time""
""focus"",""48"",""438412""
","""event"",""trial"",""time""
""fullscreenenter"",""1"",""126639""
","""event"",""trial"",""time""
""fullscreenexit"",""3"",""146828""
",,null,run_exp/static/audio/clip_26_correct_quiz.m4a,null,,,,,,,,,,,,,,,,,,,,,,,,
quiz_correct_continue,73,810227,0.0-29.0-1.0,"""event"",""trial"",""time""
""fullscreenenter"",""1"",""126639""
""fullscreenexit"",""3"",""146828""
""blur"",""48"",""434842""
""focus"",""48"",""438412""
","""event"",""trial"",""time""
""blur"",""48"",""434842""
","""event"",""trial"",""time""
""focus"",""48"",""438412""
","""event"",""trial"",""time""
""fullscreenenter"",""1"",""126639""
","""event"",""trial"",""time""
""fullscreenexit"",""3"",""146828""
",,127236.3,<p>Good job! You're now ready to move on to the real game!</p>,,,,,,,0,,,,,,,,,,,,,,,,,,
audio-keyboard-response,74,820329,0.0-29.0-2.0,"""event"",""trial"",""time""
""fullscreenenter"",""1"",""126639""
""fullscreenexit"",""3"",""146828""
""blur"",""48"",""434842""
""focus"",""48"",""438412""
","""event"",""trial"",""time""
""blur"",""48"",""434842""
","""event"",""trial"",""time""
""focus"",""48"",""438412""
","""event"",""trial"",""time""
""fullscreenenter"",""1"",""126639""
","""event"",""trial"",""time""
""fullscreenexit"",""3"",""146828""
",,null,run_exp/static/audio/clip_28_real_game.m4a,null,,,,,,,,,,,,,,,,,,,,,,,,
instruc_begin_exp_contine,75,830407,0.0-29.0-3.0,"""event"",""trial"",""time""
""fullscreenenter"",""1"",""126639""
""fullscreenexit"",""3"",""146828""
""blur"",""48"",""434842""
""focus"",""48"",""438412""
","""event"",""trial"",""time""
""blur"",""48"",""434842""
","""event"",""trial"",""time""
""focus"",""48"",""438412""
","""event"",""trial"",""time""
""fullscreenenter"",""1"",""126639""
","""event"",""trial"",""time""
""fullscreenexit"",""3"",""146828""
",,10077.5,"<p>Now that you know how  to dig for space treasure and travel to new planets,you can start exploring! </p><p>Do you want to go over the instructions again or get started with the real game?</p>",,,,,,,1,,,,,,1,,,,,,,,,,,,
alien_welcome,76,835412,0.0-30.0-0.0,"""event"",""trial"",""time""
""fullscreenenter"",""1"",""126639""
""fullscreenexit"",""3"",""146828""
""blur"",""48"",""434842""
""focus"",""48"",""438412""
","""event"",""trial"",""time""
""blur"",""48"",""434842""
","""event"",""trial"",""time""
""focus"",""48"",""438412""
","""event"",""trial"",""time""
""fullscreenenter"",""1"",""126639""
","""event"",""trial"",""time""
""fullscreenexit"",""3"",""146828""
",,null,run_exp/static/images/task_images/aliens/old_aliens/planet/alien_planet-1.jpg,null,,,,,,,,,,,,,1,"1,71,16,63,69,42,25,19,44,52,28,48,39,55,53,14,77,17,75,68,2,47,76,5,74,35,22,43,36,66,67,56,21,54,40,46,7,60,6,10,41,18,33,57",,,,,,,,,,
land,77,835917,0.0-30.0-1.0,"""event"",""trial"",""time""
""fullscreenenter"",""1"",""126639""
""fullscreenexit"",""3"",""146828""
""blur"",""48"",""434842""
""focus"",""48"",""438412""
","""event"",""trial"",""time""
""blur"",""48"",""434842""
","""event"",""trial"",""time""
""focus"",""48"",""438412""
","""event"",""trial"",""time""
""fullscreenenter"",""1"",""126639""
","""event"",""trial"",""time""
""fullscreenexit"",""3"",""146828""
",,null,run_exp/static/images/task_images/land.jpg,null,,,,,,,99,,,1,,,,,,,,,,,,,,
dig,78,837926,0.0-30.0-2.0,"""event"",""trial"",""time""
""fullscreenenter"",""1"",""126639""
""fullscreenexit"",""3"",""146828""
""blur"",""48"",""434842""
""focus"",""48"",""438412""
","""event"",""trial"",""time""
""blur"",""48"",""434842""
","""event"",""trial"",""time""
""focus"",""48"",""438412""
","""event"",""trial"",""time""
""fullscreenenter"",""1"",""126639""
","""event"",""trial"",""time""
""fullscreenexit"",""3"",""146828""
",,,,,,,,,,,,"[{""stimulus"":""run_exp/static/images/task_images/dig.jpg"",""time"":0.10000002384185791},{""stimulus"":""run_exp/static/images/task_images/land.jpg"",""time"":672.2000000476837},{""stimulus"":""run_exp/static/images/task_images/dig.jpg"",""time"":1347.8000000715256}]",[],1,,,,,,,,,,,,,,
harvest,79,838943,0.0-30.0-3.0,"""event"",""trial"",""time""
""fullscreenenter"",""1"",""126639""
""fullscreenexit"",""3"",""146828""
""blur"",""48"",""434842""
""focus"",""48"",""438412""
","""event"",""trial"",""time""
""blur"",""48"",""434842""
","""event"",""trial"",""time""
""focus"",""48"",""438412""
","""event"",""trial"",""time""
""fullscreenenter"",""1"",""126639""
","""event"",""trial"",""time""
""fullscreenexit"",""3"",""146828""
",,null,run_exp/static/images/task_images/gems/99.jpg,null,,,,,,,17,,,1,,,,,99,0.171765515,0.171717172,,,,,,,
decision,80,839480,0.0-30.0-4.0,"""event"",""trial"",""time""
""fullscreenenter"",""1"",""126639""
""fullscreenexit"",""3"",""146828""
""blur"",""48"",""434842""
""focus"",""48"",""438412""
","""event"",""trial"",""time""
""blur"",""48"",""434842""
","""event"",""trial"",""time""
""focus"",""48"",""438412""
","""event"",""trial"",""time""
""fullscreenenter"",""1"",""126639""
","""event"",""trial"",""time""
""fullscreenexit"",""3"",""146828""
",,525.1,run_exp/static/images/task_images/land.jpg,65,,,,,,,17,,,1,,,,,,,,9072,1,0,FALSE,,,
dig,81,841959,0.0-31.0-0.0,"""event"",""trial"",""time""
""fullscreenenter"",""1"",""126639""
""fullscreenexit"",""3"",""146828""
""blur"",""48"",""434842""
""focus"",""48"",""438412""
","""event"",""trial"",""time""
""blur"",""48"",""434842""
","""event"",""trial"",""time""
""focus"",""48"",""438412""
","""event"",""trial"",""time""
""fullscreenenter"",""1"",""126639""
","""event"",""trial"",""time""
""fullscreenexit"",""3"",""146828""
",,,,,,,,,,,,"[{""stimulus"":""run_exp/static/images/task_images/dig.jpg"",""time"":0},{""stimulus"":""run_exp/static/images/task_images/land.jpg"",""time"":836.4000000953674},{""stimulus"":""run_exp/static/images/task_images/dig.jpg"",""time"":1657.5}]",[],1,,,,,,,,,,,,,,
harvest,82,842973,0.0-31.0-1.0,"""event"",""trial"",""time""
""fullscreenenter"",""1"",""126639""
""fullscreenexit"",""3"",""146828""
""blur"",""48"",""434842""
""focus"",""48"",""438412""
","""event"",""trial"",""time""
""blur"",""48"",""434842""
","""event"",""trial"",""time""
""focus"",""48"",""438412""
","""event"",""trial"",""time""
""fullscreenenter"",""1"",""126639""
","""event"",""trial"",""time""
""fullscreenexit"",""3"",""146828""
",,null,run_exp/static/images/task_images/gems/17.jpg,null,,,,,,,2,,,1,,,,,17,0.111293584,0.117647059,,,,,,,
decision,83,843012,0.0-31.0-2.0,"""event"",""trial"",""time""
""fullscreenenter"",""1"",""126639""
""fullscreenexit"",""3"",""146828""
""blur"",""48"",""434842""
""focus"",""48"",""438412""
","""event"",""trial"",""time""
""blur"",""48"",""434842""
","""event"",""trial"",""time""
""focus"",""48"",""438412""
","""event"",""trial"",""time""
""fullscreenenter"",""1"",""126639""
","""event"",""trial"",""time""
""fullscreenexit"",""3"",""146828""
",,38.79999995,run_exp/static/images/task_images/land.jpg,65,,,,,,,2,,,1,,,,,,,,12604,1,1,FALSE,,,
dig,84,845978,0.0-32.0-0.0,"""event"",""trial"",""time""
""fullscreenenter"",""1"",""126639""
""fullscreenexit"",""3"",""146828""
""blur"",""48"",""434842""
""focus"",""48"",""438412""
","""event"",""trial"",""time""
""blur"",""48"",""434842""
","""event"",""trial"",""time""
""focus"",""48"",""438412""
","""event"",""trial"",""time""
""fullscreenenter"",""1"",""126639""
","""event"",""trial"",""time""
""fullscreenexit"",""3"",""146828""
",,,,,,,,,,,,"[{""stimulus"":""run_exp/static/images/task_images/dig.jpg"",""time"":0.10000002384185791},{""stimulus"":""run_exp/static/images/task_images/land.jpg"",""time"":994.6999999284744},{""stimulus"":""run_exp/static/images/task_images/dig.jpg"",""time"":1988.1999999284744}]",[],1,,,,,,,,,,,,,,
harvest,85,846989,0.0-32.0-1.0,"""event"",""trial"",""time""
""fullscreenenter"",""1"",""126639""
""fullscreenexit"",""3"",""146828""
""blur"",""48"",""434842""
""focus"",""48"",""438412""
","""event"",""trial"",""time""
""blur"",""48"",""434842""
","""event"",""trial"",""time""
""focus"",""48"",""438412""
","""event"",""trial"",""time""
""fullscreenenter"",""1"",""126639""
","""event"",""trial"",""time""
""fullscreenexit"",""3"",""146828""
",,null,run_exp/static/images/task_images/gems/2.jpg,null,,,,,,,0,,,1,,,,,2,0.154705878,0,,,,,,,
decision,86,847445,0.0-32.0-2.0,"""event"",""trial"",""time""
""fullscreenenter"",""1"",""126639""
""fullscreenexit"",""3"",""146828""
""blur"",""48"",""434842""
""focus"",""48"",""438412""
","""event"",""trial"",""time""
""blur"",""48"",""434842""
","""event"",""trial"",""time""
""focus"",""48"",""438412""
","""event"",""trial"",""time""
""fullscreenenter"",""1"",""126639""
","""event"",""trial"",""time""
""fullscreenexit"",""3"",""146828""
",,455.5,run_exp/static/images/task_images/land.jpg,76,,,,,,,0,,,1,,,,,,,,17037,1,2,TRUE,,,
travel,87,856988,0.0-33.0-0.0,"""event"",""trial"",""time""
""fullscreenenter"",""1"",""126639""
""fullscreenexit"",""3"",""146828""
""blur"",""48"",""434842""
""focus"",""48"",""438412""
","""event"",""trial"",""time""
""blur"",""48"",""434842""
","""event"",""trial"",""time""
""focus"",""48"",""438412""
","""event"",""trial"",""time""
""fullscreenenter"",""1"",""126639""
","""event"",""trial"",""time""
""fullscreenexit"",""3"",""146828""
",,,,,,,,,,,,"[{""stimulus"":""run_exp/static/images/task_images/rocket-01.jpg"",""time"":0},{""stimulus"":""run_exp/static/images/task_images/rocket-02.jpg"",""time"":1069.2999999523163},{""stimulus"":""run_exp/static/images/task_images/rocket-03.jpg"",""time"":2131.2999999523163},{""stimulus"":""run_exp/static/images/task_images/rocket-04.jpg"",""time"":3181.6999999284744},{""stimulus"":""run_exp/static/images/task_images/rocket-05.jpg"",""time"":4249.599999904633},{""stimulus"":""run_exp/static/images/task_images/rocket-06.jpg"",""time"":5306.5},{""stimulus"":""run_exp/static/images/task_images/rocket-07.jpg"",""time"":6362},{""stimulus"":""run_exp/static/images/task_images/rocket-08.jpg"",""time"":7421.199999928474},{""stimulus"":""run_exp/static/images/task_images/rocket-09.jpg"",""time"":8490.399999976158}]",[],1,,,,,,,,,,,,,,
alien_welcome,88,861989,0.0-33.0-1.0,"""event"",""trial"",""time""
""fullscreenenter"",""1"",""126639""
""fullscreenexit"",""3"",""146828""
""blur"",""48"",""434842""
""focus"",""48"",""438412""
","""event"",""trial"",""time""
""blur"",""48"",""434842""
","""event"",""trial"",""time""
""focus"",""48"",""438412""
","""event"",""trial"",""time""
""fullscreenenter"",""1"",""126639""
","""event"",""trial"",""time""
""fullscreenexit"",""3"",""146828""
",,null,run_exp/static/images/task_images/aliens/old_aliens/planet/alien_planet-71.jpg,null,,,,,,,,,,,,,71,"1,71,16,63,69,42,25,19,44,52,28,48,39,55,53,14,77,17,75,68,2,47,76,5,74,35,22,43,36,66,67,56,21,54,40,46,7,60,6,10,41,18,33,57",,,,,,,,,,
land,89,862495,0.0-33.0-2.0,"""event"",""trial"",""time""
""fullscreenenter"",""1"",""126639""
""fullscreenexit"",""3"",""146828""
""blur"",""48"",""434842""
""focus"",""48"",""438412""
","""event"",""trial"",""time""
""blur"",""48"",""434842""
","""event"",""trial"",""time""
""focus"",""48"",""438412""
","""event"",""trial"",""time""
""fullscreenenter"",""1"",""126639""
","""event"",""trial"",""time""
""fullscreenexit"",""3"",""146828""
",,null,run_exp/static/images/task_images/land.jpg,null,,,,,,,101,,,2,,,,,,,,,,,,,,
dig,90,864505,0.0-33.0-3.0,"""event"",""trial"",""time""
""fullscreenenter"",""1"",""126639""
""fullscreenexit"",""3"",""146828""
""blur"",""48"",""434842""
""focus"",""48"",""438412""
","""event"",""trial"",""time""
""blur"",""48"",""434842""
","""event"",""trial"",""time""
""focus"",""48"",""438412""
","""event"",""trial"",""time""
""fullscreenenter"",""1"",""126639""
","""event"",""trial"",""time""
""fullscreenexit"",""3"",""146828""
",,,,,,,,,,,,"[{""stimulus"":""run_exp/static/images/task_images/dig.jpg"",""time"":0.20000004768371582},{""stimulus"":""run_exp/static/images/task_images/land.jpg"",""time"":673.7000000476837},{""stimulus"":""run_exp/static/images/task_images/dig.jpg"",""time"":1338.7000000476837}]",[],2,,,,,,,,,,,,,,
harvest,91,865512,0.0-33.0-4.0,"""event"",""trial"",""time""
""fullscreenenter"",""1"",""126639""
""fullscreenexit"",""3"",""146828""
""blur"",""48"",""434842""
""focus"",""48"",""438412""
","""event"",""trial"",""time""
""blur"",""48"",""434842""
","""event"",""trial"",""time""
""focus"",""48"",""438412""
","""event"",""trial"",""time""
""fullscreenenter"",""1"",""126639""
","""event"",""trial"",""time""
""fullscreenexit"",""3"",""146828""
",,null,run_exp/static/images/task_images/gems/101.jpg,null,,,,,,,21,,,2,,,,,101,0.208537787,0.207920792,,,,,,,
decision,92,866449,0.0-33.0-5.0,"""event"",""trial"",""time""
""fullscreenenter"",""1"",""126639""
""fullscreenexit"",""3"",""146828""
""blur"",""48"",""434842""
""focus"",""48"",""438412""
","""event"",""trial"",""time""
""blur"",""48"",""434842""
","""event"",""trial"",""time""
""focus"",""48"",""438412""
","""event"",""trial"",""time""
""fullscreenenter"",""1"",""126639""
","""event"",""trial"",""time""
""fullscreenexit"",""3"",""146828""
",,935.8000001,run_exp/static/images/task_images/land.jpg,65,,,,,,,21,,,2,,,,,,,,36041,1,0,FALSE,,,
dig,93,868525,0.0-34.0-0.0,"""event"",""trial"",""time""
""fullscreenenter"",""1"",""126639""
""fullscreenexit"",""3"",""146828""
""blur"",""48"",""434842""
""focus"",""48"",""438412""
","""event"",""trial"",""time""
""blur"",""48"",""434842""
","""event"",""trial"",""time""
""focus"",""48"",""438412""
","""event"",""trial"",""time""
""fullscreenenter"",""1"",""126639""
","""event"",""trial"",""time""
""fullscreenexit"",""3"",""146828""
",,,,,,,,,,,,"[{""stimulus"":""run_exp/static/images/task_images/dig.jpg"",""time"":0.10000002384185791},{""stimulus"":""run_exp/static/images/task_images/land.jpg"",""time"":701.6000000238419},{""stimulus"":""run_exp/static/images/task_images/dig.jpg"",""time"":1399.3999999761581}]",[],2,,,,,,,,,,,,,,
harvest,94,869536,0.0-34.0-1.0,"""event"",""trial"",""time""
""fullscreenenter"",""1"",""126639""
""fullscreenexit"",""3"",""146828""
""blur"",""48"",""434842""
""focus"",""48"",""438412""
","""event"",""trial"",""time""
""blur"",""48"",""434842""
","""event"",""trial"",""time""
""focus"",""48"",""438412""
","""event"",""trial"",""time""
""fullscreenenter"",""1"",""126639""
","""event"",""trial"",""time""
""fullscreenexit"",""3"",""146828""
",,null,run_exp/static/images/task_images/gems/21.jpg,null,,,,,,,3,,,2,,,,,21,0.162640635,0.142857143,,,,,,,
decision,95,870398,0.0-34.0-2.0,"""event"",""trial"",""time""
""fullscreenenter"",""1"",""126639""
""fullscreenexit"",""3"",""146828""
""blur"",""48"",""434842""
""focus"",""48"",""438412""
","""event"",""trial"",""time""
""blur"",""48"",""434842""
","""event"",""trial"",""time""
""focus"",""48"",""438412""
","""event"",""trial"",""time""
""fullscreenenter"",""1"",""126639""
","""event"",""trial"",""time""
""fullscreenexit"",""3"",""146828""
",,861.5,run_exp/static/images/task_images/land.jpg,65,,,,,,,3,,,2,,,,,,,,39990,1,1,FALSE,,,
dig,96,872549,0.0-35.0-0.0,"""event"",""trial"",""time""
""fullscreenenter"",""1"",""126639""
""fullscreenexit"",""3"",""146828""
""blur"",""48"",""434842""
""focus"",""48"",""438412""
","""event"",""trial"",""time""
""blur"",""48"",""434842""
","""event"",""trial"",""time""
""focus"",""48"",""438412""
","""event"",""trial"",""time""
""fullscreenenter"",""1"",""126639""
","""event"",""trial"",""time""
""fullscreenexit"",""3"",""146828""
",,,,,,,,,,,,"[{""stimulus"":""run_exp/static/images/task_images/dig.jpg"",""time"":0},{""stimulus"":""run_exp/static/images/task_images/land.jpg"",""time"":713.5},{""stimulus"":""run_exp/static/images/task_images/dig.jpg"",""time"":1437.3999999761581}]",[],2,,,,,,,,,,,,,,
harvest,97,873561,0.0-35.0-1.0,"""event"",""trial"",""time""
""fullscreenenter"",""1"",""126639""
""fullscreenexit"",""3"",""146828""
""blur"",""48"",""434842""
""focus"",""48"",""438412""
","""event"",""trial"",""time""
""blur"",""48"",""434842""
","""event"",""trial"",""time""
""focus"",""48"",""438412""
","""event"",""trial"",""time""
""fullscreenenter"",""1"",""126639""
","""event"",""trial"",""time""
""fullscreenexit"",""3"",""146828""
",,null,run_exp/static/images/task_images/gems/3.jpg,null,,,,,,,1,,,2,,,,,3,0.303665155,0.333333333,,,,,,,
decision,98,873830,0.0-35.0-2.0,"""event"",""trial"",""time""
""fullscreenenter"",""1"",""126639""
""fullscreenexit"",""3"",""146828""
""blur"",""48"",""434842""
""focus"",""48"",""438412""
","""event"",""trial"",""time""
""blur"",""48"",""434842""
","""event"",""trial"",""time""
""focus"",""48"",""438412""
","""event"",""trial"",""time""
""fullscreenenter"",""1"",""126639""
","""event"",""trial"",""time""
""fullscreenexit"",""3"",""146828""
",,268.7,run_exp/static/images/task_images/land.jpg,76,,,,,,,1,,,2,,,,,,,,43422,1,2,TRUE,,,
travel,99,883568,0.0-36.0-0.0,"""event"",""trial"",""time""
""fullscreenenter"",""1"",""126639""
""fullscreenexit"",""3"",""146828""
""blur"",""48"",""434842""
""focus"",""48"",""438412""
","""event"",""trial"",""time""
""blur"",""48"",""434842""
","""event"",""trial"",""time""
""focus"",""48"",""438412""
","""event"",""trial"",""time""
""fullscreenenter"",""1"",""126639""
","""event"",""trial"",""time""
""fullscreenexit"",""3"",""146828""
",,,,,,,,,,,,"[{""stimulus"":""run_exp/static/images/task_images/rocket-01.jpg"",""time"":0.10000002384185791},{""stimulus"":""run_exp/static/images/task_images/rocket-02.jpg"",""time"":1092.7000000476837},{""stimulus"":""run_exp/static/images/task_images/rocket-03.jpg"",""time"":2165.600000023842},{""stimulus"":""run_exp/static/images/task_images/rocket-04.jpg"",""time"":3254.600000023842},{""stimulus"":""run_exp/static/images/task_images/rocket-05.jpg"",""time"":4324.800000071526},{""stimulus"":""run_exp/static/images/task_images/rocket-06.jpg"",""time"":5406.5},{""stimulus"":""run_exp/static/images/task_images/rocket-07.jpg"",""time"":6494.5},{""stimulus"":""run_exp/static/images/task_images/rocket-08.jpg"",""time"":7569.5},{""stimulus"":""run_exp/static/images/task_images/rocket-09.jpg"",""time"":8659.600000023842}]",[],2,,,,,,,,,,,,,,
alien_welcome,100,888576,0.0-36.0-1.0,"""event"",""trial"",""time""
""fullscreenenter"",""1"",""126639""
""fullscreenexit"",""3"",""146828""
""blur"",""48"",""434842""
""focus"",""48"",""438412""
","""event"",""trial"",""time""
""blur"",""48"",""434842""
","""event"",""trial"",""time""
""focus"",""48"",""438412""
","""event"",""trial"",""time""
""fullscreenenter"",""1"",""126639""
","""event"",""trial"",""time""
""fullscreenexit"",""3"",""146828""
",,null,run_exp/static/images/task_images/aliens/old_aliens/planet/alien_planet-16.jpg,null,,,,,,,,,,,,,16,"1,71,16,63,69,42,25,19,44,52,28,48,39,55,53,14,77,17,75,68,2,47,76,5,74,35,22,43,36,66,67,56,21,54,40,46,7,60,6,10,41,18,33,57",,,,,,,,,,
land,101,889082,0.0-36.0-2.0,"""event"",""trial"",""time""
""fullscreenenter"",""1"",""126639""
""fullscreenexit"",""3"",""146828""
""blur"",""48"",""434842""
""focus"",""48"",""438412""
","""event"",""trial"",""time""
""blur"",""48"",""434842""
","""event"",""trial"",""time""
""focus"",""48"",""438412""
","""event"",""trial"",""time""
""fullscreenenter"",""1"",""126639""
","""event"",""trial"",""time""
""fullscreenexit"",""3"",""146828""
",,null,run_exp/static/images/task_images/land.jpg,null,,,,,,,100,,,3,,,,,,,,,,,,,,
dig,102,891089,0.0-36.0-3.0,"""event"",""trial"",""time""
""fullscreenenter"",""1"",""126639""
""fullscreenexit"",""3"",""146828""
""blur"",""48"",""434842""
""focus"",""48"",""438412""
","""event"",""trial"",""time""
""blur"",""48"",""434842""
","""event"",""trial"",""time""
""focus"",""48"",""438412""
","""event"",""trial"",""time""
""fullscreenenter"",""1"",""126639""
","""event"",""trial"",""time""
""fullscreenexit"",""3"",""146828""
",,,,,,,,,,,,"[{""stimulus"":""run_exp/static/images/task_images/dig.jpg"",""time"":0.10000002384185791},{""stimulus"":""run_exp/static/images/task_images/land.jpg"",""time"":677.6999999284744},{""stimulus"":""run_exp/static/images/task_images/dig.jpg"",""time"":1348.7999999523163}]",[],3,,,,,,,,,,,,,,
harvest,103,892093,0.0-36.0-4.0,"""event"",""trial"",""time""
""fullscreenenter"",""1"",""126639""
""fullscreenexit"",""3"",""146828""
""blur"",""48"",""434842""
""focus"",""48"",""438412""
","""event"",""trial"",""time""
""blur"",""48"",""434842""
","""event"",""trial"",""time""
""focus"",""48"",""438412""
","""event"",""trial"",""time""
""fullscreenenter"",""1"",""126639""
","""event"",""trial"",""time""
""fullscreenexit"",""3"",""146828""
",,null,run_exp/static/images/task_images/gems/100.jpg,null,,,,,,,53,,,3,,,,,100,0.531412021,0.53,,,,,,,
decision,104,892408,0.0-36.0-5.0,"""event"",""trial"",""time""
""fullscreenenter"",""1"",""126639""
""fullscreenexit"",""3"",""146828""
""blur"",""48"",""434842""
""focus"",""48"",""438412""
","""event"",""trial"",""time""
""blur"",""48"",""434842""
","""event"",""trial"",""time""
""focus"",""48"",""438412""
","""event"",""trial"",""time""
""fullscreenenter"",""1"",""126639""
","""event"",""trial"",""time""
""fullscreenexit"",""3"",""146828""
",,314,run_exp/static/images/task_images/land.jpg,65,,,,,,,53,,,3,,,,,,,,62000,1,0,FALSE,,,
dig,105,895098,0.0-37.0-0.0,"""event"",""trial"",""time""
""fullscreenenter"",""1"",""126639""
""fullscreenexit"",""3"",""146828""
""blur"",""48"",""434842""
""focus"",""48"",""438412""
","""event"",""trial"",""time""
""blur"",""48"",""434842""
","""event"",""trial"",""time""
""focus"",""48"",""438412""
","""event"",""trial"",""time""
""fullscreenenter"",""1"",""126639""
","""event"",""trial"",""time""
""fullscreenexit"",""3"",""146828""
",,,,,,,,,,,,"[{""stimulus"":""run_exp/static/images/task_images/dig.jpg"",""time"":0.10000002384185791},{""stimulus"":""run_exp/static/images/task_images/land.jpg"",""time"":896.6000000238419},{""stimulus"":""run_exp/static/images/task_images/dig.jpg"",""time"":1805.3000000715256}]",[],3,,,,,,,,,,,,,,
harvest,106,896107,0.0-37.0-1.0,"""event"",""trial"",""time""
""fullscreenenter"",""1"",""126639""
""fullscreenexit"",""3"",""146828""
""blur"",""48"",""434842""
""focus"",""48"",""438412""
","""event"",""trial"",""time""
""blur"",""48"",""434842""
","""event"",""trial"",""time""
""focus"",""48"",""438412""
","""event"",""trial"",""time""
""fullscreenenter"",""1"",""126639""
","""event"",""trial"",""time""
""fullscreenexit"",""3"",""146828""
",,null,run_exp/static/images/task_images/gems/53.jpg,null,,,,,,,27,,,3,,,,,53,0.504734958,0.509433962,,,,,,,
decision,107,896382,0.0-37.0-2.0,"""event"",""trial"",""time""
""fullscreenenter"",""1"",""126639""
""fullscreenexit"",""3"",""146828""
""blur"",""48"",""434842""
""focus"",""48"",""438412""
","""event"",""trial"",""time""
""blur"",""48"",""434842""
","""event"",""trial"",""time""
""focus"",""48"",""438412""
","""event"",""trial"",""time""
""fullscreenenter"",""1"",""126639""
","""event"",""trial"",""time""
""fullscreenexit"",""3"",""146828""
",,274.6999999,run_exp/static/images/task_images/land.jpg,65,,,,,,,27,,,3,,,,,,,,65974,1,1,FALSE,,,
dig,108,899111,0.0-38.0-0.0,"""event"",""trial"",""time""
""fullscreenenter"",""1"",""126639""
""fullscreenexit"",""3"",""146828""
""blur"",""48"",""434842""
""focus"",""48"",""438412""
","""event"",""trial"",""time""
""blur"",""48"",""434842""
","""event"",""trial"",""time""
""focus"",""48"",""438412""
","""event"",""trial"",""time""
""fullscreenenter"",""1"",""126639""
","""event"",""trial"",""time""
""fullscreenexit"",""3"",""146828""
",,,,,,,,,,,,"[{""stimulus"":""run_exp/static/images/task_images/dig.jpg"",""time"":0.10000002384185791},{""stimulus"":""run_exp/static/images/task_images/land.jpg"",""time"":924.1000000238419},{""stimulus"":""run_exp/static/images/task_images/dig.jpg"",""time"":1827.6000000238419}]",[],3,,,,,,,,,,,,,,
harvest,109,900117,0.0-38.0-1.0,"""event"",""trial"",""time""
""fullscreenenter"",""1"",""126639""
""fullscreenexit"",""3"",""146828""
""blur"",""48"",""434842""
""focus"",""48"",""438412""
","""event"",""trial"",""time""
""blur"",""48"",""434842""
","""event"",""trial"",""time""
""focus"",""48"",""438412""
","""event"",""trial"",""time""
""fullscreenenter"",""1"",""126639""
","""event"",""trial"",""time""
""fullscreenexit"",""3"",""146828""
",,null,run_exp/static/images/task_images/gems/27.jpg,null,,,,,,,14,,,3,,,,,27,0.503566916,0.518518519,,,,,,,
decision,110,900388,0.0-38.0-2.0,"""event"",""trial"",""time""
""fullscreenenter"",""1"",""126639""
""fullscreenexit"",""3"",""146828""
""blur"",""48"",""434842""
""focus"",""48"",""438412""
","""event"",""trial"",""time""
""blur"",""48"",""434842""
","""event"",""trial"",""time""
""focus"",""48"",""438412""
","""event"",""trial"",""time""
""fullscreenenter"",""1"",""126639""
","""event"",""trial"",""time""
""fullscreenexit"",""3"",""146828""
",,259.1,run_exp/static/images/task_images/land.jpg,65,,,,,,,14,,,3,,,,,,,,69980,1,2,FALSE,,,
dig,111,903138,0.0-39.0-0.0,"""event"",""trial"",""time""
""fullscreenenter"",""1"",""126639""
""fullscreenexit"",""3"",""146828""
""blur"",""48"",""434842""
""focus"",""48"",""438412""
","""event"",""trial"",""time""
""blur"",""48"",""434842""
","""event"",""trial"",""time""
""focus"",""48"",""438412""
","""event"",""trial"",""time""
""fullscreenenter"",""1"",""126639""
","""event"",""trial"",""time""
""fullscreenexit"",""3"",""146828""
",,,,,,,,,,,,"[{""stimulus"":""run_exp/static/images/task_images/dig.jpg"",""time"":0.10000002384185791},{""stimulus"":""run_exp/static/images/task_images/land.jpg"",""time"":919},{""stimulus"":""run_exp/static/images/task_images/dig.jpg"",""time"":1832.7000000476837}]",[],3,,,,,,,,,,,,,,
harvest,112,904146,0.0-39.0-1.0,"""event"",""trial"",""time""
""fullscreenenter"",""1"",""126639""
""fullscreenexit"",""3"",""146828""
""blur"",""48"",""434842""
""focus"",""48"",""438412""
","""event"",""trial"",""time""
""blur"",""48"",""434842""
","""event"",""trial"",""time""
""focus"",""48"",""438412""
","""event"",""trial"",""time""
""fullscreenenter"",""1"",""126639""
","""event"",""trial"",""time""
""fullscreenexit"",""3"",""146828""
",,null,run_exp/static/images/task_images/gems/14.jpg,null,,,,,,,5,,,3,,,,,14,0.35373942,0.357142857,,,,,,,
decision,113,904476,0.0-39.0-2.0,"""event"",""trial"",""time""
""fullscreenenter"",""1"",""126639""
""fullscreenexit"",""3"",""146828""
""blur"",""48"",""434842""
""focus"",""48"",""438412""
","""event"",""trial"",""time""
""blur"",""48"",""434842""
","""event"",""trial"",""time""
""focus"",""48"",""438412""
","""event"",""trial"",""time""
""fullscreenenter"",""1"",""126639""
","""event"",""trial"",""time""
""fullscreenexit"",""3"",""146828""
",,328.8,run_exp/static/images/task_images/land.jpg,65,,,,,,,5,,,3,,,,,,,,74068,1,3,FALSE,,,
dig,114,907158,0.0-40.0-0.0,"""event"",""trial"",""time""
""fullscreenenter"",""1"",""126639""
""fullscreenexit"",""3"",""146828""
""blur"",""48"",""434842""
""focus"",""48"",""438412""
","""event"",""trial"",""time""
""blur"",""48"",""434842""
","""event"",""trial"",""time""
""focus"",""48"",""438412""
","""event"",""trial"",""time""
""fullscreenenter"",""1"",""126639""
","""event"",""trial"",""time""
""fullscreenexit"",""3"",""146828""
",,,,,,,,,,,,"[{""stimulus"":""run_exp/static/images/task_images/dig.jpg"",""time"":0},{""stimulus"":""run_exp/static/images/task_images/land.jpg"",""time"":898.5},{""stimulus"":""run_exp/static/images/task_images/dig.jpg"",""time"":1782.6000000238419}]",[],3,,,,,,,,,,,,,,
harvest,115,908168,0.0-40.0-1.0,"""event"",""trial"",""time""
""fullscreenenter"",""1"",""126639""
""fullscreenexit"",""3"",""146828""
""blur"",""48"",""434842""
""focus"",""48"",""438412""
","""event"",""trial"",""time""
""blur"",""48"",""434842""
","""event"",""trial"",""time""
""focus"",""48"",""438412""
","""event"",""trial"",""time""
""fullscreenenter"",""1"",""126639""
","""event"",""trial"",""time""
""fullscreenexit"",""3"",""146828""
",,null,run_exp/static/images/task_images/gems/5.jpg,null,,,,,,,2,,,3,,,,,5,0.467028456,0.4,,,,,,,
decision,116,908424,0.0-40.0-2.0,"""event"",""trial"",""time""
""fullscreenenter"",""1"",""126639""
""fullscreenexit"",""3"",""146828""
""blur"",""48"",""434842""
""focus"",""48"",""438412""
","""event"",""trial"",""time""
""blur"",""48"",""434842""
","""event"",""trial"",""time""
""focus"",""48"",""438412""
","""event"",""trial"",""time""
""fullscreenenter"",""1"",""126639""
","""event"",""trial"",""time""
""fullscreenexit"",""3"",""146828""
",,254.8,run_exp/static/images/task_images/land.jpg,76,,,,,,,2,,,3,,,,,,,,78016,1,4,TRUE,,,
travel,117,918178,0.0-41.0-0.0,"""event"",""trial"",""time""
""fullscreenenter"",""1"",""126639""
""fullscreenexit"",""3"",""146828""
""blur"",""48"",""434842""
""focus"",""48"",""438412""
","""event"",""trial"",""time""
""blur"",""48"",""434842""
","""event"",""trial"",""time""
""focus"",""48"",""438412""
","""event"",""trial"",""time""
""fullscreenenter"",""1"",""126639""
","""event"",""trial"",""time""
""fullscreenexit"",""3"",""146828""
",,,,,,,,,,,,"[{""stimulus"":""run_exp/static/images/task_images/rocket-01.jpg"",""time"":0.10000002384185791},{""stimulus"":""run_exp/static/images/task_images/rocket-02.jpg"",""time"":1095.5},{""stimulus"":""run_exp/static/images/task_images/rocket-03.jpg"",""time"":2169.2999999523163},{""stimulus"":""run_exp/static/images/task_images/rocket-04.jpg"",""time"":3252.399999976158},{""stimulus"":""run_exp/static/images/task_images/rocket-05.jpg"",""time"":4335.700000047684},{""stimulus"":""run_exp/static/images/task_images/rocket-06.jpg"",""time"":5425.700000047684},{""stimulus"":""run_exp/static/images/task_images/rocket-07.jpg"",""time"":6493},{""stimulus"":""run_exp/static/images/task_images/rocket-08.jpg"",""time"":7576.700000047684},{""stimulus"":""run_exp/static/images/task_images/rocket-09.jpg"",""time"":8664.5}]",[],3,,,,,,,,,,,,,,
alien_welcome,118,923185,0.0-41.0-1.0,"""event"",""trial"",""time""
""fullscreenenter"",""1"",""126639""
""fullscreenexit"",""3"",""146828""
""blur"",""48"",""434842""
""focus"",""48"",""438412""
","""event"",""trial"",""time""
""blur"",""48"",""434842""
","""event"",""trial"",""time""
""focus"",""48"",""438412""
","""event"",""trial"",""time""
""fullscreenenter"",""1"",""126639""
","""event"",""trial"",""time""
""fullscreenexit"",""3"",""146828""
",,null,run_exp/static/images/task_images/aliens/old_aliens/planet/alien_planet-63.jpg,null,,,,,,,,,,,,,63,"1,71,16,63,69,42,25,19,44,52,28,48,39,55,53,14,77,17,75,68,2,47,76,5,74,35,22,43,36,66,67,56,21,54,40,46,7,60,6,10,41,18,33,57",,,,,,,,,,
land,119,923691,0.0-41.0-2.0,"""event"",""trial"",""time""
""fullscreenenter"",""1"",""126639""
""fullscreenexit"",""3"",""146828""
""blur"",""48"",""434842""
""focus"",""48"",""438412""
","""event"",""trial"",""time""
""blur"",""48"",""434842""
","""event"",""trial"",""time""
""focus"",""48"",""438412""
","""event"",""trial"",""time""
""fullscreenenter"",""1"",""126639""
","""event"",""trial"",""time""
""fullscreenexit"",""3"",""146828""
",,null,run_exp/static/images/task_images/land.jpg,null,,,,,,,96,,,4,,,,,,,,,,,,,,
dig,120,925705,0.0-41.0-3.0,"""event"",""trial"",""time""
""fullscreenenter"",""1"",""126639""
""fullscreenexit"",""3"",""146828""
""blur"",""48"",""434842""
""focus"",""48"",""438412""
","""event"",""trial"",""time""
""blur"",""48"",""434842""
","""event"",""trial"",""time""
""focus"",""48"",""438412""
","""event"",""trial"",""time""
""fullscreenenter"",""1"",""126639""
","""event"",""trial"",""time""
""fullscreenexit"",""3"",""146828""
",,,,,,,,,,,,"[{""stimulus"":""run_exp/static/images/task_images/dig.jpg"",""time"":0.09999990463256836},{""stimulus"":""run_exp/static/images/task_images/land.jpg"",""time"":674.3999999761581},{""stimulus"":""run_exp/static/images/task_images/dig.jpg"",""time"":1339.3999999761581}]",[],4,,,,,,,,,,,,,,
harvest,121,926714,0.0-41.0-4.0,"""event"",""trial"",""time""
""fullscreenenter"",""1"",""126639""
""fullscreenexit"",""3"",""146828""
""blur"",""48"",""434842""
""focus"",""48"",""438412""
","""event"",""trial"",""time""
""blur"",""48"",""434842""
","""event"",""trial"",""time""
""focus"",""48"",""438412""
","""event"",""trial"",""time""
""fullscreenenter"",""1"",""126639""
","""event"",""trial"",""time""
""fullscreenexit"",""3"",""146828""
",,null,run_exp/static/images/task_images/gems/96.jpg,null,,,,,,,43,,,4,,,,,96,0.44951184,0.447916667,,,,,,,
decision,122,927098,0.0-41.0-5.0,"""event"",""trial"",""time""
""fullscreenenter"",""1"",""126639""
""fullscreenexit"",""3"",""146828""
""blur"",""48"",""434842""
""focus"",""48"",""438412""
","""event"",""trial"",""time""
""blur"",""48"",""434842""
","""event"",""trial"",""time""
""focus"",""48"",""438412""
","""event"",""trial"",""time""
""fullscreenenter"",""1"",""126639""
","""event"",""trial"",""time""
""fullscreenexit"",""3"",""146828""
",,383.6,run_exp/static/images/task_images/land.jpg,65,,,,,,,43,,,4,,,,,,,,96690,1,0,FALSE,,,
dig,123,929728,0.0-42.0-0.0,"""event"",""trial"",""time""
""fullscreenenter"",""1"",""126639""
""fullscreenexit"",""3"",""146828""
""blur"",""48"",""434842""
""focus"",""48"",""438412""
","""event"",""trial"",""time""
""blur"",""48"",""434842""
","""event"",""trial"",""time""
""focus"",""48"",""438412""
","""event"",""trial"",""time""
""fullscreenenter"",""1"",""126639""
","""event"",""trial"",""time""
""fullscreenexit"",""3"",""146828""
",,,,,,,,,,,,"[{""stimulus"":""run_exp/static/images/task_images/dig.jpg"",""time"":0},{""stimulus"":""run_exp/static/images/task_images/land.jpg"",""time"":877.0999999046326},{""stimulus"":""run_exp/static/images/task_images/dig.jpg"",""time"":1746.3999999761581}]",[],4,,,,,,,,,,,,,,
harvest,124,930734,0.0-42.0-1.0,"""event"",""trial"",""time""
""fullscreenenter"",""1"",""126639""
""fullscreenexit"",""3"",""146828""
""blur"",""48"",""434842""
""focus"",""48"",""438412""
","""event"",""trial"",""time""
""blur"",""48"",""434842""
","""event"",""trial"",""time""
""focus"",""48"",""438412""
","""event"",""trial"",""time""
""fullscreenenter"",""1"",""126639""
","""event"",""trial"",""time""
""fullscreenexit"",""3"",""146828""
",,null,run_exp/static/images/task_images/gems/43.jpg,null,,,,,,,24,,,4,,,,,43,0.550104038,0.558139535,,,,,,,
decision,125,931003,0.0-42.0-2.0,"""event"",""trial"",""time""
""fullscreenenter"",""1"",""126639""
""fullscreenexit"",""3"",""146828""
""blur"",""48"",""434842""
""focus"",""48"",""438412""
","""event"",""trial"",""time""
""blur"",""48"",""434842""
","""event"",""trial"",""time""
""focus"",""48"",""438412""
","""event"",""trial"",""time""
""fullscreenenter"",""1"",""126639""
","""event"",""trial"",""time""
""fullscreenexit"",""3"",""146828""
",,268.6,run_exp/static/images/task_images/land.jpg,65,,,,,,,24,,,4,,,,,,,,100595,1,1,FALSE,,,
dig,126,933750,0.0-43.0-0.0,"""event"",""trial"",""time""
""fullscreenenter"",""1"",""126639""
""fullscreenexit"",""3"",""146828""
""blur"",""48"",""434842""
""focus"",""48"",""438412""
","""event"",""trial"",""time""
""blur"",""48"",""434842""
","""event"",""trial"",""time""
""focus"",""48"",""438412""
","""event"",""trial"",""time""
""fullscreenenter"",""1"",""126639""
","""event"",""trial"",""time""
""fullscreenexit"",""3"",""146828""
",,,,,,,,,,,,"[{""stimulus"":""run_exp/static/images/task_images/dig.jpg"",""time"":0.10000002384185791},{""stimulus"":""run_exp/static/images/task_images/land.jpg"",""time"":915.1000000238419},{""stimulus"":""run_exp/static/images/task_images/dig.jpg"",""time"":1828.7000000476837}]",[],4,,,,,,,,,,,,,,
harvest,127,934759,0.0-43.0-1.0,"""event"",""trial"",""time""
""fullscreenenter"",""1"",""126639""
""fullscreenexit"",""3"",""146828""
""blur"",""48"",""434842""
""focus"",""48"",""438412""
","""event"",""trial"",""time""
""blur"",""48"",""434842""
","""event"",""trial"",""time""
""focus"",""48"",""438412""
","""event"",""trial"",""time""
""fullscreenenter"",""1"",""126639""
","""event"",""trial"",""time""
""fullscreenexit"",""3"",""146828""
",,null,run_exp/static/images/task_images/gems/24.jpg,null,,,,,,,10,,,4,,,,,24,0.4089238,0.416666667,,,,,,,
decision,128,935378,0.0-43.0-2.0,"""event"",""trial"",""time""
""fullscreenenter"",""1"",""126639""
""fullscreenexit"",""3"",""146828""
""blur"",""48"",""434842""
""focus"",""48"",""438412""
","""event"",""trial"",""time""
""blur"",""48"",""434842""
","""event"",""trial"",""time""
""focus"",""48"",""438412""
","""event"",""trial"",""time""
""fullscreenenter"",""1"",""126639""
","""event"",""trial"",""time""
""fullscreenexit"",""3"",""146828""
",,618.1,run_exp/static/images/task_images/land.jpg,65,,,,,,,10,,,4,,,,,,,,104970,1,2,FALSE,,,
dig,129,937768,0.0-44.0-0.0,"""event"",""trial"",""time""
""fullscreenenter"",""1"",""126639""
""fullscreenexit"",""3"",""146828""
""blur"",""48"",""434842""
""focus"",""48"",""438412""
","""event"",""trial"",""time""
""blur"",""48"",""434842""
","""event"",""trial"",""time""
""focus"",""48"",""438412""
","""event"",""trial"",""time""
""fullscreenenter"",""1"",""126639""
","""event"",""trial"",""time""
""fullscreenexit"",""3"",""146828""
",,,,,,,,,,,,"[{""stimulus"":""run_exp/static/images/task_images/dig.jpg"",""time"":0},{""stimulus"":""run_exp/static/images/task_images/land.jpg"",""time"":799.7000000476837},{""stimulus"":""run_exp/static/images/task_images/dig.jpg"",""time"":1586.6000000238419}]",[],4,,,,,,,,,,,,,,
harvest,130,938775,0.0-44.0-1.0,"""event"",""trial"",""time""
""fullscreenenter"",""1"",""126639""
""fullscreenexit"",""3"",""146828""
""blur"",""48"",""434842""
""focus"",""48"",""438412""
","""event"",""trial"",""time""
""blur"",""48"",""434842""
","""event"",""trial"",""time""
""focus"",""48"",""438412""
","""event"",""trial"",""time""
""fullscreenenter"",""1"",""126639""
","""event"",""trial"",""time""
""fullscreenexit"",""3"",""146828""
",,null,run_exp/static/images/task_images/gems/10.jpg,null,,,,,,,5,,,4,,,,,10,0.484359888,0.5,,,,,,,
decision,131,939456,0.0-44.0-2.0,"""event"",""trial"",""time""
""fullscreenenter"",""1"",""126639""
""fullscreenexit"",""3"",""146828""
""blur"",""48"",""434842""
""focus"",""48"",""438412""
","""event"",""trial"",""time""
""blur"",""48"",""434842""
","""event"",""trial"",""time""
""focus"",""48"",""438412""
","""event"",""trial"",""time""
""fullscreenenter"",""1"",""126639""
","""event"",""trial"",""time""
""fullscreenexit"",""3"",""146828""
",,680.6,run_exp/static/images/task_images/land.jpg,76,,,,,,,5,,,4,,,,,,,,109048,1,3,TRUE,,,
travel,132,948778,0.0-45.0-0.0,"""event"",""trial"",""time""
""fullscreenenter"",""1"",""126639""
""fullscreenexit"",""3"",""146828""
""blur"",""48"",""434842""
""focus"",""48"",""438412""
","""event"",""trial"",""time""
""blur"",""48"",""434842""
","""event"",""trial"",""time""
""focus"",""48"",""438412""
","""event"",""trial"",""time""
""fullscreenenter"",""1"",""126639""
","""event"",""trial"",""time""
""fullscreenexit"",""3"",""146828""
",,,,,,,,,,,,"[{""stimulus"":""run_exp/static/images/task_images/rocket-01.jpg"",""time"":0},{""stimulus"":""run_exp/static/images/task_images/rocket-02.jpg"",""time"":1044.5},{""stimulus"":""run_exp/static/images/task_images/rocket-03.jpg"",""time"":2072.5},{""stimulus"":""run_exp/static/images/task_images/rocket-04.jpg"",""time"":3111.2999999523163},{""stimulus"":""run_exp/static/images/task_images/rocket-05.jpg"",""time"":4140.5},{""stimulus"":""run_exp/static/images/task_images/rocket-06.jpg"",""time"":5182.799999952316},{""stimulus"":""run_exp/static/images/task_images/rocket-07.jpg"",""time"":6219.700000047684},{""stimulus"":""run_exp/static/images/task_images/rocket-08.jpg"",""time"":7260.5},{""stimulus"":""run_exp/static/images/task_images/rocket-09.jpg"",""time"":8282.5}]",[],4,,,,,,,,,,,,,,
alien_welcome,133,953790,0.0-45.0-1.0,"""event"",""trial"",""time""
""fullscreenenter"",""1"",""126639""
""fullscreenexit"",""3"",""146828""
""blur"",""48"",""434842""
""focus"",""48"",""438412""
","""event"",""trial"",""time""
""blur"",""48"",""434842""
","""event"",""trial"",""time""
""focus"",""48"",""438412""
","""event"",""trial"",""time""
""fullscreenenter"",""1"",""126639""
","""event"",""trial"",""time""
""fullscreenexit"",""3"",""146828""
",,null,run_exp/static/images/task_images/aliens/old_aliens/planet/alien_planet-69.jpg,null,,,,,,,,,,,,,69,"1,71,16,63,69,42,25,19,44,52,28,48,39,55,53,14,77,17,75,68,2,47,76,5,74,35,22,43,36,66,67,56,21,54,40,46,7,60,6,10,41,18,33,57",,,,,,,,,,
land,134,954295,0.0-45.0-2.0,"""event"",""trial"",""time""
""fullscreenenter"",""1"",""126639""
""fullscreenexit"",""3"",""146828""
""blur"",""48"",""434842""
""focus"",""48"",""438412""
","""event"",""trial"",""time""
""blur"",""48"",""434842""
","""event"",""trial"",""time""
""focus"",""48"",""438412""
","""event"",""trial"",""time""
""fullscreenenter"",""1"",""126639""
","""event"",""trial"",""time""
""fullscreenexit"",""3"",""146828""
",,null,run_exp/static/images/task_images/land.jpg,null,,,,,,,104,,,5,,,,,,,,,,,,,,
dig,135,956304,0.0-45.0-3.0,"""event"",""trial"",""time""
""fullscreenenter"",""1"",""126639""
""fullscreenexit"",""3"",""146828""
""blur"",""48"",""434842""
""focus"",""48"",""438412""
","""event"",""trial"",""time""
""blur"",""48"",""434842""
","""event"",""trial"",""time""
""focus"",""48"",""438412""
","""event"",""trial"",""time""
""fullscreenenter"",""1"",""126639""
","""event"",""trial"",""time""
""fullscreenexit"",""3"",""146828""
",,,,,,,,,,,,"[{""stimulus"":""run_exp/static/images/task_images/dig.jpg"",""time"":0},{""stimulus"":""run_exp/static/images/task_images/land.jpg"",""time"":673.1000000238419},{""stimulus"":""run_exp/static/images/task_images/dig.jpg"",""time"":1347.7999999523163}]",[],5,,,,,,,,,,,,,,
harvest,136,957307,0.0-45.0-4.0,"""event"",""trial"",""time""
""fullscreenenter"",""1"",""126639""
""fullscreenexit"",""3"",""146828""
""blur"",""48"",""434842""
""focus"",""48"",""438412""
","""event"",""trial"",""time""
""blur"",""48"",""434842""
","""event"",""trial"",""time""
""focus"",""48"",""438412""
","""event"",""trial"",""time""
""fullscreenenter"",""1"",""126639""
","""event"",""trial"",""time""
""fullscreenexit"",""3"",""146828""
",,null,run_exp/static/images/task_images/gems/104.jpg,null,,,,,,,47,,,5,,,,,104,0.4517941,0.451923077,,,,,,,
decision,137,957802,0.0-45.0-5.0,"""event"",""trial"",""time""
""fullscreenenter"",""1"",""126639""
""fullscreenexit"",""3"",""146828""
""blur"",""48"",""434842""
""focus"",""48"",""438412""
","""event"",""trial"",""time""
""blur"",""48"",""434842""
","""event"",""trial"",""time""
""focus"",""48"",""438412""
","""event"",""trial"",""time""
""fullscreenenter"",""1"",""126639""
","""event"",""trial"",""time""
""fullscreenexit"",""3"",""146828""
",,493.6999999,run_exp/static/images/task_images/land.jpg,65,,,,,,,47,,,5,,,,,,,,127394,1,0,FALSE,,,
dig,138,960321,0.0-46.0-0.0,"""event"",""trial"",""time""
""fullscreenenter"",""1"",""126639""
""fullscreenexit"",""3"",""146828""
""blur"",""48"",""434842""
""focus"",""48"",""438412""
","""event"",""trial"",""time""
""blur"",""48"",""434842""
","""event"",""trial"",""time""
""focus"",""48"",""438412""
","""event"",""trial"",""time""
""fullscreenenter"",""1"",""126639""
","""event"",""trial"",""time""
""fullscreenexit"",""3"",""146828""
",,,,,,,,,,,,"[{""stimulus"":""run_exp/static/images/task_images/dig.jpg"",""time"":0},{""stimulus"":""run_exp/static/images/task_images/land.jpg"",""time"":846.8000000715256},{""stimulus"":""run_exp/static/images/task_images/dig.jpg"",""time"":1681.6000000238419}]",[],5,,,,,,,,,,,,,,
harvest,139,961327,0.0-46.0-1.0,"""event"",""trial"",""time""
""fullscreenenter"",""1"",""126639""
""fullscreenexit"",""3"",""146828""
""blur"",""48"",""434842""
""focus"",""48"",""438412""
","""event"",""trial"",""time""
""blur"",""48"",""434842""
","""event"",""trial"",""time""
""focus"",""48"",""438412""
","""event"",""trial"",""time""
""fullscreenenter"",""1"",""126639""
","""event"",""trial"",""time""
""fullscreenexit"",""3"",""146828""
",,null,run_exp/static/images/task_images/gems/47.jpg,null,,,,,,,21,,,5,,,,,47,0.439707409,0.446808511,,,,,,,
decision,140,961819,0.0-46.0-2.0,"""event"",""trial"",""time""
""fullscreenenter"",""1"",""126639""
""fullscreenexit"",""3"",""146828""
""blur"",""48"",""434842""
""focus"",""48"",""438412""
","""event"",""trial"",""time""
""blur"",""48"",""434842""
","""event"",""trial"",""time""
""focus"",""48"",""438412""
","""event"",""trial"",""time""
""fullscreenenter"",""1"",""126639""
","""event"",""trial"",""time""
""fullscreenexit"",""3"",""146828""
",,491.3,run_exp/static/images/task_images/land.jpg,65,,,,,,,21,,,5,,,,,,,,131411,1,1,FALSE,,,
dig,141,964342,0.0-47.0-0.0,"""event"",""trial"",""time""
""fullscreenenter"",""1"",""126639""
""fullscreenexit"",""3"",""146828""
""blur"",""48"",""434842""
""focus"",""48"",""438412""
","""event"",""trial"",""time""
""blur"",""48"",""434842""
","""event"",""trial"",""time""
""focus"",""48"",""438412""
","""event"",""trial"",""time""
""fullscreenenter"",""1"",""126639""
","""event"",""trial"",""time""
""fullscreenexit"",""3"",""146828""
",,,,,,,,,,,,"[{""stimulus"":""run_exp/static/images/task_images/dig.jpg"",""time"":0},{""stimulus"":""run_exp/static/images/task_images/land.jpg"",""time"":843.1000000238419},{""stimulus"":""run_exp/static/images/task_images/dig.jpg"",""time"":1687.8000000715256}]",[],5,,,,,,,,,,,,,,
harvest,142,965352,0.0-47.0-1.0,"""event"",""trial"",""time""
""fullscreenenter"",""1"",""126639""
""fullscreenexit"",""3"",""146828""
""blur"",""48"",""434842""
""focus"",""48"",""438412""
","""event"",""trial"",""time""
""blur"",""48"",""434842""
","""event"",""trial"",""time""
""focus"",""48"",""438412""
","""event"",""trial"",""time""
""fullscreenenter"",""1"",""126639""
","""event"",""trial"",""time""
""fullscreenexit"",""3"",""146828""
",,null,run_exp/static/images/task_images/gems/21.jpg,null,,,,,,,11,,,5,,,,,21,0.505462653,0.523809524,,,,,,,
decision,143,965810,0.0-47.0-2.0,"""event"",""trial"",""time""
""fullscreenenter"",""1"",""126639""
""fullscreenexit"",""3"",""146828""
""blur"",""48"",""434842""
""focus"",""48"",""438412""
","""event"",""trial"",""time""
""blur"",""48"",""434842""
","""event"",""trial"",""time""
""focus"",""48"",""438412""
","""event"",""trial"",""time""
""fullscreenenter"",""1"",""126639""
","""event"",""trial"",""time""
""fullscreenexit"",""3"",""146828""
",,456.6999999,run_exp/static/images/task_images/land.jpg,65,,,,,,,11,,,5,,,,,,,,135402,1,2,FALSE,,,
dig,144,968364,0.0-48.0-0.0,"""event"",""trial"",""time""
""fullscreenenter"",""1"",""126639""
""fullscreenexit"",""3"",""146828""
""blur"",""48"",""434842""
""focus"",""48"",""438412""
","""event"",""trial"",""time""
""blur"",""48"",""434842""
","""event"",""trial"",""time""
""focus"",""48"",""438412""
","""event"",""trial"",""time""
""fullscreenenter"",""1"",""126639""
","""event"",""trial"",""time""
""fullscreenexit"",""3"",""146828""
",,,,,,,,,,,,"[{""stimulus"":""run_exp/static/images/task_images/dig.jpg"",""time"":0.10000002384185791},{""stimulus"":""run_exp/static/images/task_images/land.jpg"",""time"":859.5},{""stimulus"":""run_exp/static/images/task_images/dig.jpg"",""time"":1704.3999999761581}]",[],5,,,,,,,,,,,,,,
harvest,145,969369,0.0-48.0-1.0,"""event"",""trial"",""time""
""fullscreenenter"",""1"",""126639""
""fullscreenexit"",""3"",""146828""
""blur"",""48"",""434842""
""focus"",""48"",""438412""
","""event"",""trial"",""time""
""blur"",""48"",""434842""
","""event"",""trial"",""time""
""focus"",""48"",""438412""
","""event"",""trial"",""time""
""fullscreenenter"",""1"",""126639""
","""event"",""trial"",""time""
""fullscreenexit"",""3"",""146828""
",,null,run_exp/static/images/task_images/gems/11.jpg,null,,,,,,,5,,,5,,,,,11,0.478615475,0.454545455,,,,,,,
decision,146,969655,0.0-48.0-2.0,"""event"",""trial"",""time""
""fullscreenenter"",""1"",""126639""
""fullscreenexit"",""3"",""146828""
""blur"",""48"",""434842""
""focus"",""48"",""438412""
","""event"",""trial"",""time""
""blur"",""48"",""434842""
","""event"",""trial"",""time""
""focus"",""48"",""438412""
","""event"",""trial"",""time""
""fullscreenenter"",""1"",""126639""
","""event"",""trial"",""time""
""fullscreenexit"",""3"",""146828""
",,285.6,run_exp/static/images/task_images/land.jpg,76,,,,,,,5,,,5,,,,,,,,139247,1,3,TRUE,,,
travel,147,979376,0.0-49.0-0.0,"""event"",""trial"",""time""
""fullscreenenter"",""1"",""126639""
""fullscreenexit"",""3"",""146828""
""blur"",""48"",""434842""
""focus"",""48"",""438412""
","""event"",""trial"",""time""
""blur"",""48"",""434842""
","""event"",""trial"",""time""
""focus"",""48"",""438412""
","""event"",""trial"",""time""
""fullscreenenter"",""1"",""126639""
","""event"",""trial"",""time""
""fullscreenexit"",""3"",""146828""
",,,,,,,,,,,,"[{""stimulus"":""run_exp/static/images/task_images/rocket-01.jpg"",""time"":0.09999990463256836},{""stimulus"":""run_exp/static/images/task_images/rocket-02.jpg"",""time"":1090.5999999046326},{""stimulus"":""run_exp/static/images/task_images/rocket-03.jpg"",""time"":2168.399999976158},{""stimulus"":""run_exp/static/images/task_images/rocket-04.jpg"",""time"":3249.5},{""stimulus"":""run_exp/static/images/task_images/rocket-05.jpg"",""time"":4321.699999928474},{""stimulus"":""run_exp/static/images/task_images/rocket-06.jpg"",""time"":5398.5},{""stimulus"":""run_exp/static/images/task_images/rocket-07.jpg"",""time"":6476.299999952316},{""stimulus"":""run_exp/static/images/task_images/rocket-08.jpg"",""time"":7554.799999952316},{""stimulus"":""run_exp/static/images/task_images/rocket-09.jpg"",""time"":8639.099999904633}]",[],5,,,,,,,,,,,,,,
alien_welcome,148,984392,0.0-49.0-1.0,"""event"",""trial"",""time""
""fullscreenenter"",""1"",""126639""
""fullscreenexit"",""3"",""146828""
""blur"",""48"",""434842""
""focus"",""48"",""438412""
","""event"",""trial"",""time""
""blur"",""48"",""434842""
","""event"",""trial"",""time""
""focus"",""48"",""438412""
","""event"",""trial"",""time""
""fullscreenenter"",""1"",""126639""
","""event"",""trial"",""time""
""fullscreenexit"",""3"",""146828""
",,null,run_exp/static/images/task_images/aliens/old_aliens/planet/alien_planet-42.jpg,null,,,,,,,,,,,,,42,"1,71,16,63,69,42,25,19,44,52,28,48,39,55,53,14,77,17,75,68,2,47,76,5,74,35,22,43,36,66,67,56,21,54,40,46,7,60,6,10,41,18,33,57",,,,,,,,,,
land,149,984906,0.0-49.0-2.0,"""event"",""trial"",""time""
""fullscreenenter"",""1"",""126639""
""fullscreenexit"",""3"",""146828""
""blur"",""48"",""434842""
""focus"",""48"",""438412""
","""event"",""trial"",""time""
""blur"",""48"",""434842""
","""event"",""trial"",""time""
""focus"",""48"",""438412""
","""event"",""trial"",""time""
""fullscreenenter"",""1"",""126639""
","""event"",""trial"",""time""
""fullscreenexit"",""3"",""146828""
",,null,run_exp/static/images/task_images/land.jpg,null,,,,,,,109,,,6,,,,,,,,,,,,,,
dig,150,986910,0.0-49.0-3.0,"""event"",""trial"",""time""
""fullscreenenter"",""1"",""126639""
""fullscreenexit"",""3"",""146828""
""blur"",""48"",""434842""
""focus"",""48"",""438412""
","""event"",""trial"",""time""
""blur"",""48"",""434842""
","""event"",""trial"",""time""
""focus"",""48"",""438412""
","""event"",""trial"",""time""
""fullscreenenter"",""1"",""126639""
","""event"",""trial"",""time""
""fullscreenexit"",""3"",""146828""
",,,,,,,,,,,,"[{""stimulus"":""run_exp/static/images/task_images/dig.jpg"",""time"":0.10000002384185791},{""stimulus"":""run_exp/static/images/task_images/land.jpg"",""time"":674.6000000238419},{""stimulus"":""run_exp/static/images/task_images/dig.jpg"",""time"":1346.7999999523163}]",[],6,,,,,,,,,,,,,,
harvest,151,987921,0.0-49.0-4.0,"""event"",""trial"",""time""
""fullscreenenter"",""1"",""126639""
""fullscreenexit"",""3"",""146828""
""blur"",""48"",""434842""
""focus"",""48"",""438412""
","""event"",""trial"",""time""
""blur"",""48"",""434842""
","""event"",""trial"",""time""
""focus"",""48"",""438412""
","""event"",""trial"",""time""
""fullscreenenter"",""1"",""126639""
","""event"",""trial"",""time""
""fullscreenexit"",""3"",""146828""
",,null,run_exp/static/images/task_images/gems/109.jpg,null,,,,,,,87,,,6,,,,,109,0.798928641,0.798165138,,,,,,,
decision,152,988074,0.0-49.0-5.0,"""event"",""trial"",""time""
""fullscreenenter"",""1"",""126639""
""fullscreenexit"",""3"",""146828""
""blur"",""48"",""434842""
""focus"",""48"",""438412""
","""event"",""trial"",""time""
""blur"",""48"",""434842""
","""event"",""trial"",""time""
""focus"",""48"",""438412""
","""event"",""trial"",""time""
""fullscreenenter"",""1"",""126639""
","""event"",""trial"",""time""
""fullscreenexit"",""3"",""146828""
",,152.1,run_exp/static/images/task_images/land.jpg,65,,,,,,,87,,,6,,,,,,,,157666,1,0,FALSE,,,
dig,153,990936,0.0-50.0-0.0,"""event"",""trial"",""time""
""fullscreenenter"",""1"",""126639""
""fullscreenexit"",""3"",""146828""
""blur"",""48"",""434842""
""focus"",""48"",""438412""
","""event"",""trial"",""time""
""blur"",""48"",""434842""
","""event"",""trial"",""time""
""focus"",""48"",""438412""
","""event"",""trial"",""time""
""fullscreenenter"",""1"",""126639""
","""event"",""trial"",""time""
""fullscreenexit"",""3"",""146828""
",,,,,,,,,,,,"[{""stimulus"":""run_exp/static/images/task_images/dig.jpg"",""time"":0.19999992847442627},{""stimulus"":""run_exp/static/images/task_images/land.jpg"",""time"":953.0999999046326},{""stimulus"":""run_exp/static/images/task_images/dig.jpg"",""time"":1900.1999999284744}]",[],6,,,,,,,,,,,,,,
harvest,154,991945,0.0-50.0-1.0,"""event"",""trial"",""time""
""fullscreenenter"",""1"",""126639""
""fullscreenexit"",""3"",""146828""
""blur"",""48"",""434842""
""focus"",""48"",""438412""
","""event"",""trial"",""time""
""blur"",""48"",""434842""
","""event"",""trial"",""time""
""focus"",""48"",""438412""
","""event"",""trial"",""time""
""fullscreenenter"",""1"",""126639""
","""event"",""trial"",""time""
""fullscreenexit"",""3"",""146828""
",,null,run_exp/static/images/task_images/gems/87.jpg,null,,,,,,,71,,,6,,,,,87,0.819494079,0.816091954,,,,,,,
decision,155,992263,0.0-50.0-2.0,"""event"",""trial"",""time""
""fullscreenenter"",""1"",""126639""
""fullscreenexit"",""3"",""146828""
""blur"",""48"",""434842""
""focus"",""48"",""438412""
","""event"",""trial"",""time""
""blur"",""48"",""434842""
","""event"",""trial"",""time""
""focus"",""48"",""438412""
","""event"",""trial"",""time""
""fullscreenenter"",""1"",""126639""
","""event"",""trial"",""time""
""fullscreenexit"",""3"",""146828""
",,316.8000001,run_exp/static/images/task_images/land.jpg,65,,,,,,,71,,,6,,,,,,,,161855,1,1,FALSE,,,
dig,156,994958,0.0-51.0-0.0,"""event"",""trial"",""time""
""fullscreenenter"",""1"",""126639""
""fullscreenexit"",""3"",""146828""
""blur"",""48"",""434842""
""focus"",""48"",""438412""
","""event"",""trial"",""time""
""blur"",""48"",""434842""
","""event"",""trial"",""time""
""focus"",""48"",""438412""
","""event"",""trial"",""time""
