trial_type,trial_index,time_elapsed,internal_node_id,interactions,blur_events,focus_events,fullscreenenter_events,fullscreenexit_events,success,rt,stimulus,key_press,prompt,subject_id,participant_id,age,gender,button_pressed,next_reward,animation_sequence,responses,planet,curr_prac_trial,n_prac_rounds,alien,aliens,reward_received,decay_rate_actual,decay_rate_exp,time_in_block,block_num,prt,last_trial_on_planet,button_html,bonus,num_failures
pavlovia,0,4,0.0-0.0,"""event"",""trial"",""time""
""fullscreenenter"",""1"",""51695""
","
","
","""event"",""trial"",""time""
""fullscreenenter"",""1"",""51695""
","
",,,,,,,,,,,,,,,,,,,,,,,,,,,,
fullscreen,1,52680,0.0-1.0,"""event"",""trial"",""time""
""fullscreenenter"",""1"",""51695""
","
","
","""event"",""trial"",""time""
""fullscreenenter"",""1"",""51695""
","
",TRUE,,,,,,,,,,,,,,,,,,,,,,,,,,,
instruc_welcome,2,63134,0.0-2.0,"""event"",""trial"",""time""
""fullscreenenter"",""1"",""51695""
","
","
","""event"",""trial"",""time""
""fullscreenenter"",""1"",""51695""
","
",,null,run_exp/static/audio/clip_1_welcome.m4a,null,"<p>Howdy! In this experiment, you’ll be an explorer traveling through space to collect space treasure.</p><p>Your mission is to collect as much treasure as possible.</p><br><br><p><img src='run_exp/static/images/task_images/opening_img-01.jpg' height='300' width='auto'></p>",9574,3740,21.51,Female,,,,,,,,,,,,,,,,,,,
audio-keyboard-response,3,79733,0.0-3.0,"""event"",""trial"",""time""
""fullscreenenter"",""1"",""51695""
","
","
","""event"",""trial"",""time""
""fullscreenenter"",""1"",""51695""
","
",,null,run_exp/static/audio/clip_2_move.m4a,null,,,,,,,,,,,,,,,,,,,,,,,,
welcome_dec,4,80333,0.0-4.0,"""event"",""trial"",""time""
""fullscreenenter"",""1"",""51695""
","
","
","""event"",""trial"",""time""
""fullscreenenter"",""1"",""51695""
","
",,596,"<p>Howdy! In this experiment, you’ll be an explorer traveling through space to collect space treasure.</p><p>Your mission is to collect as much treasure as possible.</p><br><br><p><img src='run_exp/static/images/task_images/opening_img-01.jpg' height='300' width='auto'></p>",,,,,,,1,,,,,,,,,,,,,,,,,,
html-keyboard-response,5,81398,0.0-5.0,"""event"",""trial"",""time""
""fullscreenenter"",""1"",""51695""
","
","
","""event"",""trial"",""time""
""fullscreenenter"",""1"",""51695""
","
",,1061.1,"<p>Howdy! In this experiment, you’ll be an explorer traveling through space to collect space treasure.</p><p>Your mission is to collect as much treasure as possible.</p><br><br><p><img src='run_exp/static/images/task_images/opening_img-01.jpg' height='300' width='auto'></p><button class=""jspsych-html-btn-unchosen""><img src=""run_exp/static/images/task_images/planet-01.jpg"" height=""50""></button><button class=""jspsych-html-btn-chosen""><img src=""run_exp/static/images/task_images/planet-02.jpg"" height=""50""></button><p><b>[press the space bar to lock in your answer]<b><br></p>",32,,,,,,,,,,,,,,,,,,,,,,,,
instruc_goal,6,91473,0.0-6.0-0.0,"""event"",""trial"",""time""
""fullscreenenter"",""1"",""51695""
","
","
","""event"",""trial"",""time""
""fullscreenenter"",""1"",""51695""
","
",,null,run_exp/static/audio/clip_3_goal.m4a,null,"<p> As a space explorer, you’ll visit different planets to dig for space treasure, these pink gems.</p> <p> The more treasure you dig up, the more bonus money you’ll win! </p><br><br><p><img src='run_exp/static/images/task_images/pink_gem.jpg' height='300' width='auto'></p>",,,,,,,,,,,,,,,,,,,,,,,
instruc_goal,7,92329,0.0-6.0-1.0,"""event"",""trial"",""time""
""fullscreenenter"",""1"",""51695""
","
","
","""event"",""trial"",""time""
""fullscreenenter"",""1"",""51695""
","
",,850.7,"<p> As a space explorer, you’ll visit different planets to dig for space treasure, these pink gems.</p> <p> The more treasure you dig up, the more bonus money you’ll win! </p><br><br><p><img src='run_exp/static/images/task_images/pink_gem.jpg' height='300' width='auto'></p>",,,,,,,1,,,,,,,,,,,,,,,,,,
html-keyboard-response,8,92685,0.0-6.0-2.0,"""event"",""trial"",""time""
""fullscreenenter"",""1"",""51695""
","
","
","""event"",""trial"",""time""
""fullscreenenter"",""1"",""51695""
","
",,354.8,"<p> As a space explorer, you’ll visit different planets to dig for space treasure, these pink gems.</p> <p> The more treasure you dig up, the more bonus money you’ll win! </p><br><br><p><img src='run_exp/static/images/task_images/pink_gem.jpg' height='300' width='auto'></p><button class=""jspsych-html-btn-unchosen""><img src=""run_exp/static/images/task_images/planet-01.jpg"" height=""50""></button><button class=""jspsych-html-btn-chosen""><img src=""run_exp/static/images/task_images/planet-02.jpg"" height=""50""></button><p><b>[press the space bar to lock in your answer]<b><br></p>",32,,,,,,,,,,,,,,,,,,,,,,,,
instruc_dig,9,108713,0.0-7.0-0.0,"""event"",""trial"",""time""
""fullscreenenter"",""1"",""51695""
","
","
","""event"",""trial"",""time""
""fullscreenenter"",""1"",""51695""
","
",,null,run_exp/static/audio/clip_4_dig.m4a,null,,,,,,,100,,,,,,,,,,,,,,,,,
instruc_dig_try,10,109213,0.0-7.0-1.0,"""event"",""trial"",""time""
""fullscreenenter"",""1"",""51695""
","
","
","""event"",""trial"",""time""
""fullscreenenter"",""1"",""51695""
","
",,498.8,"<p> When you’ve arrived at a new planet, you will dig once. </p> <p>Then, you get to decide if you want to stay on the planet and dig again or travel to a new planet and dig there.</p> <p> To stay and dig, press the letter <strong>‘A’</strong> on your keyboard. Try pressing it now! </p><p><img src='run_exp/static/images/task_images/land.jpg'  height='700' width='auto'></p>",65,"<p> When you’ve arrived at a new planet, you will dig once. </p> <p>Then, you get to decide if you want to stay on the planet and dig again or travel to a new planet and dig there.</p> <p> To stay and dig, press the letter <strong>‘A’</strong> on your keyboard. Try pressing it now! </p><p><img src='run_exp/static/images/task_images/land.jpg'  height='700' width='auto'></p>",,,,,,100,,,,,,,,,,,,,,,,,
dig_prac,11,111223,0.0-7.0-2.0,"""event"",""trial"",""time""
""fullscreenenter"",""1"",""51695""
","
","
","""event"",""trial"",""time""
""fullscreenenter"",""1"",""51695""
","
",,,,,,,,,,,,"[{""stimulus"":""run_exp/static/images/task_images/dig.jpg"",""time"":0.5},{""stimulus"":""run_exp/static/images/task_images/land.jpg"",""time"":669.2000000476837},{""stimulus"":""run_exp/static/images/task_images/dig.jpg"",""time"":1336.3999998569489}]",[],,,,,,,,,,,,,,,
instruc_travel,12,147472,0.0-7.0-3.0,"""event"",""trial"",""time""
""fullscreenenter"",""1"",""51695""
","
","
","""event"",""trial"",""time""
""fullscreenenter"",""1"",""51695""
","
",,null,run_exp/static/audio/clip_5_travel.m4a,null,"<p>Every time you dig up gems, there are less gems on the planet, so the more you dig on a planet the fewer gems you’ll get with each dig.</p><p>When gems are running low, you may want to travel to a new planet. </p> <p>  Planets are very far apart in this galaxy, so it will take some time to travel between them. </p> <br><p>There are lots and lots of planets for you to visit, so you won’t be able to return to any planets you’ve seen before. </p><br><p>To leave this planet and travel to a new one, press the letter <strong>‘L’</strong> on your keyboard. Try pressing it now! </p><p><img src='run_exp/static/images/task_images/rocket-01.jpg'  height='600' width='auto'></p>",,,,,,,,,,,,,,,,,,,,,,,
instruc_travel_try,13,147964,0.0-7.0-4.0,"""event"",""trial"",""time""
""fullscreenenter"",""1"",""51695""
","
","
","""event"",""trial"",""time""
""fullscreenenter"",""1"",""51695""
","
",,490,"<p>Every time you dig up gems, there are less gems on the planet, so the more you dig on a planet the fewer gems you’ll get with each dig.</p><p>When gems are running low, you may want to travel to a new planet. </p> <p>  Planets are very far apart in this galaxy, so it will take some time to travel between them. </p> <br><p>There are lots and lots of planets for you to visit, so you won’t be able to return to any planets you’ve seen before. </p><br><p>To leave this planet and travel to a new one, press the letter <strong>‘L’</strong> on your keyboard. Try pressing it now! </p><p><img src='run_exp/static/images/task_images/rocket-01.jpg'  height='600' width='auto'></p>",76,"<p>Every time you dig up gems, there are less gems on the planet, so the more you dig on a planet the fewer gems you’ll get with each dig.</p><p>When gems are running low, you may want to travel to a new planet. </p> <p>  Planets are very far apart in this galaxy, so it will take some time to travel between them. </p> <br><p>There are lots and lots of planets for you to visit, so you won’t be able to return to any planets you’ve seen before. </p><br><p>To leave this planet and travel to a new one, press the letter <strong>‘L’</strong> on your keyboard. Try pressing it now! </p><p><img src='run_exp/static/images/task_images/rocket-01.jpg'  height='600' width='auto'></p>",,,,,,,,,,,,,,,,,,,,,,,
travel_prac,14,157966,0.0-7.0-5.0,"""event"",""trial"",""time""
""fullscreenenter"",""1"",""51695""
","
","
","""event"",""trial"",""time""
""fullscreenenter"",""1"",""51695""
","
",,,,,,,,,,,,"[{""stimulus"":""run_exp/static/images/task_images/rocket-01.jpg"",""time"":0.2999999523162842},{""stimulus"":""run_exp/static/images/task_images/rocket-02.jpg"",""time"":1114.7000000476837},{""stimulus"":""run_exp/static/images/task_images/rocket-03.jpg"",""time"":2224.4000000953674},{""stimulus"":""run_exp/static/images/task_images/rocket-04.jpg"",""time"":3335.7999999523163},{""stimulus"":""run_exp/static/images/task_images/rocket-05.jpg"",""time"":4446.200000047684},{""stimulus"":""run_exp/static/images/task_images/rocket-06.jpg"",""time"":5557.099999904633},{""stimulus"":""run_exp/static/images/task_images/rocket-07.jpg"",""time"":6667.599999904633},{""stimulus"":""run_exp/static/images/task_images/rocket-08.jpg"",""time"":7779.099999904633},{""stimulus"":""run_exp/static/images/task_images/rocket-09.jpg"",""time"":8890}]",[],0,,,,,,,,,,,,,,
instruc_alien_greet,15,185161,0.0-7.0-6.0,"""event"",""trial"",""time""
""fullscreenenter"",""1"",""51695""
","
","
","""event"",""trial"",""time""
""fullscreenenter"",""1"",""51695""
","
",,null,run_exp/static/audio/clip_6_alien.m4a,null,"<p>When you arrive at a new planet, the alien who owns the treasure mine on that planet will greet you!</p><p>The better an alien takes care of their mine the easier it is to dig for gems. Some aliens take better care of their mine than others. So, you won’t get exactly the same amount of gems on each planet.</p><p>What the alien looks like does not tell you anything about how many gems there are on the planet.</p><br><p><img src=""run_exp/static/images/task_images/aliens/instructions_aliens/planet/alien_planet-1.jpg""  height=""600"" width=""auto""></p>",,,,,,,,,,,,,,,,,,,,,,,
instruc_alien_greet,16,187157,0.0-7.0-7.0,"""event"",""trial"",""time""
""fullscreenenter"",""1"",""51695""
","
","
","""event"",""trial"",""time""
""fullscreenenter"",""1"",""51695""
","
",,1990.3,"<p>When you arrive at a new planet, the alien who owns the treasure mine on that planet will greet you!</p><p>The better an alien takes care of their mine the easier it is to dig for gems. Some aliens take better care of their mine than others. So, you won’t get exactly the same amount of gems on each planet.</p><p>What the alien looks like does not tell you anything about how many gems there are on the planet.</p><br><p><img src=""run_exp/static/images/task_images/aliens/instructions_aliens/planet/alien_planet-1.jpg""  height=""600"" width=""auto""></p>",,,,,,,1,,,,,,,,,,,,,,,,,,
html-keyboard-response,17,188021,0.0-7.0-8.0,"""event"",""trial"",""time""
""fullscreenenter"",""1"",""51695""
","
","
","""event"",""trial"",""time""
""fullscreenenter"",""1"",""51695""
","
",,862.8,"<p>When you arrive at a new planet, the alien who owns the treasure mine on that planet will greet you!</p><p>The better an alien takes care of their mine the easier it is to dig for gems. Some aliens take better care of their mine than others. So, you won’t get exactly the same amount of gems on each planet.</p><p>What the alien looks like does not tell you anything about how many gems there are on the planet.</p><br><p><img src=""run_exp/static/images/task_images/aliens/instructions_aliens/planet/alien_planet-1.jpg""  height=""600"" width=""auto""></p><button class=""jspsych-html-btn-unchosen""><img src=""run_exp/static/images/task_images/planet-01.jpg"" height=""50""></button><button class=""jspsych-html-btn-chosen""><img src=""run_exp/static/images/task_images/planet-02.jpg"" height=""50""></button><p><b>[press the space bar to lock in your answer]<b><br></p>",32,,,,,,,,,,,,,,,,,,,,,,,,
time_out,18,199122,0.0-8.0-0.0,"""event"",""trial"",""time""
""fullscreenenter"",""1"",""51695""
","
","
","""event"",""trial"",""time""
""fullscreenenter"",""1"",""51695""
","
",,null,run_exp/static/audio/clip_7_timeout.m4a,null,"<p>If you don't make your choice fast enough, you’ll have to wait a few seconds before you can make another one.</p><p>You can’t dig for more gems or travel to new planets. You just have to sit and wait.</p><br><p><img src='run_exp/static/images/task_images/time_out.jpg'  height='600' width='auto'></p>",,,,,,,,,,,,,,,,,,,,,,,
time_out,19,204957,0.0-8.0-1.0,"""event"",""trial"",""time""
""fullscreenenter"",""1"",""51695""
","
","
","""event"",""trial"",""time""
""fullscreenenter"",""1"",""51695""
","
",,5831.2,"<p>If you don't make your choice fast enough, you’ll have to wait a few seconds before you can make another one.</p><p>You can’t dig for more gems or travel to new planets. You just have to sit and wait.</p><br><p><img src='run_exp/static/images/task_images/time_out.jpg'  height='600' width='auto'></p>",,,,,,,1,,,,,,,,,,,,,,,,,,
html-keyboard-response,20,206220,0.0-8.0-2.0,"""event"",""trial"",""time""
""fullscreenenter"",""1"",""51695""
","
","
","""event"",""trial"",""time""
""fullscreenenter"",""1"",""51695""
","
",,1261.3,"<p>If you don't make your choice fast enough, you’ll have to wait a few seconds before you can make another one.</p><p>You can’t dig for more gems or travel to new planets. You just have to sit and wait.</p><br><p><img src='run_exp/static/images/task_images/time_out.jpg'  height='600' width='auto'></p><button class=""jspsych-html-btn-unchosen""><img src=""run_exp/static/images/task_images/planet-01.jpg"" height=""50""></button><button class=""jspsych-html-btn-chosen""><img src=""run_exp/static/images/task_images/planet-02.jpg"" height=""50""></button><p><b>[press the space bar to lock in your answer]<b><br></p>",32,,,,,,,,,,,,,,,,,,,,,,,,
instruc_break,21,221902,0.0-9.0-0.0,"""event"",""trial"",""time""
""fullscreenenter"",""1"",""51695""
","
","
","""event"",""trial"",""time""
""fullscreenenter"",""1"",""51695""
","
",,null,run_exp/static/audio/clip_8_break.m4a,null,"<p> After digging and traveling for a while, you’ll be able to take a break at home base. </p><p>The game will last 20 minutes no matter what.</p><p>You will visit home base every 5 minutes, so, you will visit home base three times during the game.</p><br><p><img src='run_exp/static/images/task_images/home_base.jpg' height='600' width='auto'></p>",,,,,,,,,,,,,,,,,,,,,,,
instruc_break,22,223484,0.0-9.0-1.0,"""event"",""trial"",""time""
""fullscreenenter"",""1"",""51695""
","
","
","""event"",""trial"",""time""
""fullscreenenter"",""1"",""51695""
","
",,1578.5,"<p> After digging and traveling for a while, you’ll be able to take a break at home base. </p><p>The game will last 20 minutes no matter what.</p><p>You will visit home base every 5 minutes, so, you will visit home base three times during the game.</p><br><p><img src='run_exp/static/images/task_images/home_base.jpg' height='600' width='auto'></p>",,,,,,,1,,,,,,,,,,,,,,,,,,
html-keyboard-response,23,224316,0.0-9.0-2.0,"""event"",""trial"",""time""
""fullscreenenter"",""1"",""51695""
","
","
","""event"",""trial"",""time""
""fullscreenenter"",""1"",""51695""
","
",,831,"<p> After digging and traveling for a while, you’ll be able to take a break at home base. </p><p>The game will last 20 minutes no matter what.</p><p>You will visit home base every 5 minutes, so, you will visit home base three times during the game.</p><br><p><img src='run_exp/static/images/task_images/home_base.jpg' height='600' width='auto'></p><button class=""jspsych-html-btn-unchosen""><img src=""run_exp/static/images/task_images/planet-01.jpg"" height=""50""></button><button class=""jspsych-html-btn-chosen""><img src=""run_exp/static/images/task_images/planet-02.jpg"" height=""50""></button><p><b>[press the space bar to lock in your answer]<b><br></p>",32,,,,,,,,,,,,,,,,,,,,,,,,
instruc_prac_game,24,234441,0.0-10.0-0.0,"""event"",""trial"",""time""
""fullscreenenter"",""1"",""51695""
","
","
","""event"",""trial"",""time""
""fullscreenenter"",""1"",""51695""
","
",,null,run_exp/static/audio/clip_9_practice.m4a,null,"<p> Are you ready to play a practice game? </p> <p>In this practice game, you'll be digging up barrels of gems. But, in the real game, you'll be digging up the gems themselves. </p>",,,,,,,,,,,,,,,,,,,,,,,
html-button-response,25,237474,0.0-10.0-1.0,"""event"",""trial"",""time""
""fullscreenenter"",""1"",""51695""
","
","
","""event"",""trial"",""time""
""fullscreenenter"",""1"",""51695""
","
",,3030.6,"<p> Are you ready to play a practice game? </p> <p>In this practice game, you'll be digging up barrels of gems. But, in the real game, you'll be digging up the gems themselves. </p>",,,,,,,0,,,,,,,,,,,,,,,,,,
alien_welcome_prac,26,242478,0.0-11.0-0.0,"""event"",""trial"",""time""
""fullscreenenter"",""1"",""51695""
","
","
","""event"",""trial"",""time""
""fullscreenenter"",""1"",""51695""
","
",,null,run_exp/static/images/task_images/aliens/practice_aliens/planet/alien_planet-5.jpg,null,,,,,,,,,,,,,,,,,,,,,,,,
land_prac,27,242982,0.0-11.0-1.0,"""event"",""trial"",""time""
""fullscreenenter"",""1"",""51695""
","
","
","""event"",""trial"",""time""
""fullscreenenter"",""1"",""51695""
","
",,null,run_exp/static/images/task_images/land.jpg,null,,,,,,,104,,,0,,,,,,,,,,,,,,
dig_prac,28,244987,0.0-11.0-2.0,"""event"",""trial"",""time""
""fullscreenenter"",""1"",""51695""
","
","
","""event"",""trial"",""time""
""fullscreenenter"",""1"",""51695""
","
",,,,,,,,,,,,"[{""stimulus"":""run_exp/static/images/task_images/dig.jpg"",""time"":0.40000009536743164},{""stimulus"":""run_exp/static/images/task_images/land.jpg"",""time"":669.5999999046326},{""stimulus"":""run_exp/static/images/task_images/dig.jpg"",""time"":1335.7000000476837}]",[],,,,,,,,,,,,,,,
harvest_prac,29,245989,0.0-11.0-3.0,"""event"",""trial"",""time""
""fullscreenenter"",""1"",""51695""
","
","
","""event"",""trial"",""time""
""fullscreenenter"",""1"",""51695""
","
",,null,run_exp/static/images/task_images/barrel_text.jpg,null,,,,,,,,,,,,,,,,,,,,,,,,
decision_prac,30,247461,0.0-11.0-4.0,"""event"",""trial"",""time""
""fullscreenenter"",""1"",""51695""
","
","
","""event"",""trial"",""time""
""fullscreenenter"",""1"",""51695""
","
",,1470.8,run_exp/static/images/task_images/land.jpg,65,,,,,,,,,,,1,,,,,,,,,,,,,
dig_prac,31,249470,0.0-12.0-0.0,"""event"",""trial"",""time""
""fullscreenenter"",""1"",""51695""
","
","
","""event"",""trial"",""time""
""fullscreenenter"",""1"",""51695""
","
",,,,,,,,,,,,"[{""stimulus"":""run_exp/static/images/task_images/dig.jpg"",""time"":0.3000001907348633},{""stimulus"":""run_exp/static/images/task_images/land.jpg"",""time"":669},{""stimulus"":""run_exp/static/images/task_images/dig.jpg"",""time"":1336.1000001430511}]",[],,,,,,,,,,,,,,,
harvest_prac,32,250481,0.0-12.0-1.0,"""event"",""trial"",""time""
""fullscreenenter"",""1"",""51695""
","
","
","""event"",""trial"",""time""
""fullscreenenter"",""1"",""51695""
","
",,null,run_exp/static/images/task_images/barrel_text.jpg,null,,,,,,,,,,,,,,,,,,,,,,,,
decision_prac,33,251140,0.0-12.0-2.0,"""event"",""trial"",""time""
""fullscreenenter"",""1"",""51695""
","
","
","""event"",""trial"",""time""
""fullscreenenter"",""1"",""51695""
","
",,657.3999999,run_exp/static/images/task_images/land.jpg,65,,,,,,,,,,,2,,,,,,,,,,,,,
dig_prac,34,253146,0.0-13.0-0.0,"""event"",""trial"",""time""
""fullscreenenter"",""1"",""51695""
","
","
","""event"",""trial"",""time""
""fullscreenenter"",""1"",""51695""
","
",,,,,,,,,,,,"[{""stimulus"":""run_exp/static/images/task_images/dig.jpg"",""time"":0.2999999523162842},{""stimulus"":""run_exp/static/images/task_images/land.jpg"",""time"":669.6000001430511},{""stimulus"":""run_exp/static/images/task_images/dig.jpg"",""time"":1337.6000001430511}]",[],,,,,,,,,,,,,,,
harvest_prac,35,254148,0.0-13.0-1.0,"""event"",""trial"",""time""
""fullscreenenter"",""1"",""51695""
","
","
","""event"",""trial"",""time""
""fullscreenenter"",""1"",""51695""
","
",,null,run_exp/static/images/task_images/barrel_text.jpg,null,,,,,,,,,,,,,,,,,,,,,,,,
decision_prac,36,254493,0.0-13.0-2.0,"""event"",""trial"",""time""
""fullscreenenter"",""1"",""51695""
","
","
","""event"",""trial"",""time""
""fullscreenenter"",""1"",""51695""
","
",,343,run_exp/static/images/task_images/land.jpg,65,,,,,,,,,,,3,,,,,,,,,,,,,
dig_prac,37,256498,0.0-14.0-0.0,"""event"",""trial"",""time""
""fullscreenenter"",""1"",""51695""
","
","
","""event"",""trial"",""time""
""fullscreenenter"",""1"",""51695""
","
",,,,,,,,,,,,"[{""stimulus"":""run_exp/static/images/task_images/dig.jpg"",""time"":0.20000004768371582},{""stimulus"":""run_exp/static/images/task_images/land.jpg"",""time"":668.0999999046326},{""stimulus"":""run_exp/static/images/task_images/dig.jpg"",""time"":1336.5}]",[],,,,,,,,,,,,,,,
harvest_prac,38,257500,0.0-14.0-1.0,"""event"",""trial"",""time""
""fullscreenenter"",""1"",""51695""
","
","
","""event"",""trial"",""time""
""fullscreenenter"",""1"",""51695""
","
",,null,run_exp/static/images/task_images/barrel_text.jpg,null,,,,,,,,,,,,,,,,,,,,,,,,
decision_prac,39,258365,0.0-14.0-2.0,"""event"",""trial"",""time""
""fullscreenenter"",""1"",""51695""
","
","
","""event"",""trial"",""time""
""fullscreenenter"",""1"",""51695""
","
",,863.6000001,run_exp/static/images/task_images/land.jpg,65,,,,,,,,,,,4,,,,,,,,,,,,,
dig_prac,40,260371,0.0-15.0-0.0,"""event"",""trial"",""time""
""fullscreenenter"",""1"",""51695""
","
","
","""event"",""trial"",""time""
""fullscreenenter"",""1"",""51695""
","
",,,,,,,,,,,,"[{""stimulus"":""run_exp/static/images/task_images/dig.jpg"",""time"":0.2999999523162842},{""stimulus"":""run_exp/static/images/task_images/land.jpg"",""time"":669.5999999046326},{""stimulus"":""run_exp/static/images/task_images/dig.jpg"",""time"":1335.5999999046326}]",[],,,,,,,,,,,,,,,
harvest_prac,41,261373,0.0-15.0-1.0,"""event"",""trial"",""time""
""fullscreenenter"",""1"",""51695""
","
","
","""event"",""trial"",""time""
""fullscreenenter"",""1"",""51695""
","
",,null,run_exp/static/images/task_images/barrel_text.jpg,null,,,,,,,,,,,,,,,,,,,,,,,,
decision_prac,42,262212,0.0-15.0-2.0,"""event"",""trial"",""time""
""fullscreenenter"",""1"",""51695""
","
","
","""event"",""trial"",""time""
""fullscreenenter"",""1"",""51695""
","
",,837.7,run_exp/static/images/task_images/land.jpg,65,,,,,,,,,,,,1,,,,,,,,,,,,
quiz_instruc,43,265020,0.0-16.0-0.0,"""event"",""trial"",""time""
""fullscreenenter"",""1"",""51695""
","
","
","""event"",""trial"",""time""
""fullscreenenter"",""1"",""51695""
","
",,2804.9,run_exp/static/audio/clip_10_quiz.m4a,,,,,,,0,,,,,,,,,,,,,,,,,,
instruc_repeat,44,307792,0.0-16.0-1.0,"""event"",""trial"",""time""
""fullscreenenter"",""1"",""51695""
","
","
","""event"",""trial"",""time""
""fullscreenenter"",""1"",""51695""
","
",,null,"<p> Are you ready to play a practice game? </p> <p>In this practice game, you'll be digging up barrels of gems. But, in the real game, you'll be digging up the gems themselves. </p>",null,"<p>In this game, your goal is to collect as many gems as you can. That’s how you will win bonus money. </p> <p>The entire game will last 20 minutes no matter how many gems you collect or how many planets you visit. </p><p>To stay on a planet and dig again, press the letter A on your keyboard. To leave for a new planet, press the letter L.</p><p>The more you dig on a planet, the fewer gems you’ll get with each dig which is why you might consider leaving for a new planet. </p><p>When you arrive at a new planet, you’ll be greeted by an alien. What the alien looks like does not tell you anything about how much treasure is on the planet. </p>",,,,,,,,,,,,,,,,,,,,,,,
instruc_repeat_continue,45,309360,0.0-16.0-2.0,"""event"",""trial"",""time""
""fullscreenenter"",""1"",""51695""
","
","
","""event"",""trial"",""time""
""fullscreenenter"",""1"",""51695""
","
",,1564.8,"<p> Are you ready to play a practice game? </p> <p>In this practice game, you'll be digging up barrels of gems. But, in the real game, you'll be digging up the gems themselves. </p>",,,,,,,0,,,,,,,,,,,,,,,,,,
quiz_q_1_ask,46,312620,0.0-16.0-3.0,"""event"",""trial"",""time""
""fullscreenenter"",""1"",""51695""
","
","
","""event"",""trial"",""time""
""fullscreenenter"",""1"",""51695""
","
",,3259,run_exp/static/audio/clip_11_q1_ask.m4a,,,,,,,2,,,,,,,,,,,,,,,,,,
quiz_q_1_fb_correct,47,316472,0.0-17.0-0.0,"""event"",""trial"",""time""
""fullscreenenter"",""1"",""51695""
","
","
","""event"",""trial"",""time""
""fullscreenenter"",""1"",""51695""
","
",,null,run_exp/static/audio/clip_12_q1_correct.m4a,null,<p>That’s correct. You win extra money by collecting more gems.</p>,,,,,,,,,,,,,,,,,,,,,,,
quiz_q_2_ask,48,319782,0.0-17.0-1.0,"""event"",""trial"",""time""
""fullscreenenter"",""1"",""51695""
","
","
","""event"",""trial"",""time""
""fullscreenenter"",""1"",""51695""
","
",,3308,run_exp/static/audio/clip_14_q2_ask.m4a,,,,,,,1,,,,,,,,,,,,,,,,,,
quiz_q_2_fb_correct,49,323793,0.0-18.0-0.0,"""event"",""trial"",""time""
""fullscreenenter"",""1"",""51695""
","
","
","""event"",""trial"",""time""
""fullscreenenter"",""1"",""51695""
","
",,null,run_exp/static/audio/clip_15_q2_correct.m4a,null,<p>That’s correct. The experiment is 20 minutes no matter what.</p>,,,,,,,,,,,,,,,,,,,,,,,
quiz_q_3_ask,50,327568,0.0-18.0-1.0,"""event"",""trial"",""time""
""fullscreenenter"",""1"",""51695""
","
","
","""event"",""trial"",""time""
""fullscreenenter"",""1"",""51695""
","
",,3773.2,run_exp/static/audio/clip_17_q3_ask.m4a,,,,,,,1,,,,,,,,,,,,,,,,,,
quiz_q_3_fb_correct,51,331552,0.0-19.0-0.0,"""event"",""trial"",""time""
""fullscreenenter"",""1"",""51695""
","
","
","""event"",""trial"",""time""
""fullscreenenter"",""1"",""51695""
","
",,null,run_exp/static/audio/clip_18_q3_correct.m4a,null,<p> That’s correct. You press the letter L to travel to a new planet.</p>,,,,,,,,,,,,,,,,,,,,,,,
quiz_q_4_ask,52,340257,0.0-19.0-1.0,"""event"",""trial"",""time""
""fullscreenenter"",""1"",""51695""
","
","
","""event"",""trial"",""time""
""fullscreenenter"",""1"",""51695""
","
",,8703,run_exp/static/audio/clip_20_q4_ask.m4a,,,,,,,1,,,,,,,,,,,,,,,,,,
quiz_q_4_fb_incorrect,53,346052,0.0-20.0-0.0,"""event"",""trial"",""time""
""fullscreenenter"",""1"",""51695""
","
","
","""event"",""trial"",""time""
""fullscreenenter"",""1"",""51695""
","
",,null,run_exp/static/audio/clip_22_q4_incorrect.m4a,null,<p>That’s incorrect.  The more you dig on a planet the fewer gems you’ll get with each dig.</p>,,,,,,,,,,,,,,,,,,,,,,,
quiz_q_5_ask,54,348029,0.0-20.0-1.0,"""event"",""trial"",""time""
""fullscreenenter"",""1"",""51695""
","
","
","""event"",""trial"",""time""
""fullscreenenter"",""1"",""51695""
","
",,1973.1,run_exp/static/audio/clip_23_q5_ask.m4a,,,,,,,1,,,,,,,,,,,,,,,,,,
quiz_q_5_fb_correct,55,353033,0.0-21.0-0.0,"""event"",""trial"",""time""
""fullscreenenter"",""1"",""51695""
","
","
","""event"",""trial"",""time""
""fullscreenenter"",""1"",""51695""
","
",,null,run_exp/static/audio/clip_24_q5_correct.m4a,null,<p> That’s correct. The alien tells you nothing about how much treasure is on the planet.</p>,,,,,,,,,,,,,,,,,,,,,,,
quiz_incorrect,56,358592,0.0-22.0-0.0,"""event"",""trial"",""time""
""fullscreenenter"",""1"",""51695""
","
","
","""event"",""trial"",""time""
""fullscreenenter"",""1"",""51695""
","
",,null,run_exp/static/audio/clip_27_incorrect_quiz.m4a,null,,,,,,,,,,,,,,,,,,,,,,,,
quiz_incorrect_continue,57,361758,0.0-22.0-1.0,"""event"",""trial"",""time""
""fullscreenenter"",""1"",""51695""
","
","
","""event"",""trial"",""time""
""fullscreenenter"",""1"",""51695""
","
",,3164.7,"<p>Oops, you missed some questions.</p><p>Now that you’ve heard the correct answers. Try the quiz again!</p>",,,,,,,0,,,,,,,,,,,,,,,,,,
quiz_q_1_ask,58,363641,0.0-22.0-2.0,"""event"",""trial"",""time""
""fullscreenenter"",""1"",""51695""
","
","
","""event"",""trial"",""time""
""fullscreenenter"",""1"",""51695""
","
",,1881.8,run_exp/static/audio/clip_11_q1_ask.m4a,,,,,,,2,,,,,,,,,,,,,,,,,,
quiz_q_1_fb_correct,59,367491,0.0-23.0-0.0,"""event"",""trial"",""time""
""fullscreenenter"",""1"",""51695""
","
","
","""event"",""trial"",""time""
""fullscreenenter"",""1"",""51695""
","
",,null,run_exp/static/audio/clip_12_q1_correct.m4a,null,<p>That’s correct. You win extra money by collecting more gems.</p>,,,,,,,,,,,,,,,,,,,,,,,
quiz_q_2_ask,60,368624,0.0-23.0-1.0,"""event"",""trial"",""time""
""fullscreenenter"",""1"",""51695""
","
","
","""event"",""trial"",""time""
""fullscreenenter"",""1"",""51695""
","
",,1131.7,run_exp/static/audio/clip_14_q2_ask.m4a,,,,,,,1,,,,,,,,,,,,,,,,,,
quiz_q_2_fb_correct,61,372631,0.0-24.0-0.0,"""event"",""trial"",""time""
""fullscreenenter"",""1"",""51695""
","
","
","""event"",""trial"",""time""
""fullscreenenter"",""1"",""51695""
","
",,null,run_exp/static/audio/clip_15_q2_correct.m4a,null,<p>That’s correct. The experiment is 20 minutes no matter what.</p>,,,,,,,,,,,,,,,,,,,,,,,
quiz_q_3_ask,62,374270,0.0-24.0-1.0,"""event"",""trial"",""time""
""fullscreenenter"",""1"",""51695""
","
","
","""event"",""trial"",""time""
""fullscreenenter"",""1"",""51695""
","
",,1636.8,run_exp/static/audio/clip_17_q3_ask.m4a,,,,,,,1,,,,,,,,,,,,,,,,,,
quiz_q_3_fb_correct,63,378252,0.0-25.0-0.0,"""event"",""trial"",""time""
""fullscreenenter"",""1"",""51695""
","
","
","""event"",""trial"",""time""
""fullscreenenter"",""1"",""51695""
","
",,null,run_exp/static/audio/clip_18_q3_correct.m4a,null,<p> That’s correct. You press the letter L to travel to a new planet.</p>,,,,,,,,,,,,,,,,,,,,,,,
quiz_q_4_ask,64,379751,0.0-25.0-1.0,"""event"",""trial"",""time""
""fullscreenenter"",""1"",""51695""
","
","
","""event"",""trial"",""time""
""fullscreenenter"",""1"",""51695""
","
",,1496.3,run_exp/static/audio/clip_20_q4_ask.m4a,,,,,,,0,,,,,,,,,,,,,,,,,,
quiz_q_4_fb_correct,65,385071,0.0-26.0-0.0,"""event"",""trial"",""time""
""fullscreenenter"",""1"",""51695""
","
","
","""event"",""trial"",""time""
""fullscreenenter"",""1"",""51695""
","
",,null,run_exp/static/audio/clip_21_q4_correct.m4a,null,<p> That’s correct. The more you dig on a planet the fewer gems you’ll get with each dig. </p>,,,,,,,,,,,,,,,,,,,,,,,
quiz_q_5_ask,66,388218,0.0-26.0-1.0,"""event"",""trial"",""time""
""fullscreenenter"",""1"",""51695""
","
","
","""event"",""trial"",""time""
""fullscreenenter"",""1"",""51695""
","
",,3144.7,run_exp/static/audio/clip_23_q5_ask.m4a,,,,,,,1,,,,,,,,,,,,,,,,,,
quiz_q_5_fb_correct,67,393231,0.0-27.0-0.0,"""event"",""trial"",""time""
""fullscreenenter"",""1"",""51695""
","
","
","""event"",""trial"",""time""
""fullscreenenter"",""1"",""51695""
","
",,null,run_exp/static/audio/clip_24_q5_correct.m4a,null,<p> That’s correct. The alien tells you nothing about how much treasure is on the planet.</p>,,,,,,,,,,,,,,,,,,,,,,,
quiz_correct,68,396711,0.0-28.0-0.0,"""event"",""trial"",""time""
""fullscreenenter"",""1"",""51695""
","
","
","""event"",""trial"",""time""
""fullscreenenter"",""1"",""51695""
","
",,null,run_exp/static/audio/clip_26_correct_quiz.m4a,null,,,,,,,,,,,,,,,,,,,,,,,,
quiz_correct_continue,69,439126,0.0-28.0-1.0,"""event"",""trial"",""time""
""fullscreenenter"",""1"",""51695""
","
","
","""event"",""trial"",""time""
""fullscreenenter"",""1"",""51695""
","
",,42412.6,<p>Good job! You're now ready to move on to the real game!</p>,,,,,,,0,,,,,,,,,,,,,,,,,,
audio-keyboard-response,70,449866,0.0-28.0-2.0,"""event"",""trial"",""time""
""fullscreenenter"",""1"",""51695""
","
","
","""event"",""trial"",""time""
""fullscreenenter"",""1"",""51695""
","
",,null,run_exp/static/audio/clip_28_real_game.m4a,null,,,,,,,,,,,,,,,,,,,,,,,,
instruc_begin_exp_contine,71,450582,0.0-28.0-3.0,"""event"",""trial"",""time""
""fullscreenenter"",""1"",""51695""
","
","
","""event"",""trial"",""time""
""fullscreenenter"",""1"",""51695""
","
",,714.7,"<p>Now that you know how  to dig for space treasure and travel to new planets,you can start exploring! </p><p>Do you want to go over the instructions again or get started with the real game?</p>",,,,,,,1,,,,,,1,,,,,,,,,,,,
alien_welcome,72,455591,0.0-29.0-0.0,"""event"",""trial"",""time""
""fullscreenenter"",""1"",""51695""
","
","
","""event"",""trial"",""time""
""fullscreenenter"",""1"",""51695""
","
",,null,run_exp/static/images/task_images/aliens/old_aliens/planet/alien_planet-14.jpg,null,,,,,,,,,,,,,14,"14,8,24,64,77,74,60,43,66,61,76,45,11,28,17,10,70,47,78,53,7,62,32,50,20,40,73,39,42,31,71,49,80",,,,,,,,,,
land,73,456101,0.0-29.0-1.0,"""event"",""trial"",""time""
""fullscreenenter"",""1"",""51695""
","
","
","""event"",""trial"",""time""
""fullscreenenter"",""1"",""51695""
","
",,null,run_exp/static/images/task_images/land.jpg,null,,,,,,,103,,,1,,,,,,,,,,,,,,
dig,74,458111,0.0-29.0-2.0,"""event"",""trial"",""time""
""fullscreenenter"",""1"",""51695""
","
","
","""event"",""trial"",""time""
""fullscreenenter"",""1"",""51695""
","
",,,,,,,,,,,,"[{""stimulus"":""run_exp/static/images/task_images/dig.jpg"",""time"":0.2999999523162842},{""stimulus"":""run_exp/static/images/task_images/land.jpg"",""time"":673.2999999523163},{""stimulus"":""run_exp/static/images/task_images/dig.jpg"",""time"":1343.2000000476837}]",[],1,,,,,,,,,,,,,,
harvest,75,459121,0.0-29.0-3.0,"""event"",""trial"",""time""
""fullscreenenter"",""1"",""51695""
","
","
","""event"",""trial"",""time""
""fullscreenenter"",""1"",""51695""
","
",,null,run_exp/static/images/task_images/gems/103.jpg,null,,,,,,,24,,,1,,,,,103,0.228727264,0.233009709,,,,,,,
decision,76,459868,0.0-29.0-4.0,"""event"",""trial"",""time""
""fullscreenenter"",""1"",""51695""
","
","
","""event"",""trial"",""time""
""fullscreenenter"",""1"",""51695""
","
",,745.3999999,run_exp/static/images/task_images/land.jpg,65,,,,,,,24,,,1,,,,,,,,9286,1,0,FALSE,,,
dig,77,462128,0.0-30.0-0.0,"""event"",""trial"",""time""
""fullscreenenter"",""1"",""51695""
","
","
","""event"",""trial"",""time""
""fullscreenenter"",""1"",""51695""
","
",,,,,,,,,,,,"[{""stimulus"":""run_exp/static/images/task_images/dig.jpg"",""time"":0.2999999523162842},{""stimulus"":""run_exp/static/images/task_images/land.jpg"",""time"":759.6999998092651},{""stimulus"":""run_exp/static/images/task_images/dig.jpg"",""time"":1512.6999998092651}]",[],1,,,,,,,,,,,,,,
harvest,78,463133,0.0-30.0-1.0,"""event"",""trial"",""time""
""fullscreenenter"",""1"",""51695""
","
","
","""event"",""trial"",""time""
""fullscreenenter"",""1"",""51695""
","
",,null,run_exp/static/images/task_images/gems/24.jpg,null,,,,,,,7,,,1,,,,,24,0.275254425,0.291666667,,,,,,,
decision,79,463684,0.0-30.0-2.0,"""event"",""trial"",""time""
""fullscreenenter"",""1"",""51695""
","
","
","""event"",""trial"",""time""
""fullscreenenter"",""1"",""51695""
","
",,549.1999998,run_exp/static/images/task_images/land.jpg,65,,,,,,,7,,,1,,,,,,,,13102,1,1,FALSE,,,
dig,80,466143,0.0-31.0-0.0,"""event"",""trial"",""time""
""fullscreenenter"",""1"",""51695""
","
","
","""event"",""trial"",""time""
""fullscreenenter"",""1"",""51695""
","
",,,,,,,,,,,,"[{""stimulus"":""run_exp/static/images/task_images/dig.jpg"",""time"":0.09999990463256836},{""stimulus"":""run_exp/static/images/task_images/land.jpg"",""time"":817.9000000953674},{""stimulus"":""run_exp/static/images/task_images/dig.jpg"",""time"":1638.2000000476837}]",[],1,,,,,,,,,,,,,,
harvest,81,467145,0.0-31.0-1.0,"""event"",""trial"",""time""
""fullscreenenter"",""1"",""51695""
","
","
","""event"",""trial"",""time""
""fullscreenenter"",""1"",""51695""
","
",,null,run_exp/static/images/task_images/gems/7.jpg,null,,,,,,,1,,,1,,,,,7,0.17206817,0.142857143,,,,,,,
decision,82,468628,0.0-31.0-2.0,"""event"",""trial"",""time""
""fullscreenenter"",""1"",""51695""
","
","
","""event"",""trial"",""time""
""fullscreenenter"",""1"",""51695""
","
",,1481,run_exp/static/images/task_images/land.jpg,76,,,,,,,1,,,1,,,,,,,,18046,1,2,TRUE,,,
travel,83,477161,0.0-32.0-0.0,"""event"",""trial"",""time""
""fullscreenenter"",""1"",""51695""
","
","
","""event"",""trial"",""time""
""fullscreenenter"",""1"",""51695""
","
",,,,,,,,,,,,"[{""stimulus"":""run_exp/static/images/task_images/rocket-01.jpg"",""time"":0.20000004768371582},{""stimulus"":""run_exp/static/images/task_images/rocket-02.jpg"",""time"":953.7999999523163},{""stimulus"":""run_exp/static/images/task_images/rocket-03.jpg"",""time"":1896.2000000476837},{""stimulus"":""run_exp/static/images/task_images/rocket-04.jpg"",""time"":2844.2000000476837},{""stimulus"":""run_exp/static/images/task_images/rocket-05.jpg"",""time"":3791.2999999523163},{""stimulus"":""run_exp/static/images/task_images/rocket-06.jpg"",""time"":4731.100000143051},{""stimulus"":""run_exp/static/images/task_images/rocket-07.jpg"",""time"":5681.200000047684},{""stimulus"":""run_exp/static/images/task_images/rocket-08.jpg"",""time"":6629.5},{""stimulus"":""run_exp/static/images/task_images/rocket-09.jpg"",""time"":7572.100000143051}]",[],1,,,,,,,,,,,,,,
alien_welcome,84,482165,0.0-32.0-1.0,"""event"",""trial"",""time""
""fullscreenenter"",""1"",""51695""
","
","
","""event"",""trial"",""time""
""fullscreenenter"",""1"",""51695""
","
",,null,run_exp/static/images/task_images/aliens/old_aliens/planet/alien_planet-8.jpg,null,,,,,,,,,,,,,8,"14,8,24,64,77,74,60,43,66,61,76,45,11,28,17,10,70,47,78,53,7,62,32,50,20,40,73,39,42,31,71,49,80",,,,,,,,,,
land,85,482668,0.0-32.0-2.0,"""event"",""trial"",""time""
""fullscreenenter"",""1"",""51695""
","
","
","""event"",""trial"",""time""
""fullscreenenter"",""1"",""51695""
","
",,null,run_exp/static/images/task_images/land.jpg,null,,,,,,,96,,,2,,,,,,,,,,,,,,
dig,86,484674,0.0-32.0-3.0,"""event"",""trial"",""time""
""fullscreenenter"",""1"",""51695""
","
","
","""event"",""trial"",""time""
""fullscreenenter"",""1"",""51695""
","
",,,,,,,,,,,,"[{""stimulus"":""run_exp/static/images/task_images/dig.jpg"",""time"":0.39999985694885254},{""stimulus"":""run_exp/static/images/task_images/land.jpg"",""time"":669.2999999523163},{""stimulus"":""run_exp/static/images/task_images/dig.jpg"",""time"":1341.5999999046326}]",[],2,,,,,,,,,,,,,,
harvest,87,485680,0.0-32.0-4.0,"""event"",""trial"",""time""
""fullscreenenter"",""1"",""51695""
","
","
","""event"",""trial"",""time""
""fullscreenenter"",""1"",""51695""
","
",,null,run_exp/static/images/task_images/gems/96.jpg,null,,,,,,,15,,,2,,,,,96,0.155884695,0.15625,,,,,,,
decision,88,486068,0.0-32.0-5.0,"""event"",""trial"",""time""
""fullscreenenter"",""1"",""51695""
","
","
","""event"",""trial"",""time""
""fullscreenenter"",""1"",""51695""
","
",,386.9000001,run_exp/static/images/task_images/land.jpg,65,,,,,,,15,,,2,,,,,,,,35485,1,0,FALSE,,,
dig,89,488699,0.0-33.0-0.0,"""event"",""trial"",""time""
""fullscreenenter"",""1"",""51695""
","
","
","""event"",""trial"",""time""
""fullscreenenter"",""1"",""51695""
","
",,,,,,,,,,,,"[{""stimulus"":""run_exp/static/images/task_images/dig.jpg"",""time"":0.20000004768371582},{""stimulus"":""run_exp/static/images/task_images/land.jpg"",""time"":874.2000000476837},{""stimulus"":""run_exp/static/images/task_images/dig.jpg"",""time"":1747.0999999046326}]",[],2,,,,,,,,,,,,,,
harvest,90,489714,0.0-33.0-1.0,"""event"",""trial"",""time""
""fullscreenenter"",""1"",""51695""
","
","
","""event"",""trial"",""time""
""fullscreenenter"",""1"",""51695""
","
",,null,run_exp/static/images/task_images/gems/15.jpg,null,,,,,,,5,,,2,,,,,15,0.334539739,0.333333333,,,,,,,
decision,91,490076,0.0-33.0-2.0,"""event"",""trial"",""time""
""fullscreenenter"",""1"",""51695""
","
","
","""event"",""trial"",""time""
""fullscreenenter"",""1"",""51695""
","
",,360.1000001,run_exp/static/images/task_images/land.jpg,65,,,,,,,5,,,2,,,,,,,,39493,1,1,FALSE,,,
dig,92,492723,0.0-34.0-0.0,"""event"",""trial"",""time""
""fullscreenenter"",""1"",""51695""
","
","
","""event"",""trial"",""time""
""fullscreenenter"",""1"",""51695""
","
",,,,,,,,,,,,"[{""stimulus"":""run_exp/static/images/task_images/dig.jpg"",""time"":0.09999990463256836},{""stimulus"":""run_exp/static/images/task_images/land.jpg"",""time"":881.9000000953674},{""stimulus"":""run_exp/static/images/task_images/dig.jpg"",""time"":1761.5999999046326}]",[],2,,,,,,,,,,,,,,
harvest,93,493733,0.0-34.0-1.0,"""event"",""trial"",""time""
""fullscreenenter"",""1"",""51695""
","
","
","""event"",""trial"",""time""
""fullscreenenter"",""1"",""51695""
","
",,null,run_exp/static/images/task_images/gems/5.jpg,null,,,,,,,1,,,2,,,,,5,0.209795494,0.2,,,,,,,
decision,94,493788,0.0-34.0-2.0,"""event"",""trial"",""time""
""fullscreenenter"",""1"",""51695""
","
","
","""event"",""trial"",""time""
""fullscreenenter"",""1"",""51695""
","
",,54,run_exp/static/images/task_images/land.jpg,76,,,,,,,1,,,2,,,,,,,,43205,1,2,TRUE,,,
travel,95,503743,0.0-35.0-0.0,"""event"",""trial"",""time""
""fullscreenenter"",""1"",""51695""
","
","
","""event"",""trial"",""time""
""fullscreenenter"",""1"",""51695""
","
",,,,,,,,,,,,"[{""stimulus"":""run_exp/static/images/task_images/rocket-01.jpg"",""time"":0.19999980926513672},{""stimulus"":""run_exp/static/images/task_images/rocket-02.jpg"",""time"":1109.6999998092651},{""stimulus"":""run_exp/static/images/task_images/rocket-03.jpg"",""time"":2215.0999999046326},{""stimulus"":""run_exp/static/images/task_images/rocket-04.jpg"",""time"":3320.2999999523163},{""stimulus"":""run_exp/static/images/task_images/rocket-05.jpg"",""time"":4423.299999952316},{""stimulus"":""run_exp/static/images/task_images/rocket-06.jpg"",""time"":5534.599999904633},{""stimulus"":""run_exp/static/images/task_images/rocket-07.jpg"",""time"":6633.199999809265},{""stimulus"":""run_exp/static/images/task_images/rocket-08.jpg"",""time"":7741.599999904633},{""stimulus"":""run_exp/static/images/task_images/rocket-09.jpg"",""time"":8848}]",[],2,,,,,,,,,,,,,,
alien_welcome,96,508749,0.0-35.0-1.0,"""event"",""trial"",""time""
""fullscreenenter"",""1"",""51695""
","
","
","""event"",""trial"",""time""
""fullscreenenter"",""1"",""51695""
","
",,null,run_exp/static/images/task_images/aliens/old_aliens/planet/alien_planet-24.jpg,null,,,,,,,,,,,,,24,"14,8,24,64,77,74,60,43,66,61,76,45,11,28,17,10,70,47,78,53,7,62,32,50,20,40,73,39,42,31,71,49,80",,,,,,,,,,
land,97,509258,0.0-35.0-2.0,"""event"",""trial"",""time""
""fullscreenenter"",""1"",""51695""
","
","
","""event"",""trial"",""time""
""fullscreenenter"",""1"",""51695""
","
",,null,run_exp/static/images/task_images/land.jpg,null,,,,,,,94,,,3,,,,,,,,,,,,,,
dig,98,511292,0.0-35.0-3.0,"""event"",""trial"",""time""
""fullscreenenter"",""1"",""51695""
","
","
","""event"",""trial"",""time""
""fullscreenenter"",""1"",""51695""
","
",,,,,,,,,,,,"[{""stimulus"":""run_exp/static/images/task_images/dig.jpg"",""time"":0.39999985694885254},{""stimulus"":""run_exp/static/images/task_images/land.jpg"",""time"":670.5},{""stimulus"":""run_exp/static/images/task_images/dig.jpg"",""time"":1349.3999998569489}]",[],3,,,,,,,,,,,,,,
harvest,99,512298,0.0-35.0-4.0,"""event"",""trial"",""time""
""fullscreenenter"",""1"",""51695""
","
","
","""event"",""trial"",""time""
""fullscreenenter"",""1"",""51695""
","
",,null,run_exp/static/images/task_images/gems/94.jpg,null,,,,,,,47,,,3,,,,,94,0.501297778,0.5,,,,,,,
decision,100,512748,0.0-35.0-5.0,"""event"",""trial"",""time""
""fullscreenenter"",""1"",""51695""
","
","
","""event"",""trial"",""time""
""fullscreenenter"",""1"",""51695""
","
",,448.4000001,run_exp/static/images/task_images/land.jpg,65,,,,,,,47,,,3,,,,,,,,62165,1,0,FALSE,,,
dig,101,515303,0.0-36.0-0.0,"""event"",""trial"",""time""
""fullscreenenter"",""1"",""51695""
","
","
","""event"",""trial"",""time""
""fullscreenenter"",""1"",""51695""
","
",,,,,,,,,,,,"[{""stimulus"":""run_exp/static/images/task_images/dig.jpg"",""time"":0.19999980926513672},{""stimulus"":""run_exp/static/images/task_images/land.jpg"",""time"":857.3999998569489},{""stimulus"":""run_exp/static/images/task_images/dig.jpg"",""time"":1701.1999998092651}]",[],3,,,,,,,,,,,,,,
harvest,102,516309,0.0-36.0-1.0,"""event"",""trial"",""time""
""fullscreenenter"",""1"",""51695""
","
","
","""event"",""trial"",""time""
""fullscreenenter"",""1"",""51695""
","
",,null,run_exp/static/images/task_images/gems/47.jpg,null,,,,,,,26,,,3,,,,,47,0.560753287,0.553191489,,,,,,,
decision,103,516956,0.0-36.0-2.0,"""event"",""trial"",""time""
""fullscreenenter"",""1"",""51695""
","
","
","""event"",""trial"",""time""
""fullscreenenter"",""1"",""51695""
","
",,645.1000001,run_exp/static/images/task_images/land.jpg,65,,,,,,,26,,,3,,,,,,,,66373,1,1,FALSE,,,
dig,104,519317,0.0-37.0-0.0,"""event"",""trial"",""time""
""fullscreenenter"",""1"",""51695""
","
","
","""event"",""trial"",""time""
""fullscreenenter"",""1"",""51695""
","
",,,,,,,,,,,,"[{""stimulus"":""run_exp/static/images/task_images/dig.jpg"",""time"":0.3000001907348633},{""stimulus"":""run_exp/static/images/task_images/land.jpg"",""time"":790.1000001430511},{""stimulus"":""run_exp/static/images/task_images/dig.jpg"",""time"":1571.2000000476837}]",[],3,,,,,,,,,,,,,,
harvest,105,520328,0.0-37.0-1.0,"""event"",""trial"",""time""
""fullscreenenter"",""1"",""51695""
","
","
","""event"",""trial"",""time""
""fullscreenenter"",""1"",""51695""
","
",,null,run_exp/static/images/task_images/gems/26.jpg,null,,,,,,,13,,,3,,,,,26,0.497539799,0.5,,,,,,,
decision,106,520765,0.0-37.0-2.0,"""event"",""trial"",""time""
""fullscreenenter"",""1"",""51695""
","
","
","""event"",""trial"",""time""
""fullscreenenter"",""1"",""51695""
","
",,434.3999999,run_exp/static/images/task_images/land.jpg,65,,,,,,,13,,,3,,,,,,,,70182,1,2,FALSE,,,
dig,107,523343,0.0-38.0-0.0,"""event"",""trial"",""time""
""fullscreenenter"",""1"",""51695""
","
","
","""event"",""trial"",""time""
""fullscreenenter"",""1"",""51695""
","
",,,,,,,,,,,,"[{""stimulus"":""run_exp/static/images/task_images/dig.jpg"",""time"":0.19999980926513672},{""stimulus"":""run_exp/static/images/task_images/land.jpg"",""time"":864.5},{""stimulus"":""run_exp/static/images/task_images/dig.jpg"",""time"":1726.5}]",[],3,,,,,,,,,,,,,,
harvest,108,524348,0.0-38.0-1.0,"""event"",""trial"",""time""
""fullscreenenter"",""1"",""51695""
","
","
","""event"",""trial"",""time""
""fullscreenenter"",""1"",""51695""
","
",,null,run_exp/static/images/task_images/gems/13.jpg,null,,,,,,,7,,,3,,,,,13,0.523258286,0.538461538,,,,,,,
decision,109,524540,0.0-38.0-2.0,"""event"",""trial"",""time""
""fullscreenenter"",""1"",""51695""
","
","
","""event"",""trial"",""time""
""fullscreenenter"",""1"",""51695""
","
",,190.5,run_exp/static/images/task_images/land.jpg,65,,,,,,,7,,,3,,,,,,,,73957,1,3,FALSE,,,
dig,110,527360,0.0-39.0-0.0,"""event"",""trial"",""time""
""fullscreenenter"",""1"",""51695""
","
","
","""event"",""trial"",""time""
""fullscreenenter"",""1"",""51695""
","
",,,,,,,,,,,,"[{""stimulus"":""run_exp/static/images/task_images/dig.jpg"",""time"":0.20000004768371582},{""stimulus"":""run_exp/static/images/task_images/land.jpg"",""time"":944.7999999523163},{""stimulus"":""run_exp/static/images/task_images/dig.jpg"",""time"":1876.2000000476837}]",[],3,,,,,,,,,,,,,,
harvest,111,528365,0.0-39.0-1.0,"""event"",""trial"",""time""
""fullscreenenter"",""1"",""51695""
","
","
","""event"",""trial"",""time""
""fullscreenenter"",""1"",""51695""
","
",,null,run_exp/static/images/task_images/gems/7.jpg,null,,,,,,,4,,,3,,,,,7,0.510382779,0.571428571,,,,,,,
decision,112,529012,0.0-39.0-2.0,"""event"",""trial"",""time""
""fullscreenenter"",""1"",""51695""
","
","
","""event"",""trial"",""time""
""fullscreenenter"",""1"",""51695""
","
",,645.7,run_exp/static/images/task_images/land.jpg,76,,,,,,,4,,,3,,,,,,,,78429,1,4,TRUE,,,
travel,113,538368,0.0-40.0-0.0,"""event"",""trial"",""time""
""fullscreenenter"",""1"",""51695""
","
","
","""event"",""trial"",""time""
""fullscreenenter"",""1"",""51695""
","
",,,,,,,,,,,,"[{""stimulus"":""run_exp/static/images/task_images/rocket-01.jpg"",""time"":0.39999985694885254},{""stimulus"":""run_exp/static/images/task_images/rocket-02.jpg"",""time"":1042.5999999046326},{""stimulus"":""run_exp/static/images/task_images/rocket-03.jpg"",""time"":2084.0999999046326},{""stimulus"":""run_exp/static/images/task_images/rocket-04.jpg"",""time"":3130.0999999046326},{""stimulus"":""run_exp/static/images/task_images/rocket-05.jpg"",""time"":4159.699999809265},{""stimulus"":""run_exp/static/images/task_images/rocket-06.jpg"",""time"":5198.099999904633},{""stimulus"":""run_exp/static/images/task_images/rocket-07.jpg"",""time"":6236.199999809265},{""stimulus"":""run_exp/static/images/task_images/rocket-08.jpg"",""time"":7279.699999809265},{""stimulus"":""run_exp/static/images/task_images/rocket-09.jpg"",""time"":8318}]",[],3,,,,,,,,,,,,,,
alien_welcome,114,543370,0.0-40.0-1.0,"""event"",""trial"",""time""
""fullscreenenter"",""1"",""51695""
","
","
","""event"",""trial"",""time""
""fullscreenenter"",""1"",""51695""
","
",,null,run_exp/static/images/task_images/aliens/old_aliens/planet/alien_planet-64.jpg,null,,,,,,,,,,,,,64,"14,8,24,64,77,74,60,43,66,61,76,45,11,28,17,10,70,47,78,53,7,62,32,50,20,40,73,39,42,31,71,49,80",,,,,,,,,,
land,115,543876,0.0-40.0-2.0,"""event"",""trial"",""time""
""fullscreenenter"",""1"",""51695""
","
","
","""event"",""trial"",""time""
""fullscreenenter"",""1"",""51695""
","
",,null,run_exp/static/images/task_images/land.jpg,null,,,,,,,99,,,4,,,,,,,,,,,,,,
dig,116,545888,0.0-40.0-3.0,"""event"",""trial"",""time""
""fullscreenenter"",""1"",""51695""
","
","
","""event"",""trial"",""time""
""fullscreenenter"",""1"",""51695""
","
",,,,,,,,,,,,"[{""stimulus"":""run_exp/static/images/task_images/dig.jpg"",""time"":0.6000001430511475},{""stimulus"":""run_exp/static/images/task_images/land.jpg"",""time"":668.9000000953674},{""stimulus"":""run_exp/static/images/task_images/dig.jpg"",""time"":1339.7999999523163}]",[],4,,,,,,,,,,,,,,
harvest,117,546893,0.0-40.0-4.0,"""event"",""trial"",""time""
""fullscreenenter"",""1"",""51695""
","
","
","""event"",""trial"",""time""
""fullscreenenter"",""1"",""51695""
","
",,null,run_exp/static/images/task_images/gems/99.jpg,null,,,,,,,54,,,4,,,,,99,0.541962372,0.545454545,,,,,,,
decision,118,547363,0.0-40.0-5.0,"""event"",""trial"",""time""
""fullscreenenter"",""1"",""51695""
","
","
","""event"",""trial"",""time""
""fullscreenenter"",""1"",""51695""
","
",,468.7,run_exp/static/images/task_images/land.jpg,65,,,,,,,54,,,4,,,,,,,,96780,1,0,FALSE,,,
dig,119,549903,0.0-41.0-0.0,"""event"",""trial"",""time""
""fullscreenenter"",""1"",""51695""
","
","
","""event"",""trial"",""time""
""fullscreenenter"",""1"",""51695""
","
",,,,,,,,,,,,"[{""stimulus"":""run_exp/static/images/task_images/dig.jpg"",""time"":0.20000004768371582},{""stimulus"":""run_exp/static/images/task_images/land.jpg"",""time"":845},{""stimulus"":""run_exp/static/images/task_images/dig.jpg"",""time"":1701.9000000953674}]",[],4,,,,,,,,,,,,,,
harvest,120,550918,0.0-41.0-1.0,"""event"",""trial"",""time""
""fullscreenenter"",""1"",""51695""
","
","
","""event"",""trial"",""time""
""fullscreenenter"",""1"",""51695""
","
",,null,run_exp/static/images/task_images/gems/54.jpg,null,,,,,,,30,,,4,,,,,54,0.546915212,0.555555556,,,,,,,
decision,121,551180,0.0-41.0-2.0,"""event"",""trial"",""time""
""fullscreenenter"",""1"",""51695""
","
","
","""event"",""trial"",""time""
""fullscreenenter"",""1"",""51695""
","
",,260.1000001,run_exp/static/images/task_images/land.jpg,65,,,,,,,30,,,4,,,,,,,,100597,1,1,FALSE,,,
dig,122,553928,0.0-42.0-0.0,"""event"",""trial"",""time""
""fullscreenenter"",""1"",""51695""
","
","
","""event"",""trial"",""time""
""fullscreenenter"",""1"",""51695""
","
",,,,,,,,,,,,"[{""stimulus"":""run_exp/static/images/task_images/dig.jpg"",""time"":0.19999980926513672},{""stimulus"":""run_exp/static/images/task_images/land.jpg"",""time"":918.8999998569489},{""stimulus"":""run_exp/static/images/task_images/dig.jpg"",""time"":1831}]",[],4,,,,,,,,,,,,,,
harvest,123,554935,0.0-42.0-1.0,"""event"",""trial"",""time""
""fullscreenenter"",""1"",""51695""
","
","
","""event"",""trial"",""time""
""fullscreenenter"",""1"",""51695""
","
",,null,run_exp/static/images/task_images/gems/30.jpg,null,,,,,,,16,,,4,,,,,30,0.528102769,0.533333333,,,,,,,
decision,124,555301,0.0-42.0-2.0,"""event"",""trial"",""time""
""fullscreenenter"",""1"",""51695""
","
","
","""event"",""trial"",""time""
""fullscreenenter"",""1"",""51695""
","
",,363.2,run_exp/static/images/task_images/land.jpg,65,,,,,,,16,,,4,,,,,,,,104718,1,2,FALSE,,,
dig,125,557944,0.0-43.0-0.0,"""event"",""trial"",""time""
""fullscreenenter"",""1"",""51695""
","
","
","""event"",""trial"",""time""
""fullscreenenter"",""1"",""51695""
","
",,,,,,,,,,,,"[{""stimulus"":""run_exp/static/images/task_images/dig.jpg"",""time"":0.19999980926513672},{""stimulus"":""run_exp/static/images/task_images/land.jpg"",""time"":884.5999999046326},{""stimulus"":""run_exp/static/images/task_images/dig.jpg"",""time"":1765.7999999523163}]",[],4,,,,,,,,,,,,,,
harvest,126,558947,0.0-43.0-1.0,"""event"",""trial"",""time""
""fullscreenenter"",""1"",""51695""
","
","
","""event"",""trial"",""time""
""fullscreenenter"",""1"",""51695""
","
",,null,run_exp/static/images/task_images/gems/16.jpg,null,,,,,,,8,,,4,,,,,16,0.511448518,0.5,,,,,,,
decision,127,559383,0.0-43.0-2.0,"""event"",""trial"",""time""
""fullscreenenter"",""1"",""51695""
","
","
","""event"",""trial"",""time""
""fullscreenenter"",""1"",""51695""
","
",,431.0999999,run_exp/static/images/task_images/land.jpg,65,,,,,,,8,,,4,,,,,,,,108800,1,3,FALSE,,,
dig,128,561955,0.0-44.0-0.0,"""event"",""trial"",""time""
""fullscreenenter"",""1"",""51695""
","
","
","""event"",""trial"",""time""
""fullscreenenter"",""1"",""51695""
","
",,,,,,,,,,,,"[{""stimulus"":""run_exp/static/images/task_images/dig.jpg"",""time"":0.3000001907348633},{""stimulus"":""run_exp/static/images/task_images/land.jpg"",""time"":857.9000000953674},{""stimulus"":""run_exp/static/images/task_images/dig.jpg"",""time"":1719.7000000476837}]",[],4,,,,,,,,,,,,,,
harvest,129,562957,0.0-44.0-1.0,"""event"",""trial"",""time""
""fullscreenenter"",""1"",""51695""
","
","
","""event"",""trial"",""time""
""fullscreenenter"",""1"",""51695""
","
",,null,run_exp/static/images/task_images/gems/8.jpg,null,,,,,,,4,,,4,,,,,8,0.537305644,0.5,,,,,,,
decision,130,563820,0.0-44.0-2.0,"""event"",""trial"",""time""
""fullscreenenter"",""1"",""51695""
","
","
","""event"",""trial"",""time""
""fullscreenenter"",""1"",""51695""
","
",,862.0999999,run_exp/static/images/task_images/land.jpg,65,,,,,,,4,,,4,,,,,,,,113237,1,4,FALSE,,,
dig,131,565965,0.0-45.0-0.0,"""event"",""trial"",""time""
""fullscreenenter"",""1"",""51695""
","
","
","""event"",""trial"",""time""
""fullscreenenter"",""1"",""51695""
","
",,,,,,,,,,,,"[{""stimulus"":""run_exp/static/images/task_images/dig.jpg"",""time"":0.39999985694885254},{""stimulus"":""run_exp/static/images/task_images/land.jpg"",""time"":716.2999999523163},{""stimulus"":""run_exp/static/images/task_images/dig.jpg"",""time"":1427}]",[],4,,,,,,,,,,,,,,
harvest,132,566980,0.0-45.0-1.0,"""event"",""trial"",""time""
""fullscreenenter"",""1"",""51695""
","
","
","""event"",""trial"",""time""
""fullscreenenter"",""1"",""51695""
","
",,null,run_exp/static/images/task_images/gems/4.jpg,null,,,,,,,2,,,4,,,,,4,0.542950842,0.5,,,,,,,
decision,133,567284,0.0-45.0-2.0,"""event"",""trial"",""time""
""fullscreenenter"",""1"",""51695""
","
","
","""event"",""trial"",""time""
""fullscreenenter"",""1"",""51695""
","
",,302,run_exp/static/images/task_images/land.jpg,65,,,,,,,2,,,4,,,,,,,,116701,1,5,FALSE,,,
dig,134,569987,0.0-46.0-0.0,"""event"",""trial"",""time""
""fullscreenenter"",""1"",""51695""
","
","
","""event"",""trial"",""time""
""fullscreenenter"",""1"",""51695""
","
",,,,,,,,,,,,"[{""stimulus"":""run_exp/static/images/task_images/dig.jpg"",""time"":0.20000004768371582},{""stimulus"":""run_exp/static/images/task_images/land.jpg"",""time"":900.1000001430511},{""stimulus"":""run_exp/static/images/task_images/dig.jpg"",""time"":1802.2999999523163}]",[],4,,,,,,,,,,,,,,
harvest,135,570990,0.0-46.0-1.0,"""event"",""trial"",""time""
""fullscreenenter"",""1"",""51695""
","
","
","""event"",""trial"",""time""
""fullscreenenter"",""1"",""51695""
","
",,null,run_exp/static/images/task_images/gems/2.jpg,null,,,,,,,1,,,4,,,,,2,0.473154791,0.5,,,,,,,
decision,136,571148,0.0-46.0-2.0,"""event"",""trial"",""time""
""fullscreenenter"",""1"",""51695""
","
","
","""event"",""trial"",""time""
""fullscreenenter"",""1"",""51695""
","
",,156.5,run_exp/static/images/task_images/land.jpg,65,,,,,,,1,,,4,,,,,,,,120565,1,6,FALSE,,,
dig,137,574000,0.0-47.0-0.0,"""event"",""trial"",""time""
""fullscreenenter"",""1"",""51695""
","
","
","""event"",""trial"",""time""
""fullscreenenter"",""1"",""51695""
","
",,,,,,,,,,,,"[{""stimulus"":""run_exp/static/images/task_images/dig.jpg"",""time"":0.19999980926513672},{""stimulus"":""run_exp/static/images/task_images/land.jpg"",""time"":954.6999998092651},{""stimulus"":""run_exp/static/images/task_images/dig.jpg"",""time"":1903.1999998092651}]",[],4,,,,,,,,,,,,,,
harvest,138,575009,0.0-47.0-1.0,"""event"",""trial"",""time""
""fullscreenenter"",""1"",""51695""
","
","
","""event"",""trial"",""time""
""fullscreenenter"",""1"",""51695""
","
",,null,run_exp/static/images/task_images/gems/1.jpg,null,,,,,,,0,,,4,,,,,1,0.414559148,0,,,,,,,
decision,139,575924,0.0-47.0-2.0,"""event"",""trial"",""time""
""fullscreenenter"",""1"",""51695""
","
","
","""event"",""trial"",""time""
""fullscreenenter"",""1"",""51695""
","
",,914,run_exp/static/images/task_images/land.jpg,76,,,,,,,0,,,4,,,,,,,,125341,1,7,TRUE,,,
travel,140,585014,0.0-48.0-0.0,"""event"",""trial"",""time""
""fullscreenenter"",""1"",""51695""
","
","
","""event"",""trial"",""time""
""fullscreenenter"",""1"",""51695""
","
",,,,,,,,,,,,"[{""stimulus"":""run_exp/static/images/task_images/rocket-01.jpg"",""time"":0.20000004768371582},{""stimulus"":""run_exp/static/images/task_images/rocket-02.jpg"",""time"":1011.9000000953674},{""stimulus"":""run_exp/static/images/task_images/rocket-03.jpg"",""time"":2024.9000000953674},{""stimulus"":""run_exp/static/images/task_images/rocket-04.jpg"",""time"":3030.7000000476837},{""stimulus"":""run_exp/static/images/task_images/rocket-05.jpg"",""time"":4040.9000000953674},{""stimulus"":""run_exp/static/images/task_images/rocket-06.jpg"",""time"":5052.700000047684},{""stimulus"":""run_exp/static/images/task_images/rocket-07.jpg"",""time"":6063.900000095367},{""stimulus"":""run_exp/static/images/task_images/rocket-08.jpg"",""time"":7065.400000095367},{""stimulus"":""run_exp/static/images/task_images/rocket-09.jpg"",""time"":8077.100000143051}]",[],4,,,,,,,,,,,,,,
alien_welcome,141,590023,0.0-48.0-1.0,"""event"",""trial"",""time""
""fullscreenenter"",""1"",""51695""
","
","
","""event"",""trial"",""time""
""fullscreenenter"",""1"",""51695""
","
",,null,run_exp/static/images/task_images/aliens/old_aliens/planet/alien_planet-77.jpg,null,,,,,,,,,,,,,77,"14,8,24,64,77,74,60,43,66,61,76,45,11,28,17,10,70,47,78,53,7,62,32,50,20,40,73,39,42,31,71,49,80",,,,,,,,,,
land,142,590532,0.0-48.0-2.0,"""event"",""trial"",""time""
""fullscreenenter"",""1"",""51695""
","
","
","""event"",""trial"",""time""
""fullscreenenter"",""1"",""51695""
","
",,null,run_exp/static/images/task_images/land.jpg,null,,,,,,,105,,,5,,,,,,,,,,,,,,
dig,143,592537,0.0-48.0-3.0,"""event"",""trial"",""time""
""fullscreenenter"",""1"",""51695""
","
","
","""event"",""trial"",""time""
""fullscreenenter"",""1"",""51695""
","
",,,,,,,,,,,,"[{""stimulus"":""run_exp/static/images/task_images/dig.jpg"",""time"":0.40000009536743164},{""stimulus"":""run_exp/static/images/task_images/land.jpg"",""time"":669.2999999523163},{""stimulus"":""run_exp/static/images/task_images/dig.jpg"",""time"":1337.4000000953674}]",[],5,,,,,,,,,,,,,,
harvest,144,593551,0.0-48.0-4.0,"""event"",""trial"",""time""
""fullscreenenter"",""1"",""51695""
","
","
","""event"",""trial"",""time""
""fullscreenenter"",""1"",""51695""
","
",,null,run_exp/static/images/task_images/gems/105.jpg,null,,,,,,,50,,,5,,,,,105,0.472850571,0.476190476,,,,,,,
decision,145,593748,0.0-48.0-5.0,"""event"",""trial"",""time""
""fullscreenenter"",""1"",""51695""
","
","
","""event"",""trial"",""time""
""fullscreenenter"",""1"",""51695""
","
",,196.0999999,run_exp/static/images/task_images/land.jpg,65,,,,,,,50,,,5,,,,,,,,143165,1,0,FALSE,,,
dig,146,596563,0.0-49.0-0.0,"""event"",""trial"",""time""
""fullscreenenter"",""1"",""51695""
","
","
","""event"",""trial"",""time""
""fullscreenenter"",""1"",""51695""
","
",,,,,,,,,,,,"[{""stimulus"":""run_exp/static/images/task_images/dig.jpg"",""time"":0.2999999523162842},{""stimulus"":""run_exp/static/images/task_images/land.jpg"",""time"":942.8999998569489},{""stimulus"":""run_exp/static/images/task_images/dig.jpg"",""time"":1869.6999998092651}]",[],5,,,,,,,,,,,,,,
harvest,147,597572,0.0-49.0-1.0,"""event"",""trial"",""time""
""fullscreenenter"",""1"",""51695""
","
","
","""event"",""trial"",""time""
""fullscreenenter"",""1"",""51695""
","
",,null,run_exp/static/images/task_images/gems/50.jpg,null,,,,,,,22,,,5,,,,,50,0.445817133,0.44,,,,,,,
decision,148,597805,0.0-49.0-2.0,"""event"",""trial"",""time""
""fullscreenenter"",""1"",""51695""
","
","
","""event"",""trial"",""time""
""fullscreenenter"",""1"",""51695""
","
",,230.8999999,run_exp/static/images/task_images/land.jpg,65,,,,,,,22,,,5,,,,,,,,147222,1,1,FALSE,,,
dig,149,600581,0.0-50.0-0.0,"""event"",""trial"",""time""
""fullscreenenter"",""1"",""51695""
","
","
","""event"",""trial"",""time""
""fullscreenenter"",""1"",""51695""
","
",,,,,,,,,,,,"[{""stimulus"":""run_exp/static/images/task_images/dig.jpg"",""time"":0.2999999523162842},{""stimulus"":""run_exp/static/images/task_images/land.jpg"",""time"":927.5999999046326},{""stimulus"":""run_exp/static/images/task_images/dig.jpg"",""time"":1862.2999999523163}]",[],5,,,,,,,,,,,,,,
harvest,150,601586,0.0-50.0-1.0,"""event"",""trial"",""time""
""fullscreenenter"",""1"",""51695""
","
","
","""event"",""trial"",""time""
""fullscreenenter"",""1"",""51695""
","
",,null,run_exp/static/images/task_images/gems/22.jpg,null,,,,,,,9,,,5,,,,,22,0.38734513,0.409090909,,,,,,,
decision,151,602109,0.0-50.0-2.0,"""event"",""trial"",""time""
""fullscreenenter"",""1"",""51695""
","
","
","""event"",""trial"",""time""
""fullscreenenter"",""1"",""51695""
","
",,520.3000002,run_exp/static/images/task_images/land.jpg,65,,,,,,,9,,,5,,,,,,,,151526,1,2,FALSE,,,
dig,152,604599,0.0-51.0-0.0,"""event"",""trial"",""time""
""fullscreenenter"",""1"",""51695""
","
","
","""event"",""trial"",""time""
""fullscreenenter"",""1"",""51695""
","
",,,,,,,,,,,,"[{""stimulus"":""run_exp/static/images/task_images/dig.jpg"",""time"":0.19999980926513672},{""stimulus"":""run_exp/static/images/task_images/land.jpg"",""time"":827.8999998569489},{""stimulus"":""run_exp/static/images/task_images/dig.jpg"",""time"":1654.5}]",[],5,,,,,,,,,,,,,,
harvest,153,605605,0.0-51.0-1.0,"""event"",""trial"",""time""
""fullscreenenter"",""1"",""51695""
","
","
","""event"",""trial"",""time""
""fullscreenenter"",""1"",""51695""
","
",,null,run_exp/static/images/task_images/gems/9.jpg,null,,,,,,,5,,,5,,,,,9,0.506805346,0.555555556,,,,,,,
decision,154,606140,0.0-51.0-2.0,"""event"",""trial"",""time""
""fullscreenenter"",""1"",""51695""
","
","
","""event"",""trial"",""time""
""fullscreenenter"",""1"",""51695""
","
",,533.4000001,run_exp/static/images/task_images/land.jpg,65,,,,,,,5,,,5,,,,,,,,155557,1,3,FALSE,,,
dig,155,608613,0.0-52.0-0.0,"""event"",""trial"",""time""
""fullscreenenter"",""1"",""51695""
","
","
","""event"",""trial"",""time""
""fullscreenenter"",""1"",""51695""
","
",,,,,,,,,,,,"[{""stimulus"":""run_exp/static/images/task_images/dig.jpg"",""time"":0.20000004768371582},{""stimulus"":""run_exp/static/images/task_images/land.jpg"",""time"":828},{""stimulus"":""run_exp/static/images/task_images/dig.jpg"",""time"":1648.9000000953674}]",[],5,,,,,,,,,,,,,,
harvest,156,609619,0.0-52.0-1.0,"""event"",""trial"",""time""
""fullscreenenter"",""1"",""51695""
","
","
","""event"",""trial"",""time""
""fullscreenenter"",""1"",""51695""
","
",,null,run_exp/static/images/task_images/gems/5.jpg,null,,,,,,,2,,,5,,,,,5,0.497919459,0.4,,,,,,,
decision,157,610677,0.0-52.0-2.0,"""event"",""trial"",""time""
""fullscreenenter"",""1"",""51695""
","
","
","""event"",""trial"",""time""
""fullscreenenter"",""1"",""51695""
","
",,1056,run_exp/static/images/task_images/land.jpg,65,,,,,,,2,,,5,,,,,,,,160094,1,4,FALSE,,,
dig,158,612628,0.0-53.0-0.0,"""event"",""trial"",""time""
""fullscreenenter"",""1"",""51695""
","
","
","""event"",""trial"",""time""
""fullscreenenter"",""1"",""51695""
","
",,,,,,,,,,,,"[{""stimulus"":""run_exp/static/images/task_images/dig.jpg"",""time"":0.3000001907348633},{""stimulus"":""run_exp/static/images/task_images/land.jpg"",""time"":660.1000001430511},{""stimulus"":""run_exp/static/images/task_images/dig.jpg"",""time"":1297.4000000953674}]",[],5,,,,,,,,,,,,,,
harvest,159,613639,0.0-53.0-1.0,"""event"",""trial"",""time""
""fullscreenenter"",""1"",""51695""
","
","
","""event"",""trial"",""time""
""fullscreenenter"",""1"",""51695""
","
",,null,run_exp/static/images/task_images/gems/2.jpg,null,,,,,,,1,,,5,,,,,2,0.520499151,0.5,,,,,,,
decision,160,614277,0.0-53.0-2.0,"""event"",""trial"",""time""
""fullscreenenter"",""1"",""51695""
","
","
","""event"",""trial"",""time""
""fullscreenenter"",""1"",""51695""
","
",,635.3000002,run_exp/static/images/task_images/land.jpg,76,,,,,,,1,,,5,,,,,,,,163694,1,5,TRUE,,,
travel,161,623655,0.0-54.0-0.0,"""event"",""trial"",""time""
""fullscreenenter"",""1"",""51695""
","
","
","""event"",""trial"",""time""
""fullscreenenter"",""1"",""51695""
","
",,,,,,,,,,,,"[{""stimulus"":""run_exp/static/images/task_images/rocket-01.jpg"",""time"":0.19999980926513672},{""stimulus"":""run_exp/static/images/task_images/rocket-02.jpg"",""time"":1046.0999999046326},{""stimulus"":""run_exp/static/images/task_images/rocket-03.jpg"",""time"":2084.0999999046326},{""stimulus"":""run_exp/static/images/task_images/rocket-04.jpg"",""time"":3128.7999999523163},{""stimulus"":""run_exp/static/images/task_images/rocket-05.jpg"",""time"":4169},{""stimulus"":""run_exp/static/images/task_images/rocket-06.jpg"",""time"":5216.099999904633},{""stimulus"":""run_exp/static/images/task_images/rocket-07.jpg"",""time"":6242},{""stimulus"":""run_exp/static/images/task_images/rocket-08.jpg"",""time"":7282.899999856949},{""stimulus"":""run_exp/static/images/task_images/rocket-09.jpg"",""time"":8326.899999856949}]",[],5,,,,,,,,,,,,,,
alien_welcome,162,628658,0.0-54.0-1.0,"""event"",""trial"",""time""
""fullscreenenter"",""1"",""51695""
","
","
","""event"",""trial"",""time""
""fullscreenenter"",""1"",""51695""
","
",,null,run_exp/static/images/task_images/aliens/old_aliens/planet/alien_planet-74.jpg,null,,,,,,,,,,,,,74,"14,8,24,64,77,74,60,43,66,61,76,45,11,28,17,10,70,47,78,53,7,62,32,50,20,40,73,39,42,31,71,49,80",,,,,,,,,,
land,163,629166,0.0-54.0-2.0,"""event"",""trial"",""time""
""fullscreenenter"",""1"",""51695""
","
","
","""event"",""trial"",""time""
""fullscreenenter"",""1"",""51695""
","
",,null,run_exp/static/images/task_images/land.jpg,null,,,,,,,94,,,6,,,,,,,,,,,,,,
dig,164,631177,0.0-54.0-3.0,"""event"",""trial"",""time""
""fullscreenenter"",""1"",""51695""
","
","
","""event"",""trial"",""time""
""fullscreenenter"",""1"",""51695""
","
",,,,,,,,,,,,"[{""stimulus"":""run_exp/static/images/task_images/dig.jpg"",""time"":0.3000001907348633},{""stimulus"":""run_exp/static/images/task_images/land.jpg"",""time"":672.1000001430511},{""stimulus"":""run_exp/static/images/task_images/dig.jpg"",""time"":1338.6000001430511}]",[],6,,,,,,,,,,,,,,
harvest,165,632187,0.0-54.0-4.0,"""event"",""trial"",""time""
""fullscreenenter"",""1"",""51695""
","
","
","""event"",""trial"",""time""
""fullscreenenter"",""1"",""51695""
","
",,null,run_exp/static/images/task_images/gems/94.jpg,null,,,,,,,70,,,6,,,,,94,0.744885276,0.744680851,,,,,,,
decision,166,632827,0.0-54.0-5.0,"""event"",""trial"",""time""
""fullscreenenter"",""1"",""51695""
","
","
","""event"",""trial"",""time""
""fullscreenenter"",""1"",""51695""
","
",,639,run_exp/static/images/task_images/land.jpg,65,,,,,,,70,,,6,,,,,,,,182244,1,0,FALSE,,,
dig,167,635196,0.0-55.0-0.0,"""event"",""trial"",""time""
""fullscreenenter"",""1"",""51695""
","
","
","""event"",""trial"",""time""
""fullscreenenter"",""1"",""51695""
","
",,,,,,,,,,,,"[{""stimulus"":""run_exp/static/images/task_images/dig.jpg"",""time"":0.09999990463256836},{""stimulus"":""run_exp/static/images/task_images/land.jpg"",""time"":794.3999998569489},{""stimulus"":""run_exp/static/images/task_images/dig.jpg"",""time"":1589.3999998569489}]",[],6,,,,,,,,,,,,,,
harvest,168,636198,0.0-55.0-1.0,"""event"",""trial"",""time""
""fullscreenenter"",""1"",""51695""
","
","
","""event"",""trial"",""time""
""fullscreenenter"",""1"",""51695""
","
",,null,run_exp/static/images/task_images/gems/70.jpg,null,,,,,,,58,,,6,,,,,70,0.835457387,0.828571429,,,,,,,
decision,169,636763,0.0-55.0-2.0,"""event"",""trial"",""time""
""fullscreenenter"",""1"",""51695""
","
","
","""event"",""trial"",""time""
""fullscreenenter"",""1"",""51695""
","
",,563.5,run_exp/static/images/task_images/land.jpg,65,,,,,,,58,,,6,,,,,,,,186181,1,1,FALSE,,,
dig,170,639211,0.0-56.0-0.0,"""event"",""trial"",""time""
""fullscreenenter"",""1"",""51695""
","
","
","""event"",""trial"",""time""
""fullscreenenter"",""1"",""51695""
","
",,,,,,,,,,,,"[{""stimulus"":""run_exp/static/images/task_images/dig.jpg"",""time"":0.20000004768371582},{""stimulus"":""run_exp/static/images/task_images/land.jpg"",""time"":813.7000000476837},{""stimulus"":""run_exp/static/images/task_images/dig.jpg"",""time"":1631.8999998569489}]",[],6,,,,,,,,,,,,,,
harvest,171,640218,0.0-56.0-1.0,"""event"",""trial"",""time""
""fullscreenenter"",""1"",""51695""
","
","
","""event"",""trial"",""time""
""fullscreenenter"",""1"",""51695""
","
",,null,run_exp/static/images/task_images/gems/58.jpg,null,,,,,,,49,,,6,,,,,58,0.846329921,0.844827586,,,,,,,
decision,172,640355,0.0-56.0-2.0,"""event"",""trial"",""time""
""fullscreenenter"",""1"",""51695""
","
","
","""event"",""trial"",""time""
""fullscreenenter"",""1"",""51695""
","
",,135,run_exp/static/images/task_images/land.jpg,65,,,,,,,49,,,6,,,,,,,,189772,1,2,FALSE,,,
dig,173,643227,0.0-57.0-0.0,"""event"",""trial"",""time""
""fullscreenenter"",""1"",""51695""
","
","
","""event"",""trial"",""time""
""fullscreenenter"",""1"",""51695""
","
",,,,,,,,,,,,"[{""stimulus"":""run_exp/static/images/task_images/dig.jpg"",""time"":0.09999990463256836},{""stimulus"":""run_exp/static/images/task_images/land.jpg"",""time"":957.5999999046326},{""stimulus"":""run_exp/static/images/task_images/dig.jpg"",""time"":1919}]",[],6,,,,,,,,,,,,,,
harvest,174,644234,0.0-57.0-1.0,"""event"",""trial"",""time""
""fullscreenenter"",""1"",""51695""
","
","
","""event"",""trial"",""time""
""fullscreenenter"",""1"",""51695""
","
",,null,run_exp/static/images/task_images/gems/49.jpg,null,,,,,,,41,,,6,,,,,49,0.827141033,0.836734694,,,,,,,
decision,175,644435,0.0-57.0-2.0,"""event"",""trial"",""time""
""fullscreenenter"",""1"",""51695""
","
","
","""event"",""trial"",""time""
""fullscreenenter"",""1"",""51695""
","
",,199.6000001,run_exp/static/images/task_images/land.jpg,65,,,,,,,41,,,6,,,,,,,,193852,1,3,FALSE,,,
dig,176,647245,0.0-58.0-0.0,"""event"",""trial"",""time""
""fullscreenenter"",""1"",""51695""
","
","
","""event"",""trial"",""time""
""fullscreenenter"",""1"",""51695""
","
",,,,,,,,,,,,"[{""stimulus"":""run_exp/static/images/task_images/dig.jpg"",""time"":0.20000004768371582},{""stimulus"":""run_exp/static/images/task_images/land.jpg"",""time"":937.9000000953674},{""stimulus"":""run_exp/static/images/task_images/dig.jpg"",""time"":1872.7999999523163}]",[],6,,,,,,,,,,,,,,
harvest,177,648253,0.0-58.0-1.0,"""event"",""trial"",""time""
""fullscreenenter"",""1"",""51695""
","
","
","""event"",""trial"",""time""
""fullscreenenter"",""1"",""51695""
","
",,null,run_exp/static/images/task_images/gems/41.jpg,null,,,,,,,33,,,6,,,,,41,0.804101006,0.804878049,,,,,,,
decision,178,648531,0.0-58.0-2.0,"""event"",""trial"",""time""
""fullscreenenter"",""1"",""51695""
","
","
","""event"",""trial"",""time""
""fullscreenenter"",""1"",""51695""
","
",,277.1000001,run_exp/static/images/task_images/land.jpg,65,,,,,,,33,,,6,,,,,,,,197948,1,4,FALSE,,,
dig,179,651263,0.0-59.0-0.0,"""event"",""trial"",""time""
""fullscreenenter"",""1"",""51695""
","
","
","""event"",""trial"",""time""
""fullscreenenter"",""1"",""51695""
","
",,,,,,,,,,,,"[{""stimulus"":""run_exp/static/images/task_images/dig.jpg"",""time"":0.09999990463256836},{""stimulus"":""run_exp/static/images/task_images/land.jpg"",""time"":910.2999999523163},{""stimulus"":""run_exp/static/images/task_images/dig.jpg"",""time"":1818.2000000476837}]",[],6,,,,,,,,,,,,,,
harvest,180,652272,0.0-59.0-1.0,"""event"",""trial"",""time""
""fullscreenenter"",""1"",""51695""
","
","
","""event"",""trial"",""time""
""fullscreenenter"",""1"",""51695""
","
",,null,run_exp/static/images/task_images/gems/33.jpg,null,,,,,,,27,,,6,,,,,33,0.828254083,0.818181818,,,,,,,
decision,181,652348,0.0-59.0-2.0,"""event"",""trial"",""time""
""fullscreenenter"",""1"",""51695""
","
","
","""event"",""trial"",""time""
""fullscreenenter"",""1"",""51695""
","
",,74.30000019,run_exp/static/images/task_images/land.jpg,65,,,,,,,27,,,6,,,,,,,,201765,1,5,FALSE,,,
dig,182,655279,0.0-60.0-0.0,"""event"",""trial"",""time""
""fullscreenenter"",""1"",""51695""
","
","
","""event"",""trial"",""time""
""fullscreenenter"",""1"",""51695""
","
",,,,,,,,,,,,"[{""stimulus"":""run_exp/static/images/task_images/dig.jpg"",""time"":0.20000004768371582},{""stimulus"":""run_exp/static/images/task_images/land.jpg"",""time"":976.6000001430511},{""stimulus"":""run_exp/static/images/task_images/dig.jpg"",""time"":1956}]",[],6,,,,,,,,,,,,,,
harvest,183,656288,0.0-60.0-1.0,"""event"",""trial"",""time""
""fullscreenenter"",""1"",""51695""
","
","
","""event"",""trial"",""time""
""fullscreenenter"",""1"",""51695""
","
",,null,run_exp/static/images/task_images/gems/27.jpg,null,,,,,,,21,,,6,,,,,27,0.782787869,0.777777778,,,,,,,
decision,184,656420,0.0-60.0-2.0,"""event"",""trial"",""time""
""fullscreenenter"",""1"",""51695""
","
","
","""event"",""trial"",""time""
""fullscreenenter"",""1"",""51695""
","
",,130.1000001,run_exp/static/images/task_images/land.jpg,65,,,,,,,21,,,6,,,,,,,,205837,1,6,FALSE,,,
dig,185,659293,0.0-61.0-0.0,"""event"",""trial"",""time""
""fullscreenenter"",""1"",""51695""
","
","
","""event"",""trial"",""time""
""fullscreenenter"",""1"",""51695""
","
",,,,,,,,,,,,"[{""stimulus"":""run_exp/static/images/task_images/dig.jpg"",""time"":0.20000004768371582},{""stimulus"":""run_exp/static/images/task_images/land.jpg"",""time"":960.7000000476837},{""stimulus"":""run_exp/static/images/task_images/dig.jpg"",""time"":1917.5}]",[],6,,,,,,,,,,,,,,
harvest,186,660299,0.0-61.0-1.0,"""event"",""trial"",""time""
""fullscreenenter"",""1"",""51695""
","
","
","""event"",""trial"",""time""
""fullscreenenter"",""1"",""51695""
","
",,null,run_exp/static/images/task_images/gems/21.jpg,null,,,,,,,17,,,6,,,,,21,0.828102876,0.80952381,,,,,,,
decision,187,660347,0.0-61.0-2.0,"""event"",""trial"",""time""
""fullscreenenter"",""1"",""51695""
","
","
","""event"",""trial"",""time""
""fullscreenenter"",""1"",""51695""
","
",,46.20000005,run_exp/static/images/task_images/land.jpg,65,,,,,,,17,,,6,,,,,,,,209764,1,7,FALSE,,,
dig,188,663305,0.0-62.0-0.0,"""event"",""trial"",""time""
""fullscreenenter"",""1"",""51695""
","
","
","""event"",""trial"",""time""
""fullscreenenter"",""1"",""51695""
","
",,,,,,,,,,,,"[{""stimulus"":""run_exp/static/images/task_images/dig.jpg"",""time"":0.20000004768371582},{""stimulus"":""run_exp/static/images/task_images/land.jpg"",""time"":992.7000000476837},{""stimulus"":""run_exp/static/images/task_images/dig.jpg"",""time"":1974.6000001430511}]",[],6,,,,,,,,,,,,,,
harvest,189,664313,0.0-62.0-1.0,"""event"",""trial"",""time""
""fullscreenenter"",""1"",""51695""
","
","
","""event"",""trial"",""time""
""fullscreenenter"",""1"",""51695""
","
",,null,run_exp/static/images/task_images/gems/17.jpg,null,,,,,,,14,,,6,,,,,17,0.820296045,0.823529412,,,,,,,
decision,190,664747,0.0-62.0-2.0,"""event"",""trial"",""time""
""fullscreenenter"",""1"",""51695""
","
","
","""event"",""trial"",""time""
""fullscreenenter"",""1"",""51695""
","
",,432.3,run_exp/static/images/task_images/land.jpg,65,,,,,,,14,,,6,,,,,,,,214164,1,8,FALSE,,,
dig,191,667319,0.0-63.0-0.0,"""event"",""trial"",""time""
""fullscreenenter"",""1"",""51695""
","
","
","""event"",""trial"",""time""
""fullscreenenter"",""1"",""51695""
","
",,,,,,,,,,,,"[{""stimulus"":""run_exp/static/images/task_images/dig.jpg"",""time"":0.20000004768371582},{""stimulus"":""run_exp/static/images/task_images/land.jpg"",""time"":855.8999998569489},{""stimulus"":""run_exp/static/images/task_images/dig.jpg"",""time"":1713.2999999523163}]",[],6,,,,,,,,,,,,,,
harvest,192,668323,0.0-63.0-1.0,"""event"",""trial"",""time""
""fullscreenenter"",""1"",""51695""
","
","
","""event"",""trial"",""time""
""fullscreenenter"",""1"",""51695""
","
",,null,run_exp/static/images/task_images/gems/14.jpg,null,,,,,,,11,,,6,,,,,14,0.820267009,0.785714286,,,,,,,
decision,193,668364,0.0-63.0-2.0,"""event"",""trial"",""time""
""fullscreenenter"",""1"",""51695""
","
","
","""event"",""trial"",""time""
""fullscreenenter"",""1"",""51695""
","
",,38.5,run_exp/static/images/task_images/land.jpg,65,,,,,,,11,,,6,,,,,,,,217781,1,9,FALSE,,,
dig,194,671335,0.0-64.0-0.0,"""event"",""trial"",""time""
""fullscreenenter"",""1"",""51695""
","
","
","""event"",""trial"",""time""
""fullscreenenter"",""1"",""51695""
","
",,,,,,,,,,,,"[{""stimulus"":""run_exp/static/images/task_images/dig.jpg"",""time"":0.2999999523162842},{""stimulus"":""run_exp/static/images/task_images/land.jpg"",""time"":990.9000000953674},{""stimulus"":""run_exp/static/images/task_images/dig.jpg"",""time"":1980.9000000953674}]",[],6,,,,,,,,,,,,,,
harvest,195,672340,0.0-64.0-1.0,"""event"",""trial"",""time""
""fullscreenenter"",""1"",""51695""
","
","
","""event"",""trial"",""time""
""fullscreenenter"",""1"",""51695""
","
",,null,run_exp/static/images/task_images/gems/11.jpg,null,,,,,,,9,,,6,,,,,11,0.813711921,0.818181818,,,,,,,
decision,196,672972,0.0-64.0-2.0,"""event"",""trial"",""time""
""fullscreenenter"",""1"",""51695""
","
","
","""event"",""trial"",""time""
""fullscreenenter"",""1"",""51695""
","
",,629.6000001,run_exp/static/images/task_images/land.jpg,65,,,,,,,9,,,6,,,,,,,,222389,1,10,FALSE,,,
dig,197,675352,0.0-65.0-0.0,"""event"",""trial"",""time""
""fullscreenenter"",""1"",""51695""
","
","
","""event"",""trial"",""time""
""fullscreenenter"",""1"",""51695""
","
",,,,,,,,,,,,"[{""stimulus"":""run_exp/static/images/task_images/dig.jpg"",""time"":0.20000004768371582},{""stimulus"":""run_exp/static/images/task_images/land.jpg"",""time"":798.7999999523163},{""stimulus"":""run_exp/static/images/task_images/dig.jpg"",""time"":1582}]",[],6,,,,,,,,,,,,,,
harvest,198,676358,0.0-65.0-1.0,"""event"",""trial"",""time""
""fullscreenenter"",""1"",""51695""
","
","
","""event"",""trial"",""time""
""fullscreenenter"",""1"",""51695""
","
",,null,run_exp/static/images/task_images/gems/9.jpg,null,,,,,,,7,,,6,,,,,9,0.808916844,0.777777778,,,,,,,
decision,199,676508,0.0-65.0-2.0,"""event"",""trial"",""time""
""fullscreenenter"",""1"",""51695""
","
","
","""event"",""trial"",""time""
""fullscreenenter"",""1"",""51695""
","
",,147.3000002,run_exp/static/images/task_images/land.jpg,65,,,,,,,7,,,6,,,,,,,,225925,1,11,FALSE,,,
dig,200,679366,0.0-66.0-0.0,"""event"",""trial"",""time""
""fullscreenenter"",""1"",""51695""
","
","
","""event"",""trial"",""time""
""fullscreenenter"",""1"",""51695""
","
",,,,,,,,,,,,"[{""stimulus"":""run_exp/static/images/task_images/dig.jpg"",""time"":0.20000004768371582},{""stimulus"":""run_exp/static/images/task_images/land.jpg"",""time"":956.5999999046326},{""stimulus"":""run_exp/static/images/task_images/dig.jpg"",""time"":1903.8999998569489}]",[],6,,,,,,,,,,,,,,
harvest,201,680369,0.0-66.0-1.0,"""event"",""trial"",""time""
""fullscreenenter"",""1"",""51695""
","
","
","""event"",""trial"",""time""
""fullscreenenter"",""1"",""51695""
","
",,null,run_exp/static/images/task_images/gems/7.jpg,null,,,,,,,5,,,6,,,,,7,0.755765212,0.714285714,,,,,,,
decision,202,680788,0.0-66.0-2.0,"""event"",""trial"",""time""
""fullscreenenter"",""1"",""51695""
","
","
","""event"",""trial"",""time""
""fullscreenenter"",""1"",""51695""
","
",,417.5999999,run_exp/static/images/task_images/land.jpg,65,,,,,,,5,,,6,,,,,,,,230205,1,12,FALSE,,,
dig,203,683379,0.0-67.0-0.0,"""event"",""trial"",""time""
""fullscreenenter"",""1"",""51695""
","
","
","""event"",""trial"",""time""
""fullscreenenter"",""1"",""51695""
","
",,,,,,,,,,,,"[{""stimulus"":""run_exp/static/images/task_images/dig.jpg"",""time"":0.3000001907348633},{""stimulus"":""run_exp/static/images/task_images/land.jpg"",""time"":861.8000001907349},{""stimulus"":""run_exp/static/images/task_images/dig.jpg"",""time"":1725.4000000953674}]",[],6,,,,,,,,,,,,,,
harvest,204,684389,0.0-67.0-1.0,"""event"",""trial"",""time""
""fullscreenenter"",""1"",""51695""
","
","
","""event"",""trial"",""time""
""fullscreenenter"",""1"",""51695""
","
",,null,run_exp/static/images/task_images/gems/5.jpg,null,,,,,,,4,,,6,,,,,5,0.82519209,0.8,,,,,,,
decision,205,685108,0.0-67.0-2.0,"""event"",""trial"",""time""
""fullscreenenter"",""1"",""51695""
","
","
","""event"",""trial"",""time""
""fullscreenenter"",""1"",""51695""
","
",,717.3,run_exp/static/images/task_images/land.jpg,65,,,,,,,4,,,6,,,,,,,,234525,1,13,FALSE,,,
dig,206,687398,0.0-68.0-0.0,"""event"",""trial"",""time""
""fullscreenenter"",""1"",""51695""
","
","
","""event"",""trial"",""time""
""fullscreenenter"",""1"",""51695""
","
",,,,,,,,,,,,"[{""stimulus"":""run_exp/static/images/task_images/dig.jpg"",""time"":0.20000004768371582},{""stimulus"":""run_exp/static/images/task_images/land.jpg"",""time"":765.7999999523163},{""stimulus"":""run_exp/static/images/task_images/dig.jpg"",""time"":1526.0999999046326}]",[],6,,,,,,,,,,,,,,
harvest,207,688407,0.0-68.0-1.0,"""event"",""trial"",""time""
""fullscreenenter"",""1"",""51695""
","
","
","""event"",""trial"",""time""
""fullscreenenter"",""1"",""51695""
","
",,null,run_exp/static/images/task_images/gems/4.jpg,null,,,,,,,3,,,6,,,,,4,0.768950112,0.75,,,,,,,
decision,208,689012,0.0-68.0-2.0,"""event"",""trial"",""time""
""fullscreenenter"",""1"",""51695""
","
","
","""event"",""trial"",""time""
""fullscreenenter"",""1"",""51695""
","
",,604.1000001,run_exp/static/images/task_images/land.jpg,65,,,,,,,3,,,6,,,,,,,,238429,1,14,FALSE,,,
dig,209,691415,0.0-69.0-0.0,"""event"",""trial"",""time""
""fullscreenenter"",""1"",""51695""
","
","
","""event"",""trial"",""time""
""fullscreenenter"",""1"",""51695""
","
",,,,,,,,,,,,"[{""stimulus"":""run_exp/static/images/task_images/dig.jpg"",""time"":0.20000004768371582},{""stimulus"":""run_exp/static/images/task_images/land.jpg"",""time"":803.9000000953674},{""stimulus"":""run_exp/static/images/task_images/dig.jpg"",""time"":1598}]",[],6,,,,,,,,,,,,,,
harvest,210,692424,0.0-69.0-1.0,"""event"",""trial"",""time""
""fullscreenenter"",""1"",""51695""
","
","
","""event"",""trial"",""time""
""fullscreenenter"",""1"",""51695""
","
",,null,run_exp/static/images/task_images/gems/3.jpg,null,,,,,,,3,,,6,,,,,3,0.872080726,1,,,,,,,
decision,211,692484,0.0-69.0-2.0,"""event"",""trial"",""time""
""fullscreenenter"",""1"",""51695""
","
","
","""event"",""trial"",""time""
""fullscreenenter"",""1"",""51695""
","
",,59.0999999,run_exp/static/images/task_images/land.jpg,76,,,,,,,3,,,6,,,,,,,,241902,1,15,TRUE,,,
travel,212,702428,0.0-70.0-0.0,"""event"",""trial"",""time""
""fullscreenenter"",""1"",""51695""
","
","
","""event"",""trial"",""time""
""fullscreenenter"",""1"",""51695""
","
",,,,,,,,,,,,"[{""stimulus"":""run_exp/static/images/task_images/rocket-01.jpg"",""time"":0.20000004768371582},{""stimulus"":""run_exp/static/images/task_images/rocket-02.jpg"",""time"":1110.9000000953674},{""stimulus"":""run_exp/static/images/task_images/rocket-03.jpg"",""time"":2214.0999999046326},{""stimulus"":""run_exp/static/images/task_images/rocket-04.jpg"",""time"":3320.5999999046326},{""stimulus"":""run_exp/static/images/task_images/rocket-05.jpg"",""time"":4420.700000047684},{""stimulus"":""run_exp/static/images/task_images/rocket-06.jpg"",""time"":5522.299999952316},{""stimulus"":""run_exp/static/images/task_images/rocket-07.jpg"",""time"":6630.900000095367},{""stimulus"":""run_exp/static/images/task_images/rocket-08.jpg"",""time"":7742.5},{""stimulus"":""run_exp/static/images/task_images/rocket-09.jpg"",""time"":8839.599999904633}]",[],6,,,,,,,,,,,,,,
alien_welcome,213,707435,0.0-70.0-1.0,"""event"",""trial"",""time""
""fullscreenenter"",""1"",""51695""
","
","
","""event"",""trial"",""time""
""fullscreenenter"",""1"",""51695""
","
",,null,run_exp/static/images/task_images/aliens/old_aliens/planet/alien_planet-60.jpg,null,,,,,,,,,,,,,60,"14,8,24,64,77,74,60,43,66,61,76,45,11,28,17,10,70,47,78,53,7,62,32,50,20,40,73,39,42,31,71,49,80",,,,,,,,,,
land,214,707937,0.0-70.0-2.0,"""event"",""trial"",""time""
""fullscreenenter"",""1"",""51695""
","
","
","""event"",""trial"",""time""
""fullscreenenter"",""1"",""51695""
","
",,null,run_exp/static/images/task_images/land.jpg,null,,,,,,,107,,,7,,,,,,,,,,,,,,
dig,215,709948,0.0-70.0-3.0,"""event"",""trial"",""time""
""fullscreenenter"",""1"",""51695""
","
","
","""event"",""trial"",""time""
""fullscreenenter"",""1"",""51695""
","
",,,,,,,,,,,,"[{""stimulus"":""run_exp/static/images/task_images/dig.jpg"",""time"":0.40000009536743164},{""stimulus"":""run_exp/static/images/task_images/land.jpg"",""time"":672.7000000476837},{""stimulus"":""run_exp/static/images/task_images/dig.jpg"",""time"":1337}]",[],7,,,,,,,,,,,,,,
harvest,216,710958,0.0-70.0-4.0,"""event"",""trial"",""time""
""fullscreenenter"",""1"",""51695""
","
","
","""event"",""trial"",""time""
""fullscreenenter"",""1"",""51695""
","
",,null,run_exp/static/images/task_images/gems/107.jpg,null,,,,,,,82,,,7,,,,,107,0.767787594,0.76635514,,,,,,,
decision,217,711422,0.0-70.0-5.0,"""event"",""trial"",""time""
""fullscreenenter"",""1"",""51695""
","
","
","""event"",""trial"",""time""
""fullscreenenter"",""1"",""51695""
","
",,462.2,run_exp/static/images/task_images/land.jpg,65,,,,,,,82,,,7,,,,,,,,260839,1,0,FALSE,,,
dig,218,713964,0.0-71.0-0.0,"""event"",""trial"",""time""
""fullscreenenter"",""1"",""51695""
","
","
","""event"",""trial"",""time""
""fullscreenenter"",""1"",""51695""
","
",,,,,,,,,,,,"[{""stimulus"":""run_exp/static/images/task_images/dig.jpg"",""time"":0.2999999523162842},{""stimulus"":""run_exp/static/images/task_images/land.jpg"",""time"":853.5999999046326},{""stimulus"":""run_exp/static/images/task_images/dig.jpg"",""time"":1704}]",[],7,,,,,,,,,,,,,,
harvest,219,714981,0.0-71.0-1.0,"""event"",""trial"",""time""
""fullscreenenter"",""1"",""51695""
","
","
","""event"",""trial"",""time""
""fullscreenenter"",""1"",""51695""
","
",,null,run_exp/static/images/task_images/gems/82.jpg,null,,,,,,,63,,,7,,,,,82,0.769801749,0.768292683,,,,,,,
decision,220,715028,0.0-71.0-2.0,"""event"",""trial"",""time""
""fullscreenenter"",""1"",""51695""
","
","
","""event"",""trial"",""time""
""fullscreenenter"",""1"",""51695""
","
",,45.70000005,run_exp/static/images/task_images/land.jpg,65,,,,,,,63,,,7,,,,,,,,264445,1,1,FALSE,,,
dig,221,717993,0.0-72.0-0.0,"""event"",""trial"",""time""
""fullscreenenter"",""1"",""51695""
","
","
","""event"",""trial"",""time""
""fullscreenenter"",""1"",""51695""
","
",,,,,,,,,,,,"[{""stimulus"":""run_exp/static/images/task_images/dig.jpg"",""time"":0.39999985694885254},{""stimulus"":""run_exp/static/images/task_images/land.jpg"",""time"":994.3999998569489},{""stimulus"":""run_exp/static/images/task_images/dig.jpg"",""time"":1978.1999998092651}]",[],7,,,,,,,,,,,,,,
harvest,222,718999,0.0-72.0-1.0,"""event"",""trial"",""time""
""fullscreenenter"",""1"",""51695""
","
","
","""event"",""trial"",""time""
""fullscreenenter"",""1"",""51695""
","
",,null,run_exp/static/images/task_images/gems/63.jpg,null,,,,,,,55,,,7,,,,,63,0.877001835,0.873015873,,,,,,,
decision,223,719012,0.0-72.0-2.0,"""event"",""trial"",""time""
""fullscreenenter"",""1"",""51695""
","
","
","""event"",""trial"",""time""
""fullscreenenter"",""1"",""51695""
","
",,12,run_exp/static/images/task_images/land.jpg,65,,,,,,,55,,,7,,,,,,,,268429,1,2,FALSE,,,
dig,224,722016,0.0-73.0-0.0,"""event"",""trial"",""time""
""fullscreenenter"",""1"",""51695""
","
","
","""event"",""trial"",""time""
""fullscreenenter"",""1"",""51695""
","
",,,,,,,,,,,,"[{""stimulus"":""run_exp/static/images/task_images/dig.jpg"",""time"":0.2999999523162842},{""stimulus"":""run_exp/static/images/task_images/land.jpg"",""time"":1003.5},{""stimulus"":""run_exp/static/images/task_images/dig.jpg"",""time"":1996.0999999046326}]",[],7,,,,,,,,,,,,,,
harvest,225,723020,0.0-73.0-1.0,"""event"",""trial"",""time""
""fullscreenenter"",""1"",""51695""
","
","
","""event"",""trial"",""time""
""fullscreenenter"",""1"",""51695""
","
",,null,run_exp/static/images/task_images/gems/55.jpg,null,,,,,,,44,,,7,,,,,55,0.80741551,0.8,,,,,,,
decision,226,723192,0.0-73.0-2.0,"""event"",""trial"",""time""
""fullscreenenter"",""1"",""51695""
","
","
","""event"",""trial"",""time""
""fullscreenenter"",""1"",""51695""
","
",,170.3000002,run_exp/static/images/task_images/land.jpg,65,,,,,,,44,,,7,,,,,,,,272609,1,3,FALSE,,,
dig,227,726035,0.0-74.0-0.0,"""event"",""trial"",""time""
""fullscreenenter"",""1"",""51695""
","
","
","""event"",""trial"",""time""
""fullscreenenter"",""1"",""51695""
","
",,,,,,,,,,,,"[{""stimulus"":""run_exp/static/images/task_images/dig.jpg"",""time"":0.2999999523162842},{""stimulus"":""run_exp/static/images/task_images/land.jpg"",""time"":945.8999998569489},{""stimulus"":""run_exp/static/images/task_images/dig.jpg"",""time"":1889}]",[],7,,,,,,,,,,,,,,
harvest,228,727041,0.0-74.0-1.0,"""event"",""trial"",""time""
""fullscreenenter"",""1"",""51695""
","
","
","""event"",""trial"",""time""
""fullscreenenter"",""1"",""51695""
","
",,null,run_exp/static/images/task_images/gems/44.jpg,null,,,,,,,38,,,7,,,,,44,0.855249328,0.863636364,,,,,,,
decision,229,727932,0.0-74.0-2.0,"""event"",""trial"",""time""
""fullscreenenter"",""1"",""51695""
","
","
","""event"",""trial"",""time""
""fullscreenenter"",""1"",""51695""
","
",,889.9000001,run_exp/static/images/task_images/land.jpg,65,,,,,,,38,,,7,,,,,,,,277349,1,4,FALSE,,,
dig,230,730049,0.0-75.0-0.0,"""event"",""trial"",""time""
""fullscreenenter"",""1"",""51695""
","
","
","""event"",""trial"",""time""
""fullscreenenter"",""1"",""51695""
","
",,,,,,,,,,,,"[{""stimulus"":""run_exp/static/images/task_images/dig.jpg"",""time"":0.20000004768371582},{""stimulus"":""run_exp/static/images/task_images/land.jpg"",""time"":705.7000000476837},{""stimulus"":""run_exp/static/images/task_images/dig.jpg"",""time"":1413}]",[],7,,,,,,,,,,,,,,
harvest,231,731056,0.0-75.0-1.0,"""event"",""trial"",""time""
""fullscreenenter"",""1"",""51695""
","
","
","""event"",""trial"",""time""
""fullscreenenter"",""1"",""51695""
","
",,null,run_exp/static/images/task_images/gems/38.jpg,null,,,,,,,33,,,7,,,,,38,0.876293553,0.868421053,,,,,,,
decision,232,731404,0.0-75.0-2.0,"""event"",""trial"",""time""
""fullscreenenter"",""1"",""51695""
","
","
","""event"",""trial"",""time""
""fullscreenenter"",""1"",""51695""
","
",,346.4000001,run_exp/static/images/task_images/land.jpg,65,,,,,,,33,,,7,,,,,,,,280822,1,5,FALSE,,,
dig,233,734066,0.0-76.0-0.0,"""event"",""trial"",""time""
""fullscreenenter"",""1"",""51695""
","
","
","""event"",""trial"",""time""
""fullscreenenter"",""1"",""51695""
","
",,,,,,,,,,,,"[{""stimulus"":""run_exp/static/images/task_images/dig.jpg"",""time"":0.19999980926513672},{""stimulus"":""run_exp/static/images/task_images/land.jpg"",""time"":890.1999998092651},{""stimulus"":""run_exp/static/images/task_images/dig.jpg"",""time"":1774.6999998092651}]",[],7,,,,,,,,,,,,,,
harvest,234,735071,0.0-76.0-1.0,"""event"",""trial"",""time""
""fullscreenenter"",""1"",""51695""
","
","
","""event"",""trial"",""time""
""fullscreenenter"",""1"",""51695""
","
",,null,run_exp/static/images/task_images/gems/33.jpg,null,,,,,,,28,,,7,,,,,33,0.848051382,0.848484848,,,,,,,
decision,235,735524,0.0-76.0-2.0,"""event"",""trial"",""time""
""fullscreenenter"",""1"",""51695""
","
","
","""event"",""trial"",""time""
""fullscreenenter"",""1"",""51695""
","
",,451.2,run_exp/static/images/task_images/land.jpg,65,,,,,,,28,,,7,,,,,,,,284941,1,6,FALSE,,,
dig,236,738084,0.0-77.0-0.0,"""event"",""trial"",""time""
""fullscreenenter"",""1"",""51695""
","
","
","""event"",""trial"",""time""
""fullscreenenter"",""1"",""51695""
","
",,,,,,,,,,,,"[{""stimulus"":""run_exp/static/images/task_images/dig.jpg"",""time"":0.20000004768371582},{""stimulus"":""run_exp/static/images/task_images/land.jpg"",""time"":851},{""stimulus"":""run_exp/static/images/task_images/dig.jpg"",""time"":1706}]",[],7,,,,,,,,,,,,,,
harvest,237,739096,0.0-77.0-1.0,"""event"",""trial"",""time""
""fullscreenenter"",""1"",""51695""
","
","
","""event"",""trial"",""time""
""fullscreenenter"",""1"",""51695""
","
",,null,run_exp/static/images/task_images/gems/28.jpg,null,,,,,,,22,,,7,,,,,28,0.794708627,0.785714286,,,,,,,
decision,238,739124,0.0-77.0-2.0,"""event"",""trial"",""time""
""fullscreenenter"",""1"",""51695""
","
","
","""event"",""trial"",""time""
""fullscreenenter"",""1"",""51695""
","
",,27,run_exp/static/images/task_images/land.jpg,65,,,,,,,22,,,7,,,,,,,,288541,1,7,FALSE,,,
dig,239,742108,0.0-78.0-0.0,"""event"",""trial"",""time""
""fullscreenenter"",""1"",""51695""
","
","
","""event"",""trial"",""time""
""fullscreenenter"",""1"",""51695""
","
",,,,,,,,,,,,"[{""stimulus"":""run_exp/static/images/task_images/dig.jpg"",""time"":0.20000004768371582},{""stimulus"":""run_exp/static/images/task_images/land.jpg"",""time"":992.7000000476837},{""stimulus"":""run_exp/static/images/task_images/dig.jpg"",""time"":1990.9000000953674}]",[],7,,,,,,,,,,,,,,
harvest,240,743116,0.0-78.0-1.0,"""event"",""trial"",""time""
""fullscreenenter"",""1"",""51695""
","
","
","""event"",""trial"",""time""
""fullscreenenter"",""1"",""51695""
","
",,null,run_exp/static/images/task_images/gems/22.jpg,null,,,,,,,18,,,7,,,,,22,0.825183143,0.818181818,,,,,,,
decision,241,743699,0.0-78.0-2.0,"""event"",""trial"",""time""
""fullscreenenter"",""1"",""51695""
","
","
","""event"",""trial"",""time""
""fullscreenenter"",""1"",""51695""
","
",,581,run_exp/static/images/task_images/land.jpg,65,,,,,,,18,,,7,,,,,,,,293116,1,8,FALSE,,,
dig,242,746131,0.0-79.0-0.0,"""event"",""trial"",""time""
""fullscreenenter"",""1"",""51695""
","
","
","""event"",""trial"",""time""
""fullscreenenter"",""1"",""51695""
","
",,,,,,,,,,,,"[{""stimulus"":""run_exp/static/images/task_images/dig.jpg"",""time"":0.40000009536743164},{""stimulus"":""run_exp/static/images/task_images/land.jpg"",""time"":819.0999999046326},{""stimulus"":""run_exp/static/images/task_images/dig.jpg"",""time"":1621}]",[],7,,,,,,,,,,,,,,
harvest,243,747135,0.0-79.0-1.0,"""event"",""trial"",""time""
""fullscreenenter"",""1"",""51695""
","
","
","""event"",""trial"",""time""
""fullscreenenter"",""1"",""51695""
","
",,null,run_exp/static/images/task_images/gems/18.jpg,null,,,,,,,15,,,7,,,,,18,0.824713525,0.833333333,,,,,,,
decision,244,747651,0.0-79.0-2.0,"""event"",""trial"",""time""
""fullscreenenter"",""1"",""51695""
","
","
","""event"",""trial"",""time""
""fullscreenenter"",""1"",""51695""
","
",,513.8999999,run_exp/static/images/task_images/land.jpg,65,,,,,,,15,,,7,,,,,,,,297068,1,9,FALSE,,,
dig,245,750144,0.0-80.0-0.0,"""event"",""trial"",""time""
""fullscreenenter"",""1"",""51695""
","
","
","""event"",""trial"",""time""
""fullscreenenter"",""1"",""51695""
","
",,,,,,,,,,,,"[{""stimulus"":""run_exp/static/images/task_images/dig.jpg"",""time"":0.20000004768371582},{""stimulus"":""run_exp/static/images/task_images/land.jpg"",""time"":832.7000000476837},{""stimulus"":""run_exp/static/images/task_images/dig.jpg"",""time"":1664.3999998569489}]",[],7,,,,,,,,,,,,,,
harvest,246,751160,0.0-80.0-1.0,"""event"",""trial"",""time""
""fullscreenenter"",""1"",""51695""
","
","
","""event"",""trial"",""time""
""fullscreenenter"",""1"",""51695""
","
",,null,run_exp/static/images/task_images/gems/15.jpg,null,,,,,,,12,,,7,,,,,15,0.770464348,0.8,,,,,,,
decision,247,751395,0.0-80.0-2.0,"""event"",""trial"",""time""
""fullscreenenter"",""1"",""51695""
","
","
","""event"",""trial"",""time""
""fullscreenenter"",""1"",""51695""
","
",,233.5,run_exp/static/images/task_images/land.jpg,65,,,,,,,12,,,7,,,,,,,,300813,1,10,TRUE,,,
end_of_block_continue,248,760286,0.0-81.0-0.0,"""event"",""trial"",""time""
""fullscreenenter"",""1"",""51695""
","
","
","""event"",""trial"",""time""
""fullscreenenter"",""1"",""51695""
","
",,null,run_exp/static/audio/clip_32_block_end.m4a,,,,,,,null,,,,,,,,,,,,,,,,,,
alien_welcome,249,765303,0.0-82.0-0.0,"""event"",""trial"",""time""
""fullscreenenter"",""1"",""51695""
","
","
","""event"",""trial"",""time""
""fullscreenenter"",""1"",""51695""
","
",,null,run_exp/static/images/task_images/aliens/old_aliens/planet/alien_planet-43.jpg,null,,,,,,,,,,,,,43,"14,8,24,64,77,74,60,43,66,61,76,45,11,28,17,10,70,47,78,53,7,62,32,50,20,40,73,39,42,31,71,49,80",,,,,,,,,,
land,250,765809,0.0-82.0-1.0,"""event"",""trial"",""time""
""fullscreenenter"",""1"",""51695""
","
","
","""event"",""trial"",""time""
""fullscreenenter"",""1"",""51695""
","
",,null,run_exp/static/images/task_images/land.jpg,null,,,,,,,105,,,8,,,,,,,,,,,,,,
dig,251,767818,0.0-82.0-2.0,"""event"",""trial"",""time""
""fullscreenenter"",""1"",""51695""
","
","
","""event"",""trial"",""time""
""fullscreenenter"",""1"",""51695""
","
",,,,,,,,,,,,"[{""stimulus"":""run_exp/static/images/task_images/dig.jpg"",""time"":0.3000001907348633},{""stimulus"":""run_exp/static/images/task_images/land.jpg"",""time"":675},{""stimulus"":""run_exp/static/images/task_images/dig.jpg"",""time"":1342.1000001430511}]",[],8,,,,,,,,,,,,,,
harvest,252,768823,0.0-82.0-3.0,"""event"",""trial"",""time""
""fullscreenenter"",""1"",""51695""
","
","
","""event"",""trial"",""time""
""fullscreenenter"",""1"",""51695""
","
",,null,run_exp/static/images/task_images/gems/105.jpg,null,,,,,,,14,,,8,,,,,105,0.132213851,0.133333333,,,,,,,
decision,253,769292,0.0-82.0-4.0,"""event"",""trial"",""time""
""fullscreenenter"",""1"",""51695""
","
","
","""event"",""trial"",""time""
""fullscreenenter"",""1"",""51695""
","
",,466.6000001,run_exp/static/images/task_images/land.jpg,65,,,,,,,14,,,8,,,,,,,,8999,2,0,FALSE,,,
dig,254,771834,0.0-83.0-0.0,"""event"",""trial"",""time""
""fullscreenenter"",""1"",""51695""
","
","
","""event"",""trial"",""time""
""fullscreenenter"",""1"",""51695""
","
",,,,,,,,,,,,"[{""stimulus"":""run_exp/static/images/task_images/dig.jpg"",""time"":0.2999999523162842},{""stimulus"":""run_exp/static/images/task_images/land.jpg"",""time"":847.5999999046326},{""stimulus"":""run_exp/static/images/task_images/dig.jpg"",""time"":1691.2000000476837}]",[],8,,,,,,,,,,,,,,
