trial_type,trial_index,time_elapsed,internal_node_id,success,rt,stimulus,key_press,prompt,subject_id,age,gender,button_pressed,next_reward,animation_sequence,responses,planet,curr_prac_trial,n_prac_rounds,alien,aliens,reward_received,decay_rate_actual,decay_rate_exp,time_in_block,block_num,prt,last_trial_on_planet,button_html,bonus,num_failures
pavlovia,0,2,0.0-0.0,,,,,,,,,,,,,,,,,,,,,,,,,,,
fullscreen,1,3828,0.0-1.0,TRUE,,,,,,,,,,,,,,,,,,,,,,,,,,
instruc_welcome,2,13547,0.0-2.0,,null,run_exp/static/audio/clip_1_welcome.m4a,null,"<p>Howdy! In this experiment, you’ll be an explorer traveling through space to collect space treasure.</p><p>Your mission is to collect as much treasure as possible.</p><br><br><p><img src='run_exp/static/images/task_images/opening_img-01.jpg' height='300' width='auto'></p>",QFth44Y2vlatbHS_1Y3uCvx5VSxv8Zo_MLRP_5uPVUf6np3qL4uW,12.94,male,,,,,,,,,,,,,,,,,,,
audio-keyboard-response,3,30124,0.0-3.0,,null,run_exp/static/audio/clip_2_move.m4a,null,,,,,,,,,,,,,,,,,,,,,,,
welcome_dec,4,31100,0.0-4.0,,974.8000002,"<p>Howdy! In this experiment, you’ll be an explorer traveling through space to collect space treasure.</p><p>Your mission is to collect as much treasure as possible.</p><br><br><p><img src='run_exp/static/images/task_images/opening_img-01.jpg' height='300' width='auto'></p>",,,,,,1,,,,,,,,,,,,,,,,,,
html-keyboard-response,5,31819,0.0-5.0,,716.7,"<p>Howdy! In this experiment, you’ll be an explorer traveling through space to collect space treasure.</p><p>Your mission is to collect as much treasure as possible.</p><br><br><p><img src='run_exp/static/images/task_images/opening_img-01.jpg' height='300' width='auto'></p><button class=""jspsych-html-btn-unchosen""><img src=""run_exp/static/images/task_images/planet-01.jpg"" height=""50""></button><button class=""jspsych-html-btn-chosen""><img src=""run_exp/static/images/task_images/planet-02.jpg"" height=""50""></button><p><b>[press the space bar to lock in your answer]<b><br></p>",32,,,,,,,,,,,,,,,,,,,,,,,
instruc_goal,6,41886,0.0-6.0-0.0,,null,run_exp/static/audio/clip_3_goal.m4a,null,"<p> As a space explorer, you’ll visit different planets to dig for space treasure, these pink gems.</p> <p> The more treasure you dig up, the more bonus money you’ll win! </p><br><br><p><img src='run_exp/static/images/task_images/pink_gem.jpg' height='300' width='auto'></p>",,,,,,,,,,,,,,,,,,,,,,
instruc_goal,7,45590,0.0-6.0-1.0,,3702,"<p> As a space explorer, you’ll visit different planets to dig for space treasure, these pink gems.</p> <p> The more treasure you dig up, the more bonus money you’ll win! </p><br><br><p><img src='run_exp/static/images/task_images/pink_gem.jpg' height='300' width='auto'></p>",,,,,,1,,,,,,,,,,,,,,,,,,
html-keyboard-response,8,47035,0.0-6.0-2.0,,1442.8,"<p> As a space explorer, you’ll visit different planets to dig for space treasure, these pink gems.</p> <p> The more treasure you dig up, the more bonus money you’ll win! </p><br><br><p><img src='run_exp/static/images/task_images/pink_gem.jpg' height='300' width='auto'></p><button class=""jspsych-html-btn-unchosen""><img src=""run_exp/static/images/task_images/planet-01.jpg"" height=""50""></button><button class=""jspsych-html-btn-chosen""><img src=""run_exp/static/images/task_images/planet-02.jpg"" height=""50""></button><p><b>[press the space bar to lock in your answer]<b><br></p>",32,,,,,,,,,,,,,,,,,,,,,,,
instruc_dig,9,63026,0.0-7.0-0.0,,null,run_exp/static/audio/clip_4_dig.m4a,null,,,,,,100,,,,,,,,,,,,,,,,,
instruc_dig_try,10,63398,0.0-7.0-1.0,,369.8999999,"<p> When you’ve arrived at a new planet, you will dig once. </p> <p>Then, you get to decide if you want to stay on the planet and dig again or travel to a new planet and dig there.</p> <p> To stay and dig, press the letter <strong>‘A’</strong> on your keyboard. Try pressing it now! </p><p><img src='run_exp/static/images/task_images/land.jpg'  height='700' width='auto'></p>",65,"<p> When you’ve arrived at a new planet, you will dig once. </p> <p>Then, you get to decide if you want to stay on the planet and dig again or travel to a new planet and dig there.</p> <p> To stay and dig, press the letter <strong>‘A’</strong> on your keyboard. Try pressing it now! </p><p><img src='run_exp/static/images/task_images/land.jpg'  height='700' width='auto'></p>",,,,,100,,,,,,,,,,,,,,,,,
dig_prac,11,65409,0.0-7.0-2.0,,,,,,,,,,,"[{""stimulus"":""run_exp/static/images/task_images/dig.jpg"",""time"":0.20000004768371582},{""stimulus"":""run_exp/static/images/task_images/land.jpg"",""time"":681},{""stimulus"":""run_exp/static/images/task_images/dig.jpg"",""time"":1335.2999999523163}]",[],,,,,,,,,,,,,,,
instruc_travel,12,101646,0.0-7.0-3.0,,null,run_exp/static/audio/clip_5_travel.m4a,null,"<p>Every time you dig up gems, there are less gems on the planet, so the more you dig on a planet the fewer gems you’ll get with each dig.</p><p>When gems are running low, you may want to travel to a new planet. </p> <p>  Planets are very far apart in this galaxy, so it will take some time to travel between them. </p> <br><p>There are lots and lots of planets for you to visit, so you won’t be able to return to any planets you’ve seen before. </p><br><p>To leave this planet and travel to a new one, press the letter <strong>‘L’</strong> on your keyboard. Try pressing it now! </p><p><img src='run_exp/static/images/task_images/rocket-01.jpg'  height='600' width='auto'></p>",,,,,,,,,,,,,,,,,,,,,,
instruc_travel_try,13,103164,0.0-7.0-4.0,,1516,"<p>Every time you dig up gems, there are less gems on the planet, so the more you dig on a planet the fewer gems you’ll get with each dig.</p><p>When gems are running low, you may want to travel to a new planet. </p> <p>  Planets are very far apart in this galaxy, so it will take some time to travel between them. </p> <br><p>There are lots and lots of planets for you to visit, so you won’t be able to return to any planets you’ve seen before. </p><br><p>To leave this planet and travel to a new one, press the letter <strong>‘L’</strong> on your keyboard. Try pressing it now! </p><p><img src='run_exp/static/images/task_images/rocket-01.jpg'  height='600' width='auto'></p>",76,"<p>Every time you dig up gems, there are less gems on the planet, so the more you dig on a planet the fewer gems you’ll get with each dig.</p><p>When gems are running low, you may want to travel to a new planet. </p> <p>  Planets are very far apart in this galaxy, so it will take some time to travel between them. </p> <br><p>There are lots and lots of planets for you to visit, so you won’t be able to return to any planets you’ve seen before. </p><br><p>To leave this planet and travel to a new one, press the letter <strong>‘L’</strong> on your keyboard. Try pressing it now! </p><p><img src='run_exp/static/images/task_images/rocket-01.jpg'  height='600' width='auto'></p>",,,,,,,,,,,,,,,,,,,,,,
travel_prac,14,113165,0.0-7.0-5.0,,,,,,,,,,,"[{""stimulus"":""run_exp/static/images/task_images/rocket-01.jpg"",""time"":0},{""stimulus"":""run_exp/static/images/task_images/rocket-02.jpg"",""time"":1119.2999999523163},{""stimulus"":""run_exp/static/images/task_images/rocket-03.jpg"",""time"":2226},{""stimulus"":""run_exp/static/images/task_images/rocket-04.jpg"",""time"":3335.2999999523163},{""stimulus"":""run_exp/static/images/task_images/rocket-05.jpg"",""time"":4458.200000047684},{""stimulus"":""run_exp/static/images/task_images/rocket-06.jpg"",""time"":5565.899999856949},{""stimulus"":""run_exp/static/images/task_images/rocket-07.jpg"",""time"":6674.299999952316},{""stimulus"":""run_exp/static/images/task_images/rocket-08.jpg"",""time"":7779.399999856949},{""stimulus"":""run_exp/static/images/task_images/rocket-09.jpg"",""time"":8890.599999904633}]",[],0,,,,,,,,,,,,,,
instruc_alien_greet,15,140336,0.0-7.0-6.0,,null,run_exp/static/audio/clip_6_alien.m4a,null,"<p>When you arrive at a new planet, the alien who owns the treasure mine on that planet will greet you!</p><p>The better an alien takes care of their mine the easier it is to dig for gems. Some aliens take better care of their mine than others. So, you won’t get exactly the same amount of gems on each planet.</p><p>What the alien looks like does not tell you anything about how many gems there are on the planet.</p><br><p><img src=""run_exp/static/images/task_images/aliens/instructions_aliens/planet/alien_planet-1.jpg""  height=""600"" width=""auto""></p>",,,,,,,,,,,,,,,,,,,,,,
instruc_alien_greet,16,143857,0.0-7.0-7.0,,3518.7,"<p>When you arrive at a new planet, the alien who owns the treasure mine on that planet will greet you!</p><p>The better an alien takes care of their mine the easier it is to dig for gems. Some aliens take better care of their mine than others. So, you won’t get exactly the same amount of gems on each planet.</p><p>What the alien looks like does not tell you anything about how many gems there are on the planet.</p><br><p><img src=""run_exp/static/images/task_images/aliens/instructions_aliens/planet/alien_planet-1.jpg""  height=""600"" width=""auto""></p>",,,,,,1,,,,,,,,,,,,,,,,,,
html-keyboard-response,17,148027,0.0-7.0-8.0,,4169.2,"<p>When you arrive at a new planet, the alien who owns the treasure mine on that planet will greet you!</p><p>The better an alien takes care of their mine the easier it is to dig for gems. Some aliens take better care of their mine than others. So, you won’t get exactly the same amount of gems on each planet.</p><p>What the alien looks like does not tell you anything about how many gems there are on the planet.</p><br><p><img src=""run_exp/static/images/task_images/aliens/instructions_aliens/planet/alien_planet-1.jpg""  height=""600"" width=""auto""></p><button class=""jspsych-html-btn-unchosen""><img src=""run_exp/static/images/task_images/planet-01.jpg"" height=""50""></button><button class=""jspsych-html-btn-chosen""><img src=""run_exp/static/images/task_images/planet-02.jpg"" height=""50""></button><p><b>[press the space bar to lock in your answer]<b><br></p>",32,,,,,,,,,,,,,,,,,,,,,,,
time_out,18,159096,0.0-8.0-0.0,,null,run_exp/static/audio/clip_7_timeout.m4a,null,"<p>If you don't make your choice fast enough, you’ll have to wait a few seconds before you can make another one.</p><p>You can’t dig for more gems or travel to new planets. You just have to sit and wait.</p><br><p><img src='run_exp/static/images/task_images/time_out.jpg'  height='600' width='auto'></p>",,,,,,,,,,,,,,,,,,,,,,
time_out,19,163065,0.0-8.0-1.0,,3966.1,"<p>If you don't make your choice fast enough, you’ll have to wait a few seconds before you can make another one.</p><p>You can’t dig for more gems or travel to new planets. You just have to sit and wait.</p><br><p><img src='run_exp/static/images/task_images/time_out.jpg'  height='600' width='auto'></p>",,,,,,1,,,,,,,,,,,,,,,,,,
html-keyboard-response,20,163685,0.0-8.0-2.0,,619.6999998,"<p>If you don't make your choice fast enough, you’ll have to wait a few seconds before you can make another one.</p><p>You can’t dig for more gems or travel to new planets. You just have to sit and wait.</p><br><p><img src='run_exp/static/images/task_images/time_out.jpg'  height='600' width='auto'></p><button class=""jspsych-html-btn-unchosen""><img src=""run_exp/static/images/task_images/planet-01.jpg"" height=""50""></button><button class=""jspsych-html-btn-chosen""><img src=""run_exp/static/images/task_images/planet-02.jpg"" height=""50""></button><p><b>[press the space bar to lock in your answer]<b><br></p>",32,,,,,,,,,,,,,,,,,,,,,,,
instruc_break,21,179336,0.0-9.0-0.0,,null,run_exp/static/audio/clip_8_break.m4a,null,"<p> After digging and traveling for a while, you’ll be able to take a break at home base. </p><p>The game will last 20 minutes no matter what.</p><p>You will visit home base every 5 minutes, so, you will visit home base three times during the game.</p><br><p><img src='run_exp/static/images/task_images/home_base.jpg' height='600' width='auto'></p>",,,,,,,,,,,,,,,,,,,,,,
instruc_break,22,181706,0.0-9.0-1.0,,2368.5,"<p> After digging and traveling for a while, you’ll be able to take a break at home base. </p><p>The game will last 20 minutes no matter what.</p><p>You will visit home base every 5 minutes, so, you will visit home base three times during the game.</p><br><p><img src='run_exp/static/images/task_images/home_base.jpg' height='600' width='auto'></p>",,,,,,1,,,,,,,,,,,,,,,,,,
html-keyboard-response,23,182472,0.0-9.0-2.0,,765.3,"<p> After digging and traveling for a while, you’ll be able to take a break at home base. </p><p>The game will last 20 minutes no matter what.</p><p>You will visit home base every 5 minutes, so, you will visit home base three times during the game.</p><br><p><img src='run_exp/static/images/task_images/home_base.jpg' height='600' width='auto'></p><button class=""jspsych-html-btn-unchosen""><img src=""run_exp/static/images/task_images/planet-01.jpg"" height=""50""></button><button class=""jspsych-html-btn-chosen""><img src=""run_exp/static/images/task_images/planet-02.jpg"" height=""50""></button><p><b>[press the space bar to lock in your answer]<b><br></p>",32,,,,,,,,,,,,,,,,,,,,,,,
instruc_prac_game,24,192596,0.0-10.0-0.0,,null,run_exp/static/audio/clip_9_practice.m4a,null,"<p> Are you ready to play a practice game? </p> <p>In this practice game, you'll be digging up barrels of gems. But, in the real game, you'll be digging up the gems themselves. </p>",,,,,,,,,,,,,,,,,,,,,,
html-button-response,25,194419,0.0-10.0-1.0,,1821.4,"<p> Are you ready to play a practice game? </p> <p>In this practice game, you'll be digging up barrels of gems. But, in the real game, you'll be digging up the gems themselves. </p>",,,,,,0,,,,,,,,,,,,,,,,,,
alien_welcome_prac,26,199421,0.0-11.0-0.0,,null,run_exp/static/images/task_images/aliens/practice_aliens/planet/alien_planet-5.jpg,null,,,,,,,,,,,,,,,,,,,,,,,
land_prac,27,199923,0.0-11.0-1.0,,null,run_exp/static/images/task_images/land.jpg,null,,,,,,101,,,0,,,,,,,,,,,,,,
dig_prac,28,201937,0.0-11.0-2.0,,,,,,,,,,,"[{""stimulus"":""run_exp/static/images/task_images/dig.jpg"",""time"":0.10000014305114746},{""stimulus"":""run_exp/static/images/task_images/land.jpg"",""time"":670},{""stimulus"":""run_exp/static/images/task_images/dig.jpg"",""time"":1340.6000001430511}]",[],,,,,,,,,,,,,,,
harvest_prac,29,202941,0.0-11.0-3.0,,null,run_exp/static/images/task_images/barrel_text.jpg,null,,,,,,,,,,,,,,,,,,,,,,,
decision_prac,30,203658,0.0-11.0-4.0,,715,run_exp/static/images/task_images/land.jpg,65,,,,,,,,,,1,,,,,,,,,,,,,
dig_prac,31,205672,0.0-12.0-0.0,,,,,,,,,,,"[{""stimulus"":""run_exp/static/images/task_images/dig.jpg"",""time"":0},{""stimulus"":""run_exp/static/images/task_images/land.jpg"",""time"":673.1000001430511},{""stimulus"":""run_exp/static/images/task_images/dig.jpg"",""time"":1344.2000000476837}]",[],,,,,,,,,,,,,,,
harvest_prac,32,206688,0.0-12.0-1.0,,null,run_exp/static/images/task_images/barrel_text.jpg,null,,,,,,,,,,,,,,,,,,,,,,,
decision_prac,33,208102,0.0-12.0-2.0,,1412.9,run_exp/static/images/task_images/land.jpg,65,,,,,,,,,,2,,,,,,,,,,,,,
dig_prac,34,210119,0.0-13.0-0.0,,,,,,,,,,,"[{""stimulus"":""run_exp/static/images/task_images/dig.jpg"",""time"":0.10000014305114746},{""stimulus"":""run_exp/static/images/task_images/land.jpg"",""time"":674.7999999523163},{""stimulus"":""run_exp/static/images/task_images/dig.jpg"",""time"":1345.2000000476837}]",[],,,,,,,,,,,,,,,
harvest_prac,35,211130,0.0-13.0-1.0,,null,run_exp/static/images/task_images/barrel_text.jpg,null,,,,,,,,,,,,,,,,,,,,,,,
decision_prac,36,211897,0.0-13.0-2.0,,765.8999999,run_exp/static/images/task_images/land.jpg,65,,,,,,,,,,3,,,,,,,,,,,,,
dig_prac,37,213904,0.0-14.0-0.0,,,,,,,,,,,"[{""stimulus"":""run_exp/static/images/task_images/dig.jpg"",""time"":0},{""stimulus"":""run_exp/static/images/task_images/land.jpg"",""time"":680.8999998569489},{""stimulus"":""run_exp/static/images/task_images/dig.jpg"",""time"":1336.8999998569489}]",[],,,,,,,,,,,,,,,
harvest_prac,38,214907,0.0-14.0-1.0,,null,run_exp/static/images/task_images/barrel_text.jpg,null,,,,,,,,,,,,,,,,,,,,,,,
decision_prac,39,215624,0.0-14.0-2.0,,716,run_exp/static/images/task_images/land.jpg,65,,,,,,,,,,4,,,,,,,,,,,,,
dig_prac,40,217637,0.0-15.0-0.0,,,,,,,,,,,"[{""stimulus"":""run_exp/static/images/task_images/dig.jpg"",""time"":0},{""stimulus"":""run_exp/static/images/task_images/land.jpg"",""time"":668.2999999523163},{""stimulus"":""run_exp/static/images/task_images/dig.jpg"",""time"":1339.5}]",[],,,,,,,,,,,,,,,
harvest_prac,41,218649,0.0-15.0-1.0,,null,run_exp/static/images/task_images/barrel_text.jpg,null,,,,,,,,,,,,,,,,,,,,,,,
decision_prac,42,219121,0.0-15.0-2.0,,470.3999999,run_exp/static/images/task_images/land.jpg,65,,,,,,,,,,,1,,,,,,,,,,,,
quiz_instruc,43,229954,0.0-16.0-0.0,,10832,run_exp/static/audio/clip_10_quiz.m4a,,,,,,0,,,,,,,,,,,,,,,,,,
instruc_repeat,44,272706,0.0-16.0-1.0,,null,"<p> Are you ready to play a practice game? </p> <p>In this practice game, you'll be digging up barrels of gems. But, in the real game, you'll be digging up the gems themselves. </p>",null,"<p>In this game, your goal is to collect as many gems as you can. That’s how you will win bonus money. </p> <p>The entire game will last 20 minutes no matter how many gems you collect or how many planets you visit. </p><p>To stay on a planet and dig again, press the letter A on your keyboard. To leave for a new planet, press the letter L.</p><p>The more you dig on a planet, the fewer gems you’ll get with each dig which is why you might consider leaving for a new planet. </p><p>When you arrive at a new planet, you’ll be greeted by an alien. What the alien looks like does not tell you anything about how much treasure is on the planet. </p>",,,,,,,,,,,,,,,,,,,,,,
instruc_repeat_continue,45,274731,0.0-16.0-2.0,,2023.6,"<p> Are you ready to play a practice game? </p> <p>In this practice game, you'll be digging up barrels of gems. But, in the real game, you'll be digging up the gems themselves. </p>",,,,,,0,,,,,,,,,,,,,,,,,,
quiz_q_1_ask,46,279660,0.0-16.0-3.0,,4928.6,run_exp/static/audio/clip_11_q1_ask.m4a,,,,,,2,,,,,,,,,,,,,,,,,,
quiz_q_1_fb_correct,47,283504,0.0-17.0-0.0,,null,run_exp/static/audio/clip_12_q1_corrrect.m4a,null,<p>That’s correct. You win extra money by collecting more gems.</p>,,,,,,,,,,,,,,,,,,,,,,
quiz_q_2_ask,48,288350,0.0-17.0-1.0,,4844.6,run_exp/static/audio/clip_14_q2_ask.m4a,,,,,,1,,,,,,,,,,,,,,,,,,
quiz_q_2_fb_correct,49,292346,0.0-18.0-0.0,,null,run_exp/static/audio/clip_15_q2_correct.m4a,null,<p>That’s correct. The experiment is 20 minutes no matter what.</p>,,,,,,,,,,,,,,,,,,,,,,
quiz_q_3_ask,50,295368,0.0-18.0-1.0,,3021,run_exp/static/audio/clip_17_q3_ask.m4a,,,,,,1,,,,,,,,,,,,,,,,,,
quiz_q_3_fb_correct,51,299346,0.0-19.0-0.0,,null,run_exp/static/audio/clip_18_q3_correct.m4a,null,<p> That’s correct. You press the letter L to travel to a new planet.</p>,,,,,,,,,,,,,,,,,,,,,,
quiz_q_4_ask,52,302946,0.0-19.0-1.0,,3598.7,run_exp/static/audio/clip_20_q4_ask.m4a,,,,,,0,,,,,,,,,,,,,,,,,,
quiz_q_4_fb_correct,53,308265,0.0-20.0-0.0,,null,run_exp/static/audio/clip_21_q4_correct.m4a,null,<p> That’s correct. The more you dig on a planet the fewer gems you’ll get with each dig. </p>,,,,,,,,,,,,,,,,,,,,,,
quiz_q_5_ask,54,311854,0.0-20.0-1.0,,3587.9,run_exp/static/audio/clip_23_q5_ask.m4a,,,,,,1,,,,,,,,,,,,,,,,,,
quiz_q_5_fb_correct,55,316846,0.0-21.0-0.0,,null,run_exp/static/audio/clip_24_q5_correct.m4a,null,<p> That’s correct. The alien tells you nothing about how much treasure is on the planet.</p>,,,,,,,,,,,,,,,,,,,,,,
quiz_correct,56,320306,0.0-22.0-0.0,,null,run_exp/static/audio/clip_26_correct_quiz.m4a,null,,,,,,,,,,,,,,,,,,,,,,,
quiz_correct_continue,57,321535,0.0-22.0-1.0,,1227.6,<p>Good job! You're now ready to move on to the real game!</p>,,,,,,0,,,,,,,,,,,,,,,,,,
audio-keyboard-response,58,331644,0.0-22.0-2.0,,null,run_exp/static/audio/clip_28_real_game.m4a,null,,,,,,,,,,,,,,,,,,,,,,,
instruc_begin_exp_contine,59,332796,0.0-22.0-3.0,,1151.1,"<p>Now that you know how  to dig for space treasure and travel to new planets,you can start exploring! </p><p>Do you want to go over the instructions again or get started with the real game?</p>",,,,,,1,,,,,,1,,,,,,,,,,,,
alien_welcome,60,337800,0.0-23.0-0.0,,null,run_exp/static/images/task_images/aliens/old_aliens/planet/alien_planet-58.jpg,null,,,,,,,,,,,,58,"58,52,33,61,42,55,28,69,27,37,32,10,50,79,7,74,60,65,72,56,46,31,38,71,63,1,5,45,40,16,25,15,76",,,,,,,,,,
land,61,338302,0.0-23.0-1.0,,null,run_exp/static/images/task_images/land.jpg,null,,,,,,101,,,1,,,,,,,,,,,,,,
dig,62,340313,0.0-23.0-2.0,,,,,,,,,,,"[{""stimulus"":""run_exp/static/images/task_images/dig.jpg"",""time"":0.3000001907348633},{""stimulus"":""run_exp/static/images/task_images/land.jpg"",""time"":670.4000000953674},{""stimulus"":""run_exp/static/images/task_images/dig.jpg"",""time"":1338.5}]",[],1,,,,,,,,,,,,,,
harvest,63,341326,0.0-23.0-3.0,,null,run_exp/static/images/task_images/gems/101.jpg,null,,,,,,24,,,1,,,,,101,0.241286161,0.237623762,,,,,,,
decision,64,341688,0.0-23.0-4.0,,360.0999999,run_exp/static/images/task_images/land.jpg,65,,,,,,24,,,1,,,,,,,,8890,1,0,FALSE,,,
dig,65,344338,0.0-24.0-0.0,,,,,,,,,,,"[{""stimulus"":""run_exp/static/images/task_images/dig.jpg"",""time"":0.09999990463256836},{""stimulus"":""run_exp/static/images/task_images/land.jpg"",""time"":884},{""stimulus"":""run_exp/static/images/task_images/dig.jpg"",""time"":1771.9000000953674}]",[],1,,,,,,,,,,,,,,
harvest,66,345345,0.0-24.0-1.0,,null,run_exp/static/images/task_images/gems/24.jpg,null,,,,,,4,,,1,,,,,24,0.181651918,0.166666667,,,,,,,
decision,67,345461,0.0-24.0-2.0,,114.8,run_exp/static/images/task_images/land.jpg,65,,,,,,4,,,1,,,,,,,,12663,1,1,FALSE,,,
dig,68,348346,0.0-25.0-0.0,,,,,,,,,,,"[{""stimulus"":""run_exp/static/images/task_images/dig.jpg"",""time"":0},{""stimulus"":""run_exp/static/images/task_images/land.jpg"",""time"":973.5999999046326},{""stimulus"":""run_exp/static/images/task_images/dig.jpg"",""time"":1937.8999998569489}]",[],1,,,,,,,,,,,,,,
harvest,69,349356,0.0-25.0-1.0,,null,run_exp/static/images/task_images/gems/4.jpg,null,,,,,,1,,,1,,,,,4,0.221807988,0.25,,,,,,,
decision,70,349737,0.0-25.0-2.0,,379.6999998,run_exp/static/images/task_images/land.jpg,76,,,,,,1,,,1,,,,,,,,16939,1,2,TRUE,,,
travel,71,359353,0.0-26.0-0.0,,,,,,,,,,,"[{""stimulus"":""run_exp/static/images/task_images/rocket-01.jpg"",""time"":0.09999990463256836},{""stimulus"":""run_exp/static/images/task_images/rocket-02.jpg"",""time"":1078.5},{""stimulus"":""run_exp/static/images/task_images/rocket-03.jpg"",""time"":2139.2999999523163},{""stimulus"":""run_exp/static/images/task_images/rocket-04.jpg"",""time"":3220.4000000953674},{""stimulus"":""run_exp/static/images/task_images/rocket-05.jpg"",""time"":4281.900000095367},{""stimulus"":""run_exp/static/images/task_images/rocket-06.jpg"",""time"":5342},{""stimulus"":""run_exp/static/images/task_images/rocket-07.jpg"",""time"":6414.299999952316},{""stimulus"":""run_exp/static/images/task_images/rocket-08.jpg"",""time"":7492.299999952316},{""stimulus"":""run_exp/static/images/task_images/rocket-09.jpg"",""time"":8553}]",[],1,,,,,,,,,,,,,,
alien_welcome,72,364356,0.0-26.0-1.0,,null,run_exp/static/images/task_images/aliens/old_aliens/planet/alien_planet-52.jpg,null,,,,,,,,,,,,52,"58,52,33,61,42,55,28,69,27,37,32,10,50,79,7,74,60,65,72,56,46,31,38,71,63,1,5,45,40,16,25,15,76",,,,,,,,,,
land,73,364871,0.0-26.0-2.0,,null,run_exp/static/images/task_images/land.jpg,null,,,,,,98,,,2,,,,,,,,,,,,,,
dig,74,366881,0.0-26.0-3.0,,,,,,,,,,,"[{""stimulus"":""run_exp/static/images/task_images/dig.jpg"",""time"":0.2999999523162842},{""stimulus"":""run_exp/static/images/task_images/land.jpg"",""time"":682.7999999523163},{""stimulus"":""run_exp/static/images/task_images/dig.jpg"",""time"":1339.9000000953674}]",[],2,,,,,,,,,,,,,,
harvest,75,367892,0.0-26.0-4.0,,null,run_exp/static/images/task_images/gems/98.jpg,null,,,,,,25,,,2,,,,,98,0.255130427,0.255102041,,,,,,,
decision,76,368639,0.0-26.0-5.0,,745.4000001,run_exp/static/images/task_images/land.jpg,65,,,,,,25,,,2,,,,,,,,35842,1,0,FALSE,,,
dig,77,370902,0.0-27.0-0.0,,,,,,,,,,,"[{""stimulus"":""run_exp/static/images/task_images/dig.jpg"",""time"":0.10000014305114746},{""stimulus"":""run_exp/static/images/task_images/land.jpg"",""time"":761.8000001907349},{""stimulus"":""run_exp/static/images/task_images/dig.jpg"",""time"":1510.8000001907349}]",[],2,,,,,,,,,,,,,,
harvest,78,371918,0.0-27.0-1.0,,null,run_exp/static/images/task_images/gems/25.jpg,null,,,,,,7,,,2,,,,,25,0.275314206,0.28,,,,,,,
decision,79,372808,0.0-27.0-2.0,,888.3999999,run_exp/static/images/task_images/land.jpg,65,,,,,,7,,,2,,,,,,,,40010,1,1,FALSE,,,
dig,80,374924,0.0-28.0-0.0,,,,,,,,,,,"[{""stimulus"":""run_exp/static/images/task_images/dig.jpg"",""time"":0.10000014305114746},{""stimulus"":""run_exp/static/images/task_images/land.jpg"",""time"":713.9000000953674},{""stimulus"":""run_exp/static/images/task_images/dig.jpg"",""time"":1416.9000000953674}]",[],2,,,,,,,,,,,,,,
harvest,81,375936,0.0-28.0-1.0,,null,run_exp/static/images/task_images/gems/7.jpg,null,,,,,,2,,,2,,,,,7,0.236453023,0.285714286,,,,,,,
decision,82,376279,0.0-28.0-2.0,,343.1000001,run_exp/static/images/task_images/land.jpg,65,,,,,,2,,,2,,,,,,,,43481,1,2,FALSE,,,
dig,83,378940,0.0-29.0-0.0,,,,,,,,,,,"[{""stimulus"":""run_exp/static/images/task_images/dig.jpg"",""time"":0.09999990463256836},{""stimulus"":""run_exp/static/images/task_images/land.jpg"",""time"":898.7999999523163},{""stimulus"":""run_exp/static/images/task_images/dig.jpg"",""time"":1783.2000000476837}]",[],2,,,,,,,,,,,,,,
harvest,84,379953,0.0-29.0-1.0,,null,run_exp/static/images/task_images/gems/2.jpg,null,,,,,,0,,,2,,,,,2,0.249260795,0,,,,,,,
decision,85,380964,0.0-29.0-2.0,,1009.3,run_exp/static/images/task_images/land.jpg,76,,,,,,0,,,2,,,,,,,,48166,1,3,TRUE,,,
travel,86,389955,0.0-30.0-0.0,,,,,,,,,,,"[{""stimulus"":""run_exp/static/images/task_images/rocket-01.jpg"",""time"":0.09999990463256836},{""stimulus"":""run_exp/static/images/task_images/rocket-02.jpg"",""time"":1000.7999999523163},{""stimulus"":""run_exp/static/images/task_images/rocket-03.jpg"",""time"":1996.9000000953674},{""stimulus"":""run_exp/static/images/task_images/rocket-04.jpg"",""time"":3001.2999999523163},{""stimulus"":""run_exp/static/images/task_images/rocket-05.jpg"",""time"":4001.4000000953674},{""stimulus"":""run_exp/static/images/task_images/rocket-06.jpg"",""time"":5000.299999952316},{""stimulus"":""run_exp/static/images/task_images/rocket-07.jpg"",""time"":5995.299999952316},{""stimulus"":""run_exp/static/images/task_images/rocket-08.jpg"",""time"":6992.200000047684},{""stimulus"":""run_exp/static/images/task_images/rocket-09.jpg"",""time"":7990.599999904633}]",[],2,,,,,,,,,,,,,,
alien_welcome,87,394966,0.0-30.0-1.0,,null,run_exp/static/images/task_images/aliens/old_aliens/planet/alien_planet-33.jpg,null,,,,,,,,,,,,33,"58,52,33,61,42,55,28,69,27,37,32,10,50,79,7,74,60,65,72,56,46,31,38,71,63,1,5,45,40,16,25,15,76",,,,,,,,,,
land,88,395480,0.0-30.0-2.0,,null,run_exp/static/images/task_images/land.jpg,null,,,,,,107,,,3,,,,,,,,,,,,,,
dig,89,397484,0.0-30.0-3.0,,,,,,,,,,,"[{""stimulus"":""run_exp/static/images/task_images/dig.jpg"",""time"":0.40000009536743164},{""stimulus"":""run_exp/static/images/task_images/land.jpg"",""time"":669.6000001430511},{""stimulus"":""run_exp/static/images/task_images/dig.jpg"",""time"":1344.3000001907349}]",[],3,,,,,,,,,,,,,,
harvest,90,398488,0.0-30.0-4.0,,null,run_exp/static/images/task_images/gems/107.jpg,null,,,,,,66,,,3,,,,,107,0.615383698,0.61682243,,,,,,,
decision,91,399662,0.0-30.0-5.0,,1173,run_exp/static/images/task_images/land.jpg,65,,,,,,66,,,3,,,,,,,,66864,1,0,FALSE,,,
dig,92,401497,0.0-31.0-0.0,,,,,,,,,,,"[{""stimulus"":""run_exp/static/images/task_images/dig.jpg"",""time"":0},{""stimulus"":""run_exp/static/images/task_images/land.jpg"",""time"":615.2000000476837},{""stimulus"":""run_exp/static/images/task_images/dig.jpg"",""time"":1226.6000001430511}]",[],3,,,,,,,,,,,,,,
harvest,93,402501,0.0-31.0-1.0,,null,run_exp/static/images/task_images/gems/66.jpg,null,,,,,,35,,,3,,,,,66,0.527781801,0.53030303,,,,,,,
decision,94,402995,0.0-31.0-2.0,,492.3999999,run_exp/static/images/task_images/land.jpg,65,,,,,,35,,,3,,,,,,,,70197,1,1,FALSE,,,
dig,95,405508,0.0-32.0-0.0,,,,,,,,,,,"[{""stimulus"":""run_exp/static/images/task_images/dig.jpg"",""time"":0},{""stimulus"":""run_exp/static/images/task_images/land.jpg"",""time"":849.5999999046326},{""stimulus"":""run_exp/static/images/task_images/dig.jpg"",""time"":1683.2999999523163}]",[],3,,,,,,,,,,,,,,
harvest,96,406519,0.0-32.0-1.0,,null,run_exp/static/images/task_images/gems/35.jpg,null,,,,,,18,,,3,,,,,35,0.512016929,0.514285714,,,,,,,
decision,97,407691,0.0-32.0-2.0,,1170.9,run_exp/static/images/task_images/land.jpg,65,,,,,,18,,,3,,,,,,,,74893,1,2,FALSE,,,
dig,98,409525,0.0-33.0-0.0,,,,,,,,,,,"[{""stimulus"":""run_exp/static/images/task_images/dig.jpg"",""time"":0.09999990463256836},{""stimulus"":""run_exp/static/images/task_images/land.jpg"",""time"":617.7999999523163},{""stimulus"":""run_exp/static/images/task_images/dig.jpg"",""time"":1225.5}]",[],3,,,,,,,,,,,,,,
harvest,99,410528,0.0-33.0-1.0,,null,run_exp/static/images/task_images/gems/18.jpg,null,,,,,,7,,,3,,,,,18,0.364019796,0.388888889,,,,,,,
decision,100,410625,0.0-33.0-2.0,,94.89999986,run_exp/static/images/task_images/land.jpg,65,,,,,,7,,,3,,,,,,,,77827,1,3,FALSE,,,
dig,101,413543,0.0-34.0-0.0,,,,,,,,,,,"[{""stimulus"":""run_exp/static/images/task_images/dig.jpg"",""time"":0},{""stimulus"":""run_exp/static/images/task_images/land.jpg"",""time"":979.9000000953674},{""stimulus"":""run_exp/static/images/task_images/dig.jpg"",""time"":1946.2000000476837}]",[],3,,,,,,,,,,,,,,
harvest,102,414555,0.0-34.0-1.0,,null,run_exp/static/images/task_images/gems/7.jpg,null,,,,,,4,,,3,,,,,7,0.506667305,0.571428571,,,,,,,
decision,103,415031,0.0-34.0-2.0,,473.8999999,run_exp/static/images/task_images/land.jpg,76,,,,,,4,,,3,,,,,,,,82233,1,4,TRUE,,,
travel,104,424565,0.0-35.0-0.0,,,,,,,,,,,"[{""stimulus"":""run_exp/static/images/task_images/rocket-01.jpg"",""time"":0},{""stimulus"":""run_exp/static/images/task_images/rocket-02.jpg"",""time"":1066.5},{""stimulus"":""run_exp/static/images/task_images/rocket-03.jpg"",""time"":2125.7999999523163},{""stimulus"":""run_exp/static/images/task_images/rocket-04.jpg"",""time"":3185.7000000476837},{""stimulus"":""run_exp/static/images/task_images/rocket-05.jpg"",""time"":4245.899999856949},{""stimulus"":""run_exp/static/images/task_images/rocket-06.jpg"",""time"":5296.200000047684},{""stimulus"":""run_exp/static/images/task_images/rocket-07.jpg"",""time"":6358},{""stimulus"":""run_exp/static/images/task_images/rocket-08.jpg"",""time"":7411.5},{""stimulus"":""run_exp/static/images/task_images/rocket-09.jpg"",""time"":8470.700000047684}]",[],3,,,,,,,,,,,,,,
alien_welcome,105,429569,0.0-35.0-1.0,,null,run_exp/static/images/task_images/aliens/old_aliens/planet/alien_planet-61.jpg,null,,,,,,,,,,,,61,"58,52,33,61,42,55,28,69,27,37,32,10,50,79,7,74,60,65,72,56,46,31,38,71,63,1,5,45,40,16,25,15,76",,,,,,,,,,
land,106,430083,0.0-35.0-2.0,,null,run_exp/static/images/task_images/land.jpg,null,,,,,,97,,,4,,,,,,,,,,,,,,
dig,107,432095,0.0-35.0-3.0,,,,,,,,,,,"[{""stimulus"":""run_exp/static/images/task_images/dig.jpg"",""time"":0.2999999523162842},{""stimulus"":""run_exp/static/images/task_images/land.jpg"",""time"":670.2000000476837},{""stimulus"":""run_exp/static/images/task_images/dig.jpg"",""time"":1341.2000000476837}]",[],4,,,,,,,,,,,,,,
harvest,108,433109,0.0-35.0-4.0,,null,run_exp/static/images/task_images/gems/97.jpg,null,,,,,,56,,,4,,,,,97,0.579301686,0.577319588,,,,,,,
decision,109,433501,0.0-35.0-5.0,,390.3,run_exp/static/images/task_images/land.jpg,65,,,,,,56,,,4,,,,,,,,100703,1,0,FALSE,,,
dig,110,436116,0.0-36.0-0.0,,,,,,,,,,,"[{""stimulus"":""run_exp/static/images/task_images/dig.jpg"",""time"":0.09999990463256836},{""stimulus"":""run_exp/static/images/task_images/land.jpg"",""time"":883.7999999523163},{""stimulus"":""run_exp/static/images/task_images/dig.jpg"",""time"":1739.7999999523163}]",[],4,,,,,,,,,,,,,,
harvest,111,437128,0.0-36.0-1.0,,null,run_exp/static/images/task_images/gems/56.jpg,null,,,,,,26,,,4,,,,,56,0.468633517,0.464285714,,,,,,,
decision,112,437183,0.0-36.0-2.0,,54.69999981,run_exp/static/images/task_images/land.jpg,65,,,,,,26,,,4,,,,,,,,104385,1,1,FALSE,,,
dig,113,440136,0.0-37.0-0.0,,,,,,,,,,,"[{""stimulus"":""run_exp/static/images/task_images/dig.jpg"",""time"":0},{""stimulus"":""run_exp/static/images/task_images/land.jpg"",""time"":989.2000000476837},{""stimulus"":""run_exp/static/images/task_images/dig.jpg"",""time"":1973.2999999523163}]",[],4,,,,,,,,,,,,,,
harvest,114,441147,0.0-37.0-1.0,,null,run_exp/static/images/task_images/gems/26.jpg,null,,,,,,13,,,4,,,,,26,0.498574293,0.5,,,,,,,
decision,115,442876,0.0-37.0-2.0,,1727.9,run_exp/static/images/task_images/land.jpg,65,,,,,,13,,,4,,,,,,,,110078,1,2,FALSE,,,
dig,116,444161,0.0-38.0-0.0,,,,,,,,,,,"[{""stimulus"":""run_exp/static/images/task_images/dig.jpg"",""time"":0},{""stimulus"":""run_exp/static/images/task_images/land.jpg"",""time"":425.80000019073486},{""stimulus"":""run_exp/static/images/task_images/dig.jpg"",""time"":858.9000000953674}]",[],4,,,,,,,,,,,,,,
harvest,117,445175,0.0-38.0-1.0,,null,run_exp/static/images/task_images/gems/13.jpg,null,,,,,,7,,,4,,,,,13,0.542593748,0.538461538,,,,,,,
decision,118,445619,0.0-38.0-2.0,,441.5999999,run_exp/static/images/task_images/land.jpg,76,,,,,,7,,,4,,,,,,,,112821,1,3,TRUE,,,
travel,119,455189,0.0-39.0-0.0,,,,,,,,,,,"[{""stimulus"":""run_exp/static/images/task_images/rocket-01.jpg"",""time"":0.10000014305114746},{""stimulus"":""run_exp/static/images/task_images/rocket-02.jpg"",""time"":1066.1000001430511},{""stimulus"":""run_exp/static/images/task_images/rocket-03.jpg"",""time"":2131},{""stimulus"":""run_exp/static/images/task_images/rocket-04.jpg"",""time"":3190.7000000476837},{""stimulus"":""run_exp/static/images/task_images/rocket-05.jpg"",""time"":4264},{""stimulus"":""run_exp/static/images/task_images/rocket-06.jpg"",""time"":5325},{""stimulus"":""run_exp/static/images/task_images/rocket-07.jpg"",""time"":6373.700000047684},{""stimulus"":""run_exp/static/images/task_images/rocket-08.jpg"",""time"":7449.100000143051},{""stimulus"":""run_exp/static/images/task_images/rocket-09.jpg"",""time"":8510.299999952316}]",[],4,,,,,,,,,,,,,,
alien_welcome,120,460202,0.0-39.0-1.0,,null,run_exp/static/images/task_images/aliens/old_aliens/planet/alien_planet-42.jpg,null,,,,,,,,,,,,42,"58,52,33,61,42,55,28,69,27,37,32,10,50,79,7,74,60,65,72,56,46,31,38,71,63,1,5,45,40,16,25,15,76",,,,,,,,,,
land,121,460719,0.0-39.0-2.0,,null,run_exp/static/images/task_images/land.jpg,null,,,,,,97,,,5,,,,,,,,,,,,,,
dig,122,462733,0.0-39.0-3.0,,,,,,,,,,,"[{""stimulus"":""run_exp/static/images/task_images/dig.jpg"",""time"":0.40000009536743164},{""stimulus"":""run_exp/static/images/task_images/land.jpg"",""time"":683.5},{""stimulus"":""run_exp/static/images/task_images/dig.jpg"",""time"":1339.5}]",[],5,,,,,,,,,,,,,,
harvest,123,463736,0.0-39.0-4.0,,null,run_exp/static/images/task_images/gems/97.jpg,null,,,,,,49,,,5,,,,,97,0.506177664,0.505154639,,,,,,,
decision,124,464141,0.0-39.0-5.0,,402,run_exp/static/images/task_images/land.jpg,65,,,,,,49,,,5,,,,,,,,131343,1,0,FALSE,,,
dig,125,466746,0.0-40.0-0.0,,,,,,,,,,,"[{""stimulus"":""run_exp/static/images/task_images/dig.jpg"",""time"":0.09999990463256836},{""stimulus"":""run_exp/static/images/task_images/land.jpg"",""time"":870.2999999523163},{""stimulus"":""run_exp/static/images/task_images/dig.jpg"",""time"":1747.5}]",[],5,,,,,,,,,,,,,,
harvest,126,467757,0.0-40.0-1.0,,null,run_exp/static/images/task_images/gems/49.jpg,null,,,,,,24,,,5,,,,,49,0.48262885,0.489795918,,,,,,,
decision,127,467807,0.0-40.0-2.0,,48.0999999,run_exp/static/images/task_images/land.jpg,65,,,,,,24,,,5,,,,,,,,135009,1,1,FALSE,,,
dig,128,470767,0.0-41.0-0.0,,,,,,,,,,,"[{""stimulus"":""run_exp/static/images/task_images/dig.jpg"",""time"":0.09999990463256836},{""stimulus"":""run_exp/static/images/task_images/land.jpg"",""time"":995.5999999046326},{""stimulus"":""run_exp/static/images/task_images/dig.jpg"",""time"":1977.4000000953674}]",[],5,,,,,,,,,,,,,,
harvest,129,471779,0.0-41.0-1.0,,null,run_exp/static/images/task_images/gems/24.jpg,null,,,,,,13,,,5,,,,,24,0.529679697,0.541666667,,,,,,,
decision,130,472937,0.0-41.0-2.0,,1157.4,run_exp/static/images/task_images/land.jpg,65,,,,,,13,,,5,,,,,,,,140139,1,2,FALSE,,,
dig,131,474781,0.0-42.0-0.0,,,,,,,,,,,"[{""stimulus"":""run_exp/static/images/task_images/dig.jpg"",""time"":0},{""stimulus"":""run_exp/static/images/task_images/land.jpg"",""time"":621.5},{""stimulus"":""run_exp/static/images/task_images/dig.jpg"",""time"":1232.5999999046326}]",[],5,,,,,,,,,,,,,,
harvest,132,475784,0.0-42.0-1.0,,null,run_exp/static/images/task_images/gems/13.jpg,null,,,,,,7,,,5,,,,,13,0.555431804,0.538461538,,,,,,,
decision,133,476077,0.0-42.0-2.0,,291.1000001,run_exp/static/images/task_images/land.jpg,76,,,,,,7,,,5,,,,,,,,143279,1,3,TRUE,,,
travel,134,485795,0.0-43.0-0.0,,,,,,,,,,,"[{""stimulus"":""run_exp/static/images/task_images/rocket-01.jpg"",""time"":0},{""stimulus"":""run_exp/static/images/task_images/rocket-02.jpg"",""time"":1081.5},{""stimulus"":""run_exp/static/images/task_images/rocket-03.jpg"",""time"":2158.4000000953674},{""stimulus"":""run_exp/static/images/task_images/rocket-04.jpg"",""time"":3246.4000000953674},{""stimulus"":""run_exp/static/images/task_images/rocket-05.jpg"",""time"":4318.700000047684},{""stimulus"":""run_exp/static/images/task_images/rocket-06.jpg"",""time"":5396.600000143051},{""stimulus"":""run_exp/static/images/task_images/rocket-07.jpg"",""time"":6476.5},{""stimulus"":""run_exp/static/images/task_images/rocket-08.jpg"",""time"":7549.900000095367},{""stimulus"":""run_exp/static/images/task_images/rocket-09.jpg"",""time"":8639.900000095367}]",[],5,,,,,,,,,,,,,,
alien_welcome,135,490805,0.0-43.0-1.0,,null,run_exp/static/images/task_images/aliens/old_aliens/planet/alien_planet-55.jpg,null,,,,,,,,,,,,55,"58,52,33,61,42,55,28,69,27,37,32,10,50,79,7,74,60,65,72,56,46,31,38,71,63,1,5,45,40,16,25,15,76",,,,,,,,,,
land,136,491320,0.0-43.0-2.0,,null,run_exp/static/images/task_images/land.jpg,null,,,,,,103,,,6,,,,,,,,,,,,,,
dig,137,493328,0.0-43.0-3.0,,,,,,,,,,,"[{""stimulus"":""run_exp/static/images/task_images/dig.jpg"",""time"":0.39999985694885254},{""stimulus"":""run_exp/static/images/task_images/land.jpg"",""time"":680.8999998569489},{""stimulus"":""run_exp/static/images/task_images/dig.jpg"",""time"":1336.5999999046326}]",[],6,,,,,,,,,,,,,,
harvest,138,494331,0.0-43.0-4.0,,null,run_exp/static/images/task_images/gems/103.jpg,null,,,,,,84,,,6,,,,,103,0.818856779,0.815533981,,,,,,,
decision,139,494994,0.0-43.0-5.0,,660.9000001,run_exp/static/images/task_images/land.jpg,65,,,,,,84,,,6,,,,,,,,162196,1,0,FALSE,,,
dig,140,497341,0.0-44.0-0.0,,,,,,,,,,,"[{""stimulus"":""run_exp/static/images/task_images/dig.jpg"",""time"":0},{""stimulus"":""run_exp/static/images/task_images/land.jpg"",""time"":787.7000000476837},{""stimulus"":""run_exp/static/images/task_images/dig.jpg"",""time"":1568.7000000476837}]",[],6,,,,,,,,,,,,,,
harvest,141,498344,0.0-44.0-1.0,,null,run_exp/static/images/task_images/gems/84.jpg,null,,,,,,61,,,6,,,,,84,0.730048553,0.726190476,,,,,,,
decision,142,498466,0.0-44.0-2.0,,120.9000001,run_exp/static/images/task_images/land.jpg,65,,,,,,61,,,6,,,,,,,,165668,1,1,FALSE,,,
dig,143,501354,0.0-45.0-0.0,,,,,,,,,,,"[{""stimulus"":""run_exp/static/images/task_images/dig.jpg"",""time"":0},{""stimulus"":""run_exp/static/images/task_images/land.jpg"",""time"":966.5},{""stimulus"":""run_exp/static/images/task_images/dig.jpg"",""time"":1919.7000000476837}]",[],6,,,,,,,,,,,,,,
harvest,144,502357,0.0-45.0-1.0,,null,run_exp/static/images/task_images/gems/61.jpg,null,,,,,,49,,,6,,,,,61,0.805055258,0.803278689,,,,,,,
decision,145,504342,0.0-45.0-2.0,,1984.4,run_exp/static/images/task_images/land.jpg,65,,,,,,49,,,6,,,,,,,,171544,1,2,FALSE,,,
dig,146,505371,0.0-46.0-0.0,,,,,,,,,,,"[{""stimulus"":""run_exp/static/images/task_images/dig.jpg"",""time"":0.10000014305114746},{""stimulus"":""run_exp/static/images/task_images/land.jpg"",""time"":339.5},{""stimulus"":""run_exp/static/images/task_images/dig.jpg"",""time"":684.4000000953674}]",[],6,,,,,,,,,,,,,,
harvest,147,506384,0.0-46.0-1.0,,null,run_exp/static/images/task_images/gems/49.jpg,null,,,,,,41,,,6,,,,,49,0.828344556,0.836734694,,,,,,,
decision,148,506966,0.0-46.0-2.0,,580.3,run_exp/static/images/task_images/land.jpg,65,,,,,,41,,,6,,,,,,,,174168,1,3,FALSE,,,
dig,149,509399,0.0-47.0-0.0,,,,,,,,,,,"[{""stimulus"":""run_exp/static/images/task_images/dig.jpg"",""time"":0.10000014305114746},{""stimulus"":""run_exp/static/images/task_images/land.jpg"",""time"":811},{""stimulus"":""run_exp/static/images/task_images/dig.jpg"",""time"":1622.5}]",[],6,,,,,,,,,,,,,,
harvest,150,510411,0.0-47.0-1.0,,null,run_exp/static/images/task_images/gems/41.jpg,null,,,,,,34,,,6,,,,,41,0.838686734,0.829268293,,,,,,,
decision,151,510783,0.0-47.0-2.0,,370.0999999,run_exp/static/images/task_images/land.jpg,65,,,,,,34,,,6,,,,,,,,177985,1,4,FALSE,,,
dig,152,513421,0.0-48.0-0.0,,,,,,,,,,,"[{""stimulus"":""run_exp/static/images/task_images/dig.jpg"",""time"":0},{""stimulus"":""run_exp/static/images/task_images/land.jpg"",""time"":889},{""stimulus"":""run_exp/static/images/task_images/dig.jpg"",""time"":1764.7000000476837}]",[],6,,,,,,,,,,,,,,
harvest,153,514436,0.0-48.0-1.0,,null,run_exp/static/images/task_images/gems/34.jpg,null,,,,,,29,,,6,,,,,34,0.839031347,0.852941176,,,,,,,
decision,154,514908,0.0-48.0-2.0,,470.5999999,run_exp/static/images/task_images/land.jpg,65,,,,,,29,,,6,,,,,,,,182110,1,5,FALSE,,,
dig,155,517450,0.0-49.0-0.0,,,,,,,,,,,"[{""stimulus"":""run_exp/static/images/task_images/dig.jpg"",""time"":0},{""stimulus"":""run_exp/static/images/task_images/land.jpg"",""time"":852},{""stimulus"":""run_exp/static/images/task_images/dig.jpg"",""time"":1694.2999999523163}]",[],6,,,,,,,,,,,,,,
harvest,156,518454,0.0-49.0-1.0,,null,run_exp/static/images/task_images/gems/29.jpg,null,,,,,,24,,,6,,,,,29,0.833143429,0.827586207,,,,,,,
decision,157,520027,0.0-49.0-2.0,,1571.2,run_exp/static/images/task_images/land.jpg,65,,,,,,24,,,6,,,,,,,,187229,1,6,FALSE,,,
dig,158,521468,0.0-50.0-0.0,,,,,,,,,,,"[{""stimulus"":""run_exp/static/images/task_images/dig.jpg"",""time"":0.10000014305114746},{""stimulus"":""run_exp/static/images/task_images/land.jpg"",""time"":487.60000014305115},{""stimulus"":""run_exp/static/images/task_images/dig.jpg"",""time"":955.1000001430511}]",[],6,,,,,,,,,,,,,,
harvest,159,522483,0.0-50.0-1.0,,null,run_exp/static/images/task_images/gems/24.jpg,null,,,,,,20,,,6,,,,,24,0.820448349,0.833333333,,,,,,,
decision,160,522740,0.0-50.0-2.0,,256.3,run_exp/static/images/task_images/land.jpg,65,,,,,,20,,,6,,,,,,,,189943,1,7,FALSE,,,
dig,161,525492,0.0-51.0-0.0,,,,,,,,,,,"[{""stimulus"":""run_exp/static/images/task_images/dig.jpg"",""time"":0.09999990463256836},{""stimulus"":""run_exp/static/images/task_images/land.jpg"",""time"":927.8999998569489},{""stimulus"":""run_exp/static/images/task_images/dig.jpg"",""time"":1843.2999999523163}]",[],6,,,,,,,,,,,,,,
harvest,162,526500,0.0-51.0-1.0,,null,run_exp/static/images/task_images/gems/20.jpg,null,,,,,,16,,,6,,,,,20,0.780800818,0.8,,,,,,,
decision,163,527528,0.0-51.0-2.0,,1026.2,run_exp/static/images/task_images/land.jpg,65,,,,,,16,,,6,,,,,,,,194730,1,8,FALSE,,,
dig,164,529507,0.0-52.0-0.0,,,,,,,,,,,"[{""stimulus"":""run_exp/static/images/task_images/dig.jpg"",""time"":0.10000014305114746},{""stimulus"":""run_exp/static/images/task_images/land.jpg"",""time"":670.8000001907349},{""stimulus"":""run_exp/static/images/task_images/dig.jpg"",""time"":1324.1000001430511}]",[],6,,,,,,,,,,,,,,
harvest,165,530519,0.0-52.0-1.0,,null,run_exp/static/images/task_images/gems/16.jpg,null,,,,,,14,,,6,,,,,16,0.872430556,0.875,,,,,,,
decision,166,530918,0.0-52.0-2.0,,397.4000001,run_exp/static/images/task_images/land.jpg,65,,,,,,14,,,6,,,,,,,,198120,1,9,FALSE,,,
dig,167,533532,0.0-53.0-0.0,,,,,,,,,,,"[{""stimulus"":""run_exp/static/images/task_images/dig.jpg"",""time"":0.10000014305114746},{""stimulus"":""run_exp/static/images/task_images/land.jpg"",""time"":882.2000000476837},{""stimulus"":""run_exp/static/images/task_images/dig.jpg"",""time"":1736.2999999523163}]",[],6,,,,,,,,,,,,,,
harvest,168,534549,0.0-53.0-1.0,,null,run_exp/static/images/task_images/gems/14.jpg,null,,,,,,11,,,6,,,,,14,0.801000852,0.785714286,,,,,,,
decision,169,535022,0.0-53.0-2.0,,472.2,run_exp/static/images/task_images/land.jpg,76,,,,,,11,,,6,,,,,,,,202224,1,10,TRUE,,,
travel,170,544561,0.0-54.0-0.0,,,,,,,,,,,"[{""stimulus"":""run_exp/static/images/task_images/rocket-01.jpg"",""time"":0.09999990463256836},{""stimulus"":""run_exp/static/images/task_images/rocket-02.jpg"",""time"":1074.5999999046326},{""stimulus"":""run_exp/static/images/task_images/rocket-03.jpg"",""time"":2120.2000000476837},{""stimulus"":""run_exp/static/images/task_images/rocket-04.jpg"",""time"":3181.2000000476837},{""stimulus"":""run_exp/static/images/task_images/rocket-05.jpg"",""time"":4246.799999952316},{""stimulus"":""run_exp/static/images/task_images/rocket-06.jpg"",""time"":5306.5},{""stimulus"":""run_exp/static/images/task_images/rocket-07.jpg"",""time"":6351.599999904633},{""stimulus"":""run_exp/static/images/task_images/rocket-08.jpg"",""time"":7415.900000095367},{""stimulus"":""run_exp/static/images/task_images/rocket-09.jpg"",""time"":8475.5}]",[],6,,,,,,,,,,,,,,
alien_welcome,171,549575,0.0-54.0-1.0,,null,run_exp/static/images/task_images/aliens/old_aliens/planet/alien_planet-28.jpg,null,,,,,,,,,,,,28,"58,52,33,61,42,55,28,69,27,37,32,10,50,79,7,74,60,65,72,56,46,31,38,71,63,1,5,45,40,16,25,15,76",,,,,,,,,,
land,172,550092,0.0-54.0-2.0,,null,run_exp/static/images/task_images/land.jpg,null,,,,,,106,,,7,,,,,,,,,,,,,,
dig,173,552098,0.0-54.0-3.0,,,,,,,,,,,"[{""stimulus"":""run_exp/static/images/task_images/dig.jpg"",""time"":0.2999999523162842},{""stimulus"":""run_exp/static/images/task_images/land.jpg"",""time"":680.7999999523163},{""stimulus"":""run_exp/static/images/task_images/dig.jpg"",""time"":1350.5}]",[],7,,,,,,,,,,,,,,
harvest,174,553112,0.0-54.0-4.0,,null,run_exp/static/images/task_images/gems/106.jpg,null,,,,,,86,,,7,,,,,106,0.814971978,0.811320755,,,,,,,
decision,175,553589,0.0-54.0-5.0,,475.5999999,run_exp/static/images/task_images/land.jpg,65,,,,,,86,,,7,,,,,,,,220791,1,0,FALSE,,,
dig,176,556128,0.0-55.0-0.0,,,,,,,,,,,"[{""stimulus"":""run_exp/static/images/task_images/dig.jpg"",""time"":0},{""stimulus"":""run_exp/static/images/task_images/land.jpg"",""time"":848.8000001907349},{""stimulus"":""run_exp/static/images/task_images/dig.jpg"",""time"":1688.1000001430511}]",[],7,,,,,,,,,,,,,,
harvest,177,557138,0.0-55.0-1.0,,null,run_exp/static/images/task_images/gems/86.jpg,null,,,,,,74,,,7,,,,,86,0.864882863,0.860465116,,,,,,,
decision,178,557581,0.0-55.0-2.0,,442,run_exp/static/images/task_images/land.jpg,65,,,,,,74,,,7,,,,,,,,224783,1,1,FALSE,,,
dig,179,560153,0.0-56.0-0.0,,,,,,,,,,,"[{""stimulus"":""run_exp/static/images/task_images/dig.jpg"",""time"":0.09999990463256836},{""stimulus"":""run_exp/static/images/task_images/land.jpg"",""time"":857.2999999523163},{""stimulus"":""run_exp/static/images/task_images/dig.jpg"",""time"":1712.2000000476837}]",[],7,,,,,,,,,,,,,,
harvest,180,561157,0.0-56.0-1.0,,null,run_exp/static/images/task_images/gems/74.jpg,null,,,,,,60,,,7,,,,,74,0.817523297,0.810810811,,,,,,,
decision,181,561495,0.0-56.0-2.0,,336.1999998,run_exp/static/images/task_images/land.jpg,65,,,,,,60,,,7,,,,,,,,228697,1,2,FALSE,,,
dig,182,564164,0.0-57.0-0.0,,,,,,,,,,,"[{""stimulus"":""run_exp/static/images/task_images/dig.jpg"",""time"":0},{""stimulus"":""run_exp/static/images/task_images/land.jpg"",""time"":891.5999999046326},{""stimulus"":""run_exp/static/images/task_images/dig.jpg"",""time"":1779.3999998569489}]",[],7,,,,,,,,,,,,,,
harvest,183,565177,0.0-57.0-1.0,,null,run_exp/static/images/task_images/gems/60.jpg,null,,,,,,47,,,7,,,,,60,0.790667489,0.783333333,,,,,,,
decision,184,565538,0.0-57.0-2.0,,358.0999999,run_exp/static/images/task_images/land.jpg,65,,,,,,47,,,7,,,,,,,,232740,1,3,FALSE,,,
dig,185,568187,0.0-58.0-0.0,,,,,,,,,,,"[{""stimulus"":""run_exp/static/images/task_images/dig.jpg"",""time"":0},{""stimulus"":""run_exp/static/images/task_images/land.jpg"",""time"":887.2000000476837},{""stimulus"":""run_exp/static/images/task_images/dig.jpg"",""time"":1775.5}]",[],7,,,,,,,,,,,,,,
harvest,186,569191,0.0-58.0-1.0,,null,run_exp/static/images/task_images/gems/47.jpg,null,,,,,,38,,,7,,,,,47,0.80468966,0.808510638,,,,,,,
decision,187,569959,0.0-58.0-2.0,,766.3,run_exp/static/images/task_images/land.jpg,65,,,,,,38,,,7,,,,,,,,237161,1,4,FALSE,,,
dig,188,572199,0.0-59.0-0.0,,,,,,,,,,,"[{""stimulus"":""run_exp/static/images/task_images/dig.jpg"",""time"":0},{""stimulus"":""run_exp/static/images/task_images/land.jpg"",""time"":755.7999999523163},{""stimulus"":""run_exp/static/images/task_images/dig.jpg"",""time"":1492}]",[],7,,,,,,,,,,,,,,
harvest,189,573203,0.0-59.0-1.0,,null,run_exp/static/images/task_images/gems/38.jpg,null,,,,,,32,,,7,,,,,38,0.848377283,0.842105263,,,,,,,
decision,190,573591,0.0-59.0-2.0,,386.4000001,run_exp/static/images/task_images/land.jpg,65,,,,,,32,,,7,,,,,,,,240793,1,5,FALSE,,,
dig,191,576219,0.0-60.0-0.0,,,,,,,,,,,"[{""stimulus"":""run_exp/static/images/task_images/dig.jpg"",""time"":0.09999990463256836},{""stimulus"":""run_exp/static/images/task_images/land.jpg"",""time"":879.2999999523163},{""stimulus"":""run_exp/static/images/task_images/dig.jpg"",""time"":1755.5999999046326}]",[],7,,,,,,,,,,,,,,
harvest,192,577233,0.0-60.0-1.0,,null,run_exp/static/images/task_images/gems/32.jpg,null,,,,,,22,,,7,,,,,32,0.693769906,0.6875,,,,,,,
decision,193,577469,0.0-60.0-2.0,,235.5,run_exp/static/images/task_images/land.jpg,65,,,,,,22,,,7,,,,,,,,244671,1,6,FALSE,,,
dig,194,580250,0.0-61.0-0.0,,,,,,,,,,,"[{""stimulus"":""run_exp/static/images/task_images/dig.jpg"",""time"":0},{""stimulus"":""run_exp/static/images/task_images/land.jpg"",""time"":933.2000000476837},{""stimulus"":""run_exp/static/images/task_images/dig.jpg"",""time"":1853.8999998569489}]",[],7,,,,,,,,,,,,,,
harvest,195,581265,0.0-61.0-1.0,,null,run_exp/static/images/task_images/gems/22.jpg,null,,,,,,18,,,7,,,,,22,0.824115265,0.818181818,,,,,,,
decision,196,581350,0.0-61.0-2.0,,84.5,run_exp/static/images/task_images/land.jpg,65,,,,,,18,,,7,,,,,,,,248552,1,7,FALSE,,,
dig,197,584267,0.0-62.0-0.0,,,,,,,,,,,"[{""stimulus"":""run_exp/static/images/task_images/dig.jpg"",""time"":0.09999990463256836},{""stimulus"":""run_exp/static/images/task_images/land.jpg"",""time"":985.7999999523163},{""stimulus"":""run_exp/static/images/task_images/dig.jpg"",""time"":1950.2999999523163}]",[],7,,,,,,,,,,,,,,
harvest,198,585280,0.0-62.0-1.0,,null,run_exp/static/images/task_images/gems/18.jpg,null,,,,,,16,,,7,,,,,18,0.870741306,0.888888889,,,,,,,
decision,199,587057,0.0-62.0-2.0,,1775.6,run_exp/static/images/task_images/land.jpg,65,,,,,,16,,,7,,,,,,,,254259,1,8,FALSE,,,
dig,200,588299,0.0-63.0-0.0,,,,,,,,,,,"[{""stimulus"":""run_exp/static/images/task_images/dig.jpg"",""time"":0.09999990463256836},{""stimulus"":""run_exp/static/images/task_images/land.jpg"",""time"":416.2999999523163},{""stimulus"":""run_exp/static/images/task_images/dig.jpg"",""time"":821.2000000476837}]",[],7,,,,,,,,,,,,,,
harvest,201,589311,0.0-63.0-1.0,,null,run_exp/static/images/task_images/gems/16.jpg,null,,,,,,12,,,7,,,,,16,0.733792765,0.75,,,,,,,
decision,202,589784,0.0-63.0-2.0,,472.0999999,run_exp/static/images/task_images/land.jpg,65,,,,,,12,,,7,,,,,,,,256986,1,9,FALSE,,,
dig,203,592313,0.0-64.0-0.0,,,,,,,,,,,"[{""stimulus"":""run_exp/static/images/task_images/dig.jpg"",""time"":0.10000014305114746},{""stimulus"":""run_exp/static/images/task_images/land.jpg"",""time"":854.1000001430511},{""stimulus"":""run_exp/static/images/task_images/dig.jpg"",""time"":1698}]",[],7,,,,,,,,,,,,,,
harvest,204,593318,0.0-64.0-1.0,,null,run_exp/static/images/task_images/gems/12.jpg,null,,,,,,9,,,7,,,,,12,0.760254581,0.75,,,,,,,
decision,205,593793,0.0-64.0-2.0,,474.3999999,run_exp/static/images/task_images/land.jpg,76,,,,,,9,,,7,,,,,,,,260995,1,10,TRUE,,,
travel,206,603332,0.0-65.0-0.0,,,,,,,,,,,"[{""stimulus"":""run_exp/static/images/task_images/rocket-01.jpg"",""time"":0.20000004768371582},{""stimulus"":""run_exp/static/images/task_images/rocket-02.jpg"",""time"":1068.7999999523163},{""stimulus"":""run_exp/static/images/task_images/rocket-03.jpg"",""time"":2129.0999999046326},{""stimulus"":""run_exp/static/images/task_images/rocket-04.jpg"",""time"":3187.9000000953674},{""stimulus"":""run_exp/static/images/task_images/rocket-05.jpg"",""time"":4235.5},{""stimulus"":""run_exp/static/images/task_images/rocket-06.jpg"",""time"":5291.900000095367},{""stimulus"":""run_exp/static/images/task_images/rocket-07.jpg"",""time"":6355.299999952316},{""stimulus"":""run_exp/static/images/task_images/rocket-08.jpg"",""time"":7415.599999904633},{""stimulus"":""run_exp/static/images/task_images/rocket-09.jpg"",""time"":8478.599999904633}]",[],7,,,,,,,,,,,,,,
alien_welcome,207,608339,0.0-65.0-1.0,,null,run_exp/static/images/task_images/aliens/old_aliens/planet/alien_planet-69.jpg,null,,,,,,,,,,,,69,"58,52,33,61,42,55,28,69,27,37,32,10,50,79,7,74,60,65,72,56,46,31,38,71,63,1,5,45,40,16,25,15,76",,,,,,,,,,
land,208,608857,0.0-65.0-2.0,,null,run_exp/static/images/task_images/land.jpg,null,,,,,,102,,,8,,,,,,,,,,,,,,
dig,209,610874,0.0-65.0-3.0,,,,,,,,,,,"[{""stimulus"":""run_exp/static/images/task_images/dig.jpg"",""time"":0.5},{""stimulus"":""run_exp/static/images/task_images/land.jpg"",""time"":675.2999999523163},{""stimulus"":""run_exp/static/images/task_images/dig.jpg"",""time"":1344}]",[],8,,,,,,,,,,,,,,
harvest,210,611881,0.0-65.0-4.0,,null,run_exp/static/images/task_images/gems/102.jpg,null,,,,,,82,,,8,,,,,102,0.807799354,0.803921569,,,,,,,
decision,211,612426,0.0-65.0-5.0,,542.7,run_exp/static/images/task_images/land.jpg,65,,,,,,82,,,8,,,,,,,,279628,1,0,FALSE,,,
dig,212,614889,0.0-66.0-0.0,,,,,,,,,,,"[{""stimulus"":""run_exp/static/images/task_images/dig.jpg"",""time"":0},{""stimulus"":""run_exp/static/images/task_images/land.jpg"",""time"":832.0999999046326},{""stimulus"":""run_exp/static/images/task_images/dig.jpg"",""time"":1646.6999998092651}]",[],8,,,,,,,,,,,,,,
harvest,213,615893,0.0-66.0-1.0,,null,run_exp/static/images/task_images/gems/82.jpg,null,,,,,,50,,,8,,,,,82,0.614523438,0.609756098,,,,,,,
decision,214,615925,0.0-66.0-2.0,,31.89999986,run_exp/static/images/task_images/land.jpg,65,,,,,,50,,,8,,,,,,,,283127,1,1,FALSE,,,
dig,215,618908,0.0-67.0-0.0,,,,,,,,,,,"[{""stimulus"":""run_exp/static/images/task_images/dig.jpg"",""time"":0.10000014305114746},{""stimulus"":""run_exp/static/images/task_images/land.jpg"",""time"":994.5},{""stimulus"":""run_exp/static/images/task_images/dig.jpg"",""time"":1993.5}]",[],8,,,,,,,,,,,,,,
harvest,216,619911,0.0-67.0-1.0,,null,run_exp/static/images/task_images/gems/50.jpg,null,,,,,,38,,,8,,,,,50,0.761557992,0.76,,,,,,,
decision,217,620255,0.0-67.0-2.0,,343,run_exp/static/images/task_images/land.jpg,65,,,,,,38,,,8,,,,,,,,287457,1,2,FALSE,,,
dig,218,622917,0.0-68.0-0.0,,,,,,,,,,,"[{""stimulus"":""run_exp/static/images/task_images/dig.jpg"",""time"":0.10000014305114746},{""stimulus"":""run_exp/static/images/task_images/land.jpg"",""time"":886.9000000953674},{""stimulus"":""run_exp/static/images/task_images/dig.jpg"",""time"":1773}]",[],8,,,,,,,,,,,,,,
harvest,219,623926,0.0-68.0-1.0,,null,run_exp/static/images/task_images/gems/38.jpg,null,,,,,,28,,,8,,,,,38,0.740124661,0.736842105,,,,,,,
decision,220,624364,0.0-68.0-2.0,,436.2,run_exp/static/images/task_images/land.jpg,65,,,,,,28,,,8,,,,,,,,291566,1,3,FALSE,,,
dig,221,626939,0.0-69.0-0.0,,,,,,,,,,,"[{""stimulus"":""run_exp/static/images/task_images/dig.jpg"",""time"":0},{""stimulus"":""run_exp/static/images/task_images/land.jpg"",""time"":857.5999999046326},{""stimulus"":""run_exp/static/images/task_images/dig.jpg"",""time"":1710.2000000476837}]",[],8,,,,,,,,,,,,,,
harvest,222,627954,0.0-69.0-1.0,,null,run_exp/static/images/task_images/gems/28.jpg,null,,,,,,22,,,8,,,,,28,0.79274522,0.785714286,,,,,,,
decision,223,628922,0.0-69.0-2.0,,967.3999999,run_exp/static/images/task_images/land.jpg,65,,,,,,22,,,8,,,,,,,,296124,1,4,FALSE,,,
dig,224,630963,0.0-70.0-0.0,,,,,,,,,,,"[{""stimulus"":""run_exp/static/images/task_images/dig.jpg"",""time"":0},{""stimulus"":""run_exp/static/images/task_images/land.jpg"",""time"":682.9000000953674},{""stimulus"":""run_exp/static/images/task_images/dig.jpg"",""time"":1368.9000000953674}]",[],8,,,,,,,,,,,,,,
harvest,225,631973,0.0-70.0-1.0,,null,run_exp/static/images/task_images/gems/22.jpg,null,,,,,,18,,,8,,,,,22,0.810298968,0.818181818,,,,,,,
decision,226,632335,0.0-70.0-2.0,,360.6000001,run_exp/static/images/task_images/land.jpg,65,,,,,,18,,,8,,,,,,,,299537,1,5,FALSE,,,
dig,227,634980,0.0-71.0-0.0,,,,,,,,,,,"[{""stimulus"":""run_exp/static/images/task_images/dig.jpg"",""time"":0.10000014305114746},{""stimulus"":""run_exp/static/images/task_images/land.jpg"",""time"":884.4000000953674},{""stimulus"":""run_exp/static/images/task_images/dig.jpg"",""time"":1774.5}]",[],8,,,,,,,,,,,,,,
harvest,228,635984,0.0-71.0-1.0,,null,run_exp/static/images/task_images/gems/18.jpg,null,,,,,,15,,,8,,,,,18,0.858873514,0.833333333,,,,,,,
decision,229,636918,0.0-71.0-2.0,,932.5999999,run_exp/static/images/task_images/land.jpg,65,,,,,,15,,,8,,,,,,,,304120,1,6,TRUE,,,
end_of_block_continue,230,645093,0.0-72.0-0.0,,8173.1,run_exp/static/audio/clip_32_block_end.m4a,,,,,,0,,,,,,,,,,,,,,,,,,
alien_welcome,231,650101,0.0-73.0-0.0,,null,run_exp/static/images/task_images/aliens/old_aliens/planet/alien_planet-27.jpg,null,,,,,,,,,,,,27,"58,52,33,61,42,55,28,69,27,37,32,10,50,79,7,74,60,65,72,56,46,31,38,71,63,1,5,45,40,16,25,15,76",,,,,,,,,,
land,232,650614,0.0-73.0-1.0,,null,run_exp/static/images/task_images/land.jpg,null,,,,,,101,,,9,,,,,,,,,,,,,,
dig,233,652627,0.0-73.0-2.0,,,,,,,,,,,"[{""stimulus"":""run_exp/static/images/task_images/dig.jpg"",""time"":0.40000009536743164},{""stimulus"":""run_exp/static/images/task_images/land.jpg"",""time"":683.8000001907349},{""stimulus"":""run_exp/static/images/task_images/dig.jpg"",""time"":1337.6000001430511}]",[],9,,,,,,,,,,,,,,
harvest,234,653639,0.0-73.0-3.0,,null,run_exp/static/images/task_images/gems/101.jpg,null,,,,,,21,,,9,,,,,101,0.212844362,0.207920792,,,,,,,
decision,235,654146,0.0-73.0-4.0,,505.5,run_exp/static/images/task_images/land.jpg,65,,,,,,21,,,9,,,,,,,,9051,2,0,FALSE,,,
dig,236,656651,0.0-74.0-0.0,,,,,,,,,,,"[{""stimulus"":""run_exp/static/images/task_images/dig.jpg"",""time"":0},{""stimulus"":""run_exp/static/images/task_images/land.jpg"",""time"":847.7000000476837},{""stimulus"":""run_exp/static/images/task_images/dig.jpg"",""time"":1664}]",[],9,,,,,,,,,,,,,,
harvest,237,657668,0.0-74.0-1.0,,null,run_exp/static/images/task_images/gems/21.jpg,null,,,,,,5,,,9,,,,,21,0.253515902,0.238095238,,,,,,,
decision,238,658023,0.0-74.0-2.0,,354,run_exp/static/images/task_images/land.jpg,65,,,,,,5,,,9,,,,,,,,12928,2,1,FALSE,,,
dig,239,660678,0.0-75.0-0.0,,,,,,,,,,,"[{""stimulus"":""run_exp/static/images/task_images/dig.jpg"",""time"":0.09999990463256836},{""stimulus"":""run_exp/static/images/task_images/land.jpg"",""time"":890.2000000476837},{""stimulus"":""run_exp/static/images/task_images/dig.jpg"",""time"":1780.7999999523163}]",[],9,,,,,,,,,,,,,,
harvest,240,661690,0.0-75.0-1.0,,null,run_exp/static/images/task_images/gems/5.jpg,null,,,,,,1,,,9,,,,,5,0.207193556,0.2,,,,,,,
decision,241,661937,0.0-75.0-2.0,,244.8999999,run_exp/static/images/task_images/land.jpg,76,,,,,,1,,,9,,,,,,,,16842,2,2,TRUE,,,
travel,242,671692,0.0-76.0-0.0,,,,,,,,,,,"[{""stimulus"":""run_exp/static/images/task_images/rocket-01.jpg"",""time"":0.09999990463256836},{""stimulus"":""run_exp/static/images/task_images/rocket-02.jpg"",""time"":1094.1999998092651},{""stimulus"":""run_exp/static/images/task_images/rocket-03.jpg"",""time"":2170},{""stimulus"":""run_exp/static/images/task_images/rocket-04.jpg"",""time"":3259.5},{""stimulus"":""run_exp/static/images/task_images/rocket-05.jpg"",""time"":4334.099999904633},{""stimulus"":""run_exp/static/images/task_images/rocket-06.jpg"",""time"":5430.099999904633},{""stimulus"":""run_exp/static/images/task_images/rocket-07.jpg"",""time"":6507.199999809265},{""stimulus"":""run_exp/static/images/task_images/rocket-08.jpg"",""time"":7583.299999952316},{""stimulus"":""run_exp/static/images/task_images/rocket-09.jpg"",""time"":8675.799999952316}]",[],9,,,,,,,,,,,,,,
alien_welcome,243,676710,0.0-76.0-1.0,,null,run_exp/static/images/task_images/aliens/old_aliens/planet/alien_planet-37.jpg,null,,,,,,,,,,,,37,"58,52,33,61,42,55,28,69,27,37,32,10,50,79,7,74,60,65,72,56,46,31,38,71,63,1,5,45,40,16,25,15,76",,,,,,,,,,
land,244,677225,0.0-76.0-2.0,,null,run_exp/static/images/task_images/land.jpg,null,,,,,,96,,,10,,,,,,,,,,,,,,
dig,245,679241,0.0-76.0-3.0,,,,,,,,,,,"[{""stimulus"":""run_exp/static/images/task_images/dig.jpg"",""time"":0.09999990463256836},{""stimulus"":""run_exp/static/images/task_images/land.jpg"",""time"":672.3999998569489},{""stimulus"":""run_exp/static/images/task_images/dig.jpg"",""time"":1348}]",[],10,,,,,,,,,,,,,,
harvest,246,680254,0.0-76.0-4.0,,null,run_exp/static/images/task_images/gems/96.jpg,null,,,,,,21,,,10,,,,,96,0.216987211,0.21875,,,,,,,
decision,247,680689,0.0-76.0-5.0,,433.8000002,run_exp/static/images/task_images/land.jpg,65,,,,,,21,,,10,,,,,,,,35594,2,0,FALSE,,,
dig,248,683261,0.0-77.0-0.0,,,,,,,,,,,"[{""stimulus"":""run_exp/static/images/task_images/dig.jpg"",""time"":0.10000014305114746},{""stimulus"":""run_exp/static/images/task_images/land.jpg"",""time"":870.9000000953674},{""stimulus"":""run_exp/static/images/task_images/dig.jpg"",""time"":1714.2000000476837}]",[],10,,,,,,,,,,,,,,
harvest,249,684269,0.0-77.0-1.0,,null,run_exp/static/images/task_images/gems/21.jpg,null,,,,,,4,,,10,,,,,21,0.196249003,0.19047619,,,,,,,
decision,250,685580,0.0-77.0-2.0,,1309.9,run_exp/static/images/task_images/land.jpg,65,,,,,,4,,,10,,,,,,,,40485,2,1,FALSE,,,
dig,251,687282,0.0-78.0-0.0,,,,,,,,,,,"[{""stimulus"":""run_exp/static/images/task_images/dig.jpg"",""time"":0},{""stimulus"":""run_exp/static/images/task_images/land.jpg"",""time"":565},{""stimulus"":""run_exp/static/images/task_images/dig.jpg"",""time"":1140.6000001430511}]",[],10,,,,,,,,,,,,,,
harvest,252,688298,0.0-78.0-1.0,,null,run_exp/static/images/task_images/gems/4.jpg,null,,,,,,1,,,10,,,,,4,0.309548428,0.25,,,,,,,
decision,253,689403,0.0-78.0-2.0,,1102.2,run_exp/static/images/task_images/land.jpg,76,,,,,,1,,,10,,,,,,,,44308,2,2,TRUE,,,
travel,254,698301,0.0-79.0-0.0,,,,,,,,,,,"[{""stimulus"":""run_exp/static/images/task_images/rocket-01.jpg"",""time"":0.09999990463256836},{""stimulus"":""run_exp/static/images/task_images/rocket-02.jpg"",""time"":1004},{""stimulus"":""run_exp/static/images/task_images/rocket-03.jpg"",""time"":1986.1999998092651},{""stimulus"":""run_exp/static/images/task_images/rocket-04.jpg"",""time"":2970.5},{""stimulus"":""run_exp/static/images/task_images/rocket-05.jpg"",""time"":3955.0999999046326},{""stimulus"":""run_exp/static/images/task_images/rocket-06.jpg"",""time"":4952.899999856949},{""stimulus"":""run_exp/static/images/task_images/rocket-07.jpg"",""time"":5935.099999904633},{""stimulus"":""run_exp/static/images/task_images/rocket-08.jpg"",""time"":6918.399999856949},{""stimulus"":""run_exp/static/images/task_images/rocket-09.jpg"",""time"":7917.199999809265}]",[],10,,,,,,,,,,,,,,
alien_welcome,255,703310,0.0-79.0-1.0,,null,run_exp/static/images/task_images/aliens/old_aliens/planet/alien_planet-32.jpg,null,,,,,,,,,,,,32,"58,52,33,61,42,55,28,69,27,37,32,10,50,79,7,74,60,65,72,56,46,31,38,71,63,1,5,45,40,16,25,15,76",,,,,,,,,,
land,256,703814,0.0-79.0-2.0,,null,run_exp/static/images/task_images/land.jpg,null,,,,,,98,,,11,,,,,,,,,,,,,,
dig,257,705818,0.0-79.0-3.0,,,,,,,,,,,"[{""stimulus"":""run_exp/static/images/task_images/dig.jpg"",""time"":0.09999990463256836},{""stimulus"":""run_exp/static/images/task_images/land.jpg"",""time"":671.9000000953674},{""stimulus"":""run_exp/static/images/task_images/dig.jpg"",""time"":1345.0999999046326}]",[],11,,,,,,,,,,,,,,
harvest,258,706834,0.0-79.0-4.0,,null,run_exp/static/images/task_images/gems/98.jpg,null,,,,,,16,,,11,,,,,98,0.166075021,0.163265306,,,,,,,
decision,259,707229,0.0-79.0-5.0,,394.9000001,run_exp/static/images/task_images/land.jpg,65,,,,,,16,,,11,,,,,,,,62135,2,0,FALSE,,,
dig,260,709848,0.0-80.0-0.0,,,,,,,,,,,"[{""stimulus"":""run_exp/static/images/task_images/dig.jpg"",""time"":0.10000014305114746},{""stimulus"":""run_exp/static/images/task_images/land.jpg"",""time"":879},{""stimulus"":""run_exp/static/images/task_images/dig.jpg"",""time"":1753}]",[],11,,,,,,,,,,,,,,
harvest,261,710861,0.0-80.0-1.0,,null,run_exp/static/images/task_images/gems/16.jpg,null,,,,,,3,,,11,,,,,16,0.21363982,0.1875,,,,,,,
decision,262,712026,0.0-80.0-2.0,,1163,run_exp/static/images/task_images/land.jpg,76,,,,,,3,,,11,,,,,,,,66931,2,1,TRUE,,,
travel,263,720862,0.0-81.0-0.0,,,,,,,,,,,"[{""stimulus"":""run_exp/static/images/task_images/rocket-01.jpg"",""time"":0.09999990463256836},{""stimulus"":""run_exp/static/images/task_images/rocket-02.jpg"",""time"":984.5999999046326},{""stimulus"":""run_exp/static/images/task_images/rocket-03.jpg"",""time"":1976.5},{""stimulus"":""run_exp/static/images/task_images/rocket-04.jpg"",""time"":2959.2999999523163},{""stimulus"":""run_exp/static/images/task_images/rocket-05.jpg"",""time"":3928},{""stimulus"":""run_exp/static/images/task_images/rocket-06.jpg"",""time"":4908.5},{""stimulus"":""run_exp/static/images/task_images/rocket-07.jpg"",""time"":5887.899999856949},{""stimulus"":""run_exp/static/images/task_images/rocket-08.jpg"",""time"":6882.399999856949},{""stimulus"":""run_exp/static/images/task_images/rocket-09.jpg"",""time"":7851.5}]",[],11,,,,,,,,,,,,,,
alien_welcome,264,725876,0.0-81.0-1.0,,null,run_exp/static/images/task_images/aliens/old_aliens/planet/alien_planet-10.jpg,null,,,,,,,,,,,,10,"58,52,33,61,42,55,28,69,27,37,32,10,50,79,7,74,60,65,72,56,46,31,38,71,63,1,5,45,40,16,25,15,76",,,,,,,,,,
land,265,726388,0.0-81.0-2.0,,null,run_exp/static/images/task_images/land.jpg,null,,,,,,106,,,12,,,,,,,,,,,,,,
dig,266,728401,0.0-81.0-3.0,,,,,,,,,,,"[{""stimulus"":""run_exp/static/images/task_images/dig.jpg"",""time"":0.2999999523162842},{""stimulus"":""run_exp/static/images/task_images/land.jpg"",""time"":672.7999999523163},{""stimulus"":""run_exp/static/images/task_images/dig.jpg"",""time"":1343}]",[],12,,,,,,,,,,,,,,
harvest,267,729413,0.0-81.0-4.0,,null,run_exp/static/images/task_images/gems/106.jpg,null,,,,,,84,,,12,,,,,106,0.791695826,0.79245283,,,,,,,
decision,268,729809,0.0-81.0-5.0,,394.3999999,run_exp/static/images/task_images/land.jpg,65,,,,,,84,,,12,,,,,,,,84714,2,0,FALSE,,,
dig,269,732422,0.0-82.0-0.0,,,,,,,,,,,"[{""stimulus"":""run_exp/static/images/task_images/dig.jpg"",""time"":0.09999990463256836},{""stimulus"":""run_exp/static/images/task_images/land.jpg"",""time"":877.9000000953674},{""stimulus"":""run_exp/static/images/task_images/dig.jpg"",""time"":1752.7999999523163}]",[],12,,,,,,,,,,,,,,
harvest,270,733435,0.0-82.0-1.0,,null,run_exp/static/images/task_images/gems/84.jpg,null,,,,,,73,,,12,,,,,84,0.863193992,0.869047619,,,,,,,
decision,271,733824,0.0-82.0-2.0,,388.3,run_exp/static/images/task_images/land.jpg,65,,,,,,73,,,12,,,,,,,,88729,2,1,FALSE,,,
dig,272,736438,0.0-83.0-0.0,,,,,,,,,,,"[{""stimulus"":""run_exp/static/images/task_images/dig.jpg"",""time"":0},{""stimulus"":""run_exp/static/images/task_images/land.jpg"",""time"":871.0999999046326},{""stimulus"":""run_exp/static/images/task_images/dig.jpg"",""time"":1742.7000000476837}]",[],12,,,,,,,,,,,,,,
harvest,273,737452,0.0-83.0-1.0,,null,run_exp/static/images/task_images/gems/73.jpg,null,,,,,,59,,,12,,,,,73,0.810206811,0.808219178,,,,,,,
decision,274,737876,0.0-83.0-2.0,,421.6000001,run_exp/static/images/task_images/land.jpg,65,,,,,,59,,,12,,,,,,,,92781,2,2,FALSE,,,
dig,275,740463,0.0-84.0-0.0,,,,,,,,,,,"[{""stimulus"":""run_exp/static/images/task_images/dig.jpg"",""time"":0.09999990463256836},{""stimulus"":""run_exp/static/images/task_images/land.jpg"",""time"":871.7999999523163},{""stimulus"":""run_exp/static/images/task_images/dig.jpg"",""time"":1730}]",[],12,,,,,,,,,,,,,,
harvest,276,741470,0.0-84.0-1.0,,null,run_exp/static/images/task_images/gems/59.jpg,null,,,,,,49,,,12,,,,,59,0.83490694,0.830508475,,,,,,,
decision,277,741937,0.0-84.0-2.0,,465.3,run_exp/static/images/task_images/land.jpg,65,,,,,,49,,,12,,,,,,,,96842,2,3,FALSE,,,
dig,278,744480,0.0-85.0-0.0,,,,,,,,,,,"[{""stimulus"":""run_exp/static/images/task_images/dig.jpg"",""time"":0.10000014305114746},{""stimulus"":""run_exp/static/images/task_images/land.jpg"",""time"":855.6000001430511},{""stimulus"":""run_exp/static/images/task_images/dig.jpg"",""time"":1696.2999999523163}]",[],12,,,,,,,,,,,,,,
harvest,279,745492,0.0-85.0-1.0,,null,run_exp/static/images/task_images/gems/49.jpg,null,,,,,,46,,,12,,,,,49,0.935202975,0.93877551,,,,,,,
decision,280,745839,0.0-85.0-2.0,,345.5999999,run_exp/static/images/task_images/land.jpg,65,,,,,,46,,,12,,,,,,,,100744,2,4,FALSE,,,
dig,281,748506,0.0-86.0-0.0,,,,,,,,,,,"[{""stimulus"":""run_exp/static/images/task_images/dig.jpg"",""time"":0},{""stimulus"":""run_exp/static/images/task_images/land.jpg"",""time"":885.1000001430511},{""stimulus"":""run_exp/static/images/task_images/dig.jpg"",""time"":1773.9000000953674}]",[],12,,,,,,,,,,,,,,
harvest,282,749514,0.0-86.0-1.0,,null,run_exp/static/images/task_images/gems/46.jpg,null,,,,,,40,,,12,,,,,46,0.867612594,0.869565217,,,,,,,
decision,283,749993,0.0-86.0-2.0,,477.7,run_exp/static/images/task_images/land.jpg,65,,,,,,40,,,12,,,,,,,,104899,2,5,FALSE,,,
dig,284,752524,0.0-87.0-0.0,,,,,,,,,,,"[{""stimulus"":""run_exp/static/images/task_images/dig.jpg"",""time"":0},{""stimulus"":""run_exp/static/images/task_images/land.jpg"",""time"":843.0999999046326},{""stimulus"":""run_exp/static/images/task_images/dig.jpg"",""time"":1685.2999999523163}]",[],12,,,,,,,,,,,,,,
harvest,285,753540,0.0-87.0-1.0,,null,run_exp/static/images/task_images/gems/40.jpg,null,,,,,,32,,,12,,,,,40,0.808433539,0.8,,,,,,,
decision,286,753963,0.0-87.0-2.0,,422.1000001,run_exp/static/images/task_images/land.jpg,65,,,,,,32,,,12,,,,,,,,108868,2,6,FALSE,,,
dig,287,756547,0.0-88.0-0.0,,,,,,,,,,,"[{""stimulus"":""run_exp/static/images/task_images/dig.jpg"",""time"":0},{""stimulus"":""run_exp/static/images/task_images/land.jpg"",""time"":864.5999999046326},{""stimulus"":""run_exp/static/images/task_images/dig.jpg"",""time"":1725.6999998092651}]",[],12,,,,,,,,,,,,,,
harvest,288,757561,0.0-88.0-1.0,,null,run_exp/static/images/task_images/gems/32.jpg,null,,,,,,23,,,12,,,,,32,0.729972604,0.71875,,,,,,,
decision,289,757934,0.0-88.0-2.0,,372.5999999,run_exp/static/images/task_images/land.jpg,65,,,,,,23,,,12,,,,,,,,112839,2,7,FALSE,,,
dig,290,760574,0.0-89.0-0.0,,,,,,,,,,,"[{""stimulus"":""run_exp/static/images/task_images/dig.jpg"",""time"":0},{""stimulus"":""run_exp/static/images/task_images/land.jpg"",""time"":886.0999999046326},{""stimulus"":""run_exp/static/images/task_images/dig.jpg"",""time"":1761.2999999523163}]",[],12,,,,,,,,,,,,,,
harvest,291,761589,0.0-89.0-1.0,,null,run_exp/static/images/task_images/gems/23.jpg,null,,,,,,19,,,12,,,,,23,0.816670564,0.826086957,,,,,,,
decision,292,761651,0.0-89.0-2.0,,61.20000005,run_exp/static/images/task_images/land.jpg,65,,,,,,19,,,12,,,,,,,,116556,2,8,FALSE,,,
dig,293,764603,0.0-90.0-0.0,,,,,,,,,,,"[{""stimulus"":""run_exp/static/images/task_images/dig.jpg"",""time"":0.09999990463256836},{""stimulus"":""run_exp/static/images/task_images/land.jpg"",""time"":987.7999999523163},{""stimulus"":""run_exp/static/images/task_images/dig.jpg"",""time"":1968.5999999046326}]",[],12,,,,,,,,,,,,,,
harvest,294,765617,0.0-90.0-1.0,,null,run_exp/static/images/task_images/gems/19.jpg,null,,,,,,16,,,12,,,,,19,0.820617764,0.842105263,,,,,,,
decision,295,765630,0.0-90.0-2.0,,11.29999995,run_exp/static/images/task_images/land.jpg,65,,,,,,16,,,12,,,,,,,,120535,2,9,FALSE,,,
dig,296,768628,0.0-91.0-0.0,,,,,,,,,,,"[{""stimulus"":""run_exp/static/images/task_images/dig.jpg"",""time"":0},{""stimulus"":""run_exp/static/images/task_images/land.jpg"",""time"":998.5},{""stimulus"":""run_exp/static/images/task_images/dig.jpg"",""time"":1998.2999999523163}]",[],12,,,,,,,,,,,,,,
harvest,297,769640,0.0-91.0-1.0,,null,run_exp/static/images/task_images/gems/16.jpg,null,,,,,,13,,,12,,,,,16,0.795495469,0.8125,,,,,,,
decision,298,769761,0.0-91.0-2.0,,119.1000001,run_exp/static/images/task_images/land.jpg,65,,,,,,13,,,12,,,,,,,,124666,2,10,FALSE,,,
dig,299,772649,0.0-92.0-0.0,,,,,,,,,,,"[{""stimulus"":""run_exp/static/images/task_images/dig.jpg"",""time"":0},{""stimulus"":""run_exp/static/images/task_images/land.jpg"",""time"":967.8000001907349},{""stimulus"":""run_exp/static/images/task_images/dig.jpg"",""time"":1922}]",[],12,,,,,,,,,,,,,,
harvest,300,773663,0.0-92.0-1.0,,null,run_exp/static/images/task_images/gems/13.jpg,null,,,,,,11,,,12,,,,,13,0.84678418,0.846153846,,,,,,,
decision,301,774298,0.0-92.0-2.0,,633.3,run_exp/static/images/task_images/land.jpg,76,,,,,,11,,,12,,,,,,,,129203,2,11,TRUE,,,
travel,302,783675,0.0-93.0-0.0,,,,,,,,,,,"[{""stimulus"":""run_exp/static/images/task_images/rocket-01.jpg"",""time"":0.09999990463256836},{""stimulus"":""run_exp/static/images/task_images/rocket-02.jpg"",""time"":1043.7000000476837},{""stimulus"":""run_exp/static/images/task_images/rocket-03.jpg"",""time"":2094.2000000476837},{""stimulus"":""run_exp/static/images/task_images/rocket-04.jpg"",""time"":3124.5999999046326},{""stimulus"":""run_exp/static/images/task_images/rocket-05.jpg"",""time"":4173.099999904633},{""stimulus"":""run_exp/static/images/task_images/rocket-06.jpg"",""time"":5216.299999952316},{""stimulus"":""run_exp/static/images/task_images/rocket-07.jpg"",""time"":6245.299999952316},{""stimulus"":""run_exp/static/images/task_images/rocket-08.jpg"",""time"":7290.099999904633},{""stimulus"":""run_exp/static/images/task_images/rocket-09.jpg"",""time"":8334.299999952316}]",[],12,,,,,,,,,,,,,,
alien_welcome,303,788681,0.0-93.0-1.0,,null,run_exp/static/images/task_images/aliens/old_aliens/planet/alien_planet-50.jpg,null,,,,,,,,,,,,50,"58,52,33,61,42,55,28,69,27,37,32,10,50,79,7,74,60,65,72,56,46,31,38,71,63,1,5,45,40,16,25,15,76",,,,,,,,,,
land,304,789197,0.0-93.0-2.0,,null,run_exp/static/images/task_images/land.jpg,null,,,,,,101,,,13,,,,,,,,,,,,,,
dig,305,791206,0.0-93.0-3.0,,,,,,,,,,,"[{""stimulus"":""run_exp/static/images/task_images/dig.jpg"",""time"":0.39999985694885254},{""stimulus"":""run_exp/static/images/task_images/land.jpg"",""time"":683.7999999523163},{""stimulus"":""run_exp/static/images/task_images/dig.jpg"",""time"":1337.0999999046326}]",[],13,,,,,,,,,,,,,,
harvest,306,792222,0.0-93.0-4.0,,null,run_exp/static/images/task_images/gems/101.jpg,null,,,,,,88,,,13,,,,,101,0.869181243,0.871287129,,,,,,,
decision,307,792666,0.0-93.0-5.0,,442.3000002,run_exp/static/images/task_images/land.jpg,65,,,,,,88,,,13,,,,,,,,147571,2,0,FALSE,,,
dig,308,795239,0.0-94.0-0.0,,,,,,,,,,,"[{""stimulus"":""run_exp/static/images/task_images/dig.jpg"",""time"":0.09999990463256836},{""stimulus"":""run_exp/static/images/task_images/land.jpg"",""time"":860},{""stimulus"":""run_exp/static/images/task_images/dig.jpg"",""time"":1716.2999999523163}]",[],13,,,,,,,,,,,,,,
harvest,309,796250,0.0-94.0-1.0,,null,run_exp/static/images/task_images/gems/88.jpg,null,,,,,,72,,,13,,,,,88,0.819915206,0.818181818,,,,,,,
decision,310,796731,0.0-94.0-2.0,,479.8,run_exp/static/images/task_images/land.jpg,65,,,,,,72,,,13,,,,,,,,151636,2,1,FALSE,,,
dig,311,799255,0.0-95.0-0.0,,,,,,,,,,,"[{""stimulus"":""run_exp/static/images/task_images/dig.jpg"",""time"":0.10000014305114746},{""stimulus"":""run_exp/static/images/task_images/land.jpg"",""time"":842},{""stimulus"":""run_exp/static/images/task_images/dig.jpg"",""time"":1681}]",[],13,,,,,,,,,,,,,,
harvest,312,800269,0.0-95.0-1.0,,null,run_exp/static/images/task_images/gems/72.jpg,null,,,,,,62,,,13,,,,,72,0.858379489,0.861111111,,,,,,,
decision,313,800686,0.0-95.0-2.0,,416.2,run_exp/static/images/task_images/land.jpg,65,,,,,,62,,,13,,,,,,,,155591,2,2,FALSE,,,
dig,314,803280,0.0-96.0-0.0,,,,,,,,,,,"[{""stimulus"":""run_exp/static/images/task_images/dig.jpg"",""time"":0.20000004768371582},{""stimulus"":""run_exp/static/images/task_images/land.jpg"",""time"":870.5},{""stimulus"":""run_exp/static/images/task_images/dig.jpg"",""time"":1733.2000000476837}]",[],13,,,,,,,,,,,,,,
harvest,315,804296,0.0-96.0-1.0,,null,run_exp/static/images/task_images/gems/62.jpg,null,,,,,,53,,,13,,,,,62,0.853352044,0.85483871,,,,,,,
decision,316,804659,0.0-96.0-2.0,,362.0999999,run_exp/static/images/task_images/land.jpg,65,,,,,,53,,,13,,,,,,,,159564,2,3,FALSE,,,
dig,317,807303,0.0-97.0-0.0,,,,,,,,,,,"[{""stimulus"":""run_exp/static/images/task_images/dig.jpg"",""time"":0},{""stimulus"":""run_exp/static/images/task_images/land.jpg"",""time"":894.0999999046326},{""stimulus"":""run_exp/static/images/task_images/dig.jpg"",""time"":1764.8999998569489}]",[],13,,,,,,,,,,,,,,
harvest,318,808314,0.0-97.0-1.0,,null,run_exp/static/images/task_images/gems/53.jpg,null,,,,,,45,,,13,,,,,53,0.853677674,0.849056604,,,,,,,
decision,319,809035,0.0-97.0-2.0,,721.1000001,run_exp/static/images/task_images/land.jpg,65,,,,,,45,,,13,,,,,,,,163941,2,4,FALSE,,,
dig,320,811330,0.0-98.0-0.0,,,,,,,,,,,"[{""stimulus"":""run_exp/static/images/task_images/dig.jpg"",""time"":0},{""stimulus"":""run_exp/static/images/task_images/land.jpg"",""time"":761.2999999523163},{""stimulus"":""run_exp/static/images/task_images/dig.jpg"",""time"":1526.6999998092651}]",[],13,,,,,,,,,,,,,,
harvest,321,812345,0.0-98.0-1.0,,null,run_exp/static/images/task_images/gems/45.jpg,null,,,,,,39,,,13,,,,,45,0.876979822,0.866666667,,,,,,,
decision,322,813739,0.0-98.0-2.0,,1391.5,run_exp/static/images/task_images/land.jpg,65,,,,,,39,,,13,,,,,,,,168644,2,5,FALSE,,,
dig,323,815362,0.0-99.0-0.0,,,,,,,,,,,"[{""stimulus"":""run_exp/static/images/task_images/dig.jpg"",""time"":0.09999990463256836},{""stimulus"":""run_exp/static/images/task_images/land.jpg"",""time"":537},{""stimulus"":""run_exp/static/images/task_images/dig.jpg"",""time"":1073.2000000476837}]",[],13,,,,,,,,,,,,,,
harvest,324,816378,0.0-99.0-1.0,,null,run_exp/static/images/task_images/gems/39.jpg,null,,,,,,33,,,13,,,,,39,0.856274485,0.846153846,,,,,,,
decision,325,816776,0.0-99.0-2.0,,396.8000002,run_exp/static/images/task_images/land.jpg,65,,,,,,33,,,13,,,,,,,,171682,2,6,FALSE,,,
dig,326,819394,0.0-100.0-0.0,,,,,,,,,,,"[{""stimulus"":""run_exp/static/images/task_images/dig.jpg"",""time"":0.09999990463256836},{""stimulus"":""run_exp/static/images/task_images/land.jpg"",""time"":881.9000000953674},{""stimulus"":""run_exp/static/images/task_images/dig.jpg"",""time"":1740.2999999523163}]",[],13,,,,,,,,,,,,,,
harvest,327,820409,0.0-100.0-1.0,,null,run_exp/static/images/task_images/gems/33.jpg,null,,,,,,23,,,13,,,,,33,0.694449364,0.696969697,,,,,,,
decision,328,820619,0.0-100.0-2.0,,208,run_exp/static/images/task_images/land.jpg,65,,,,,,23,,,13,,,,,,,,175524,2,7,FALSE,,,
dig,329,823424,0.0-101.0-0.0,,,,,,,,,,,"[{""stimulus"":""run_exp/static/images/task_images/dig.jpg"",""time"":0.09999990463256836},{""stimulus"":""run_exp/static/images/task_images/land.jpg"",""time"":942.4000000953674},{""stimulus"":""run_exp/static/images/task_images/dig.jpg"",""time"":1863.5}]",[],13,,,,,,,,,,,,,,
harvest,330,824435,0.0-101.0-1.0,,null,run_exp/static/images/task_images/gems/23.jpg,null,,,,,,20,,,13,,,,,23,0.856665305,0.869565217,,,,,,,
decision,331,825116,0.0-101.0-2.0,,679.3,run_exp/static/images/task_images/land.jpg,65,,,,,,20,,,13,,,,,,,,180021,2,8,FALSE,,,
dig,332,827449,0.0-102.0-0.0,,,,,,,,,,,"[{""stimulus"":""run_exp/static/images/task_images/dig.jpg"",""time"":0.10000014305114746},{""stimulus"":""run_exp/static/images/task_images/land.jpg"",""time"":785.4000000953674},{""stimulus"":""run_exp/static/images/task_images/dig.jpg"",""time"":1551.2000000476837}]",[],13,,,,,,,,,,,,,,
harvest,333,828463,0.0-102.0-1.0,,null,run_exp/static/images/task_images/gems/20.jpg,null,,,,,,15,,,13,,,,,20,0.752159245,0.75,,,,,,,
decision,334,829295,0.0-102.0-2.0,,830.5999999,run_exp/static/images/task_images/land.jpg,65,,,,,,15,,,13,,,,,,,,184200,2,9,FALSE,,,
dig,335,831476,0.0-103.0-0.0,,,,,,,,,,,"[{""stimulus"":""run_exp/static/images/task_images/dig.jpg"",""time"":0},{""stimulus"":""run_exp/static/images/task_images/land.jpg"",""time"":729.1999998092651},{""stimulus"":""run_exp/static/images/task_images/dig.jpg"",""time"":1462.5999999046326}]",[],13,,,,,,,,,,,,,,
harvest,336,832486,0.0-103.0-1.0,,null,run_exp/static/images/task_images/gems/15.jpg,null,,,,,,12,,,13,,,,,15,0.803915025,0.8,,,,,,,
decision,337,833673,0.0-103.0-2.0,,1186.3,run_exp/static/images/task_images/land.jpg,76,,,,,,12,,,13,,,,,,,,188578,2,10,TRUE,,,
travel,338,842501,0.0-104.0-0.0,,,,,,,,,,,"[{""stimulus"":""run_exp/static/images/task_images/rocket-01.jpg"",""time"":0},{""stimulus"":""run_exp/static/images/task_images/rocket-02.jpg"",""time"":980.2000000476837},{""stimulus"":""run_exp/static/images/task_images/rocket-03.jpg"",""time"":1964.3999998569489},{""stimulus"":""run_exp/static/images/task_images/rocket-04.jpg"",""time"":2949},{""stimulus"":""run_exp/static/images/task_images/rocket-05.jpg"",""time"":3931.2999999523163},{""stimulus"":""run_exp/static/images/task_images/rocket-06.jpg"",""time"":4897.099999904633},{""stimulus"":""run_exp/static/images/task_images/rocket-07.jpg"",""time"":5876.399999856949},{""stimulus"":""run_exp/static/images/task_images/rocket-08.jpg"",""time"":6857.399999856949},{""stimulus"":""run_exp/static/images/task_images/rocket-09.jpg"",""time"":7842.899999856949}]",[],13,,,,,,,,,,,,,,
alien_welcome,339,847512,0.0-104.0-1.0,,null,run_exp/static/images/task_images/aliens/old_aliens/planet/alien_planet-79.jpg,null,,,,,,,,,,,,79,"58,52,33,61,42,55,28,69,27,37,32,10,50,79,7,74,60,65,72,56,46,31,38,71,63,1,5,45,40,16,25,15,76",,,,,,,,,,
land,340,848025,0.0-104.0-2.0,,null,run_exp/static/images/task_images/land.jpg,null,,,,,,91,,,14,,,,,,,,,,,,,,
dig,341,850035,0.0-104.0-3.0,,,,,,,,,,,"[{""stimulus"":""run_exp/static/images/task_images/dig.jpg"",""time"":0.2999999523162842},{""stimulus"":""run_exp/static/images/task_images/land.jpg"",""time"":681.5},{""stimulus"":""run_exp/static/images/task_images/dig.jpg"",""time"":1336.7000000476837}]",[],14,,,,,,,,,,,,,,
harvest,342,851046,0.0-104.0-4.0,,null,run_exp/static/images/task_images/gems/91.jpg,null,,,,,,81,,,14,,,,,91,0.886154916,0.89010989,,,,,,,
decision,343,851683,0.0-104.0-5.0,,635.3,run_exp/static/images/task_images/land.jpg,65,,,,,,81,,,14,,,,,,,,206588,2,0,FALSE,,,
dig,344,854054,0.0-105.0-0.0,,,,,,,,,,,"[{""stimulus"":""run_exp/static/images/task_images/dig.jpg"",""time"":0.09999990463256836},{""stimulus"":""run_exp/static/images/task_images/land.jpg"",""time"":797.5},{""stimulus"":""run_exp/static/images/task_images/dig.jpg"",""time"":1577.0999999046326}]",[],14,,,,,,,,,,,,,,
harvest,345,855065,0.0-105.0-1.0,,null,run_exp/static/images/task_images/gems/81.jpg,null,,,,,,68,,,14,,,,,81,0.842618886,0.839506173,,,,,,,
decision,346,855443,0.0-105.0-2.0,,377.1000001,run_exp/static/images/task_images/land.jpg,65,,,,,,68,,,14,,,,,,,,210348,2,1,FALSE,,,
dig,347,858077,0.0-106.0-0.0,,,,,,,,,,,"[{""stimulus"":""run_exp/static/images/task_images/dig.jpg"",""time"":0},{""stimulus"":""run_exp/static/images/task_images/land.jpg"",""time"":881.2999999523163},{""stimulus"":""run_exp/static/images/task_images/dig.jpg"",""time"":1757.2999999523163}]",[],14,,,,,,,,,,,,,,
harvest,348,859093,0.0-106.0-1.0,,null,run_exp/static/images/task_images/gems/68.jpg,null,,,,,,58,,,14,,,,,68,0.856279469,0.852941176,,,,,,,
decision,349,859488,0.0-106.0-2.0,,395.2,run_exp/static/images/task_images/land.jpg,65,,,,,,58,,,14,,,,,,,,214394,2,2,FALSE,,,
dig,350,862105,0.0-107.0-0.0,,,,,,,,,,,"[{""stimulus"":""run_exp/static/images/task_images/dig.jpg"",""time"":0},{""stimulus"":""run_exp/static/images/task_images/land.jpg"",""time"":869.4000000953674},{""stimulus"":""run_exp/static/images/task_images/dig.jpg"",""time"":1742.0999999046326}]",[],14,,,,,,,,,,,,,,
harvest,351,863113,0.0-107.0-1.0,,null,run_exp/static/images/task_images/gems/58.jpg,null,,,,,,47,,,14,,,,,58,0.804389979,0.810344828,,,,,,,
decision,352,863432,0.0-107.0-2.0,,318,run_exp/static/images/task_images/land.jpg,65,,,,,,47,,,14,,,,,,,,218337,2,3,FALSE,,,
dig,353,866123,0.0-108.0-0.0,,,,,,,,,,,"[{""stimulus"":""run_exp/static/images/task_images/dig.jpg"",""time"":0.09999990463256836},{""stimulus"":""run_exp/static/images/task_images/land.jpg"",""time"":898.8999998569489},{""stimulus"":""run_exp/static/images/task_images/dig.jpg"",""time"":1799.7000000476837}]",[],14,,,,,,,,,,,,,,
harvest,354,867137,0.0-108.0-1.0,,null,run_exp/static/images/task_images/gems/47.jpg,null,,,,,,36,,,14,,,,,47,0.761449373,0.765957447,,,,,,,
decision,355,867499,0.0-108.0-2.0,,360.6000001,run_exp/static/images/task_images/land.jpg,65,,,,,,36,,,14,,,,,,,,222404,2,4,FALSE,,,
dig,356,870145,0.0-109.0-0.0,,,,,,,,,,,"[{""stimulus"":""run_exp/static/images/task_images/dig.jpg"",""time"":0},{""stimulus"":""run_exp/static/images/task_images/land.jpg"",""time"":881.7999999523163},{""stimulus"":""run_exp/static/images/task_images/dig.jpg"",""time"":1770.5999999046326}]",[],14,,,,,,,,,,,,,,
harvest,357,871158,0.0-109.0-1.0,,null,run_exp/static/images/task_images/gems/36.jpg,null,,,,,,28,,,14,,,,,36,0.788150955,0.777777778,,,,,,,
decision,358,871568,0.0-109.0-2.0,,407.7,run_exp/static/images/task_images/land.jpg,65,,,,,,28,,,14,,,,,,,,226473,2,5,FALSE,,,
dig,359,874171,0.0-110.0-0.0,,,,,,,,,,,"[{""stimulus"":""run_exp/static/images/task_images/dig.jpg"",""time"":0.09999990463256836},{""stimulus"":""run_exp/static/images/task_images/land.jpg"",""time"":865.9000000953674},{""stimulus"":""run_exp/static/images/task_images/dig.jpg"",""time"":1741.5999999046326}]",[],14,,,,,,,,,,,,,,
harvest,360,875173,0.0-110.0-1.0,,null,run_exp/static/images/task_images/gems/28.jpg,null,,,,,,21,,,14,,,,,28,0.755726396,0.75,,,,,,,
decision,361,875557,0.0-110.0-2.0,,382.8999999,run_exp/static/images/task_images/land.jpg,65,,,,,,21,,,14,,,,,,,,230462,2,6,FALSE,,,
dig,362,878183,0.0-111.0-0.0,,,,,,,,,,,"[{""stimulus"":""run_exp/static/images/task_images/dig.jpg"",""time"":0.20000004768371582},{""stimulus"":""run_exp/static/images/task_images/land.jpg"",""time"":880.2999999523163},{""stimulus"":""run_exp/static/images/task_images/dig.jpg"",""time"":1749.9000000953674}]",[],14,,,,,,,,,,,,,,
harvest,363,879198,0.0-111.0-1.0,,null,run_exp/static/images/task_images/gems/21.jpg,null,,,,,,17,,,14,,,,,21,0.789663508,0.80952381,,,,,,,
decision,364,879506,0.0-111.0-2.0,,307.1999998,run_exp/static/images/task_images/land.jpg,65,,,,,,17,,,14,,,,,,,,234411,2,7,FALSE,,,
dig,365,882215,0.0-112.0-0.0,,,,,,,,,,,"[{""stimulus"":""run_exp/static/images/task_images/dig.jpg"",""time"":0.10000014305114746},{""stimulus"":""run_exp/static/images/task_images/land.jpg"",""time"":912.9000000953674},{""stimulus"":""run_exp/static/images/task_images/dig.jpg"",""time"":1801.1000001430511}]",[],14,,,,,,,,,,,,,,
harvest,366,883219,0.0-112.0-1.0,,null,run_exp/static/images/task_images/gems/17.jpg,null,,,,,,13,,,14,,,,,17,0.766290477,0.764705882,,,,,,,
decision,367,883789,0.0-112.0-2.0,,568.1000001,run_exp/static/images/task_images/land.jpg,76,,,,,,13,,,14,,,,,,,,238694,2,8,TRUE,,,
travel,368,893226,0.0-113.0-0.0,,,,,,,,,,,"[{""stimulus"":""run_exp/static/images/task_images/rocket-01.jpg"",""time"":0},{""stimulus"":""run_exp/static/images/task_images/rocket-02.jpg"",""time"":1060.2000000476837},{""stimulus"":""run_exp/static/images/task_images/rocket-03.jpg"",""time"":2095},{""stimulus"":""run_exp/static/images/task_images/rocket-04.jpg"",""time"":3153.5},{""stimulus"":""run_exp/static/images/task_images/rocket-05.jpg"",""time"":4194.300000190735},{""stimulus"":""run_exp/static/images/task_images/rocket-06.jpg"",""time"":5239.600000143051},{""stimulus"":""run_exp/static/images/task_images/rocket-07.jpg"",""time"":6283.100000143051},{""stimulus"":""run_exp/static/images/task_images/rocket-08.jpg"",""time"":7330.900000095367},{""stimulus"":""run_exp/static/images/task_images/rocket-09.jpg"",""time"":8390.800000190735}]",[],14,,,,,,,,,,,,,,
alien_welcome,369,898240,0.0-113.0-1.0,,null,run_exp/static/images/task_images/aliens/old_aliens/planet/alien_planet-7.jpg,null,,,,,,,,,,,,7,"58,52,33,61,42,55,28,69,27,37,32,10,50,79,7,74,60,65,72,56,46,31,38,71,63,1,5,45,40,16,25,15,76",,,,,,,,,,
land,370,898754,0.0-113.0-2.0,,null,run_exp/static/images/task_images/land.jpg,null,,,,,,101,,,15,,,,,,,,,,,,,,
dig,371,900768,0.0-113.0-3.0,,,,,,,,,,,"[{""stimulus"":""run_exp/static/images/task_images/dig.jpg"",""time"":0.5},{""stimulus"":""run_exp/static/images/task_images/land.jpg"",""time"":683.8999998569489},{""stimulus"":""run_exp/static/images/task_images/dig.jpg"",""time"":1342.1999998092651}]",[],15,,,,,,,,,,,,,,
harvest,372,901780,0.0-113.0-4.0,,null,run_exp/static/images/task_images/gems/101.jpg,null,,,,,,87,,,15,,,,,101,0.862024849,0.861386139,,,,,,,
decision,373,902609,0.0-113.0-5.0,,827.8,run_exp/static/images/task_images/land.jpg,65,,,,,,87,,,15,,,,,,,,257514,2,0,FALSE,,,
dig,374,904795,0.0-114.0-0.0,,,,,,,,,,,"[{""stimulus"":""run_exp/static/images/task_images/dig.jpg"",""time"":0.10000014305114746},{""stimulus"":""run_exp/static/images/task_images/land.jpg"",""time"":731.1000001430511},{""stimulus"":""run_exp/static/images/task_images/dig.jpg"",""time"":1449.9000000953674}]",[],15,,,,,,,,,,,,,,
harvest,375,905811,0.0-114.0-1.0,,null,run_exp/static/images/task_images/gems/87.jpg,null,,,,,,65,,,15,,,,,87,0.748502917,0.747126437,,,,,,,
decision,376,906461,0.0-114.0-2.0,,648.2,run_exp/static/images/task_images/land.jpg,65,,,,,,65,,,15,,,,,,,,261366,2,1,FALSE,,,
dig,377,908823,0.0-115.0-0.0,,,,,,,,,,,"[{""stimulus"":""run_exp/static/images/task_images/dig.jpg"",""time"":0},{""stimulus"":""run_exp/static/images/task_images/land.jpg"",""time"":797.4000000953674},{""stimulus"":""run_exp/static/images/task_images/dig.jpg"",""time"":1577.9000000953674}]",[],15,,,,,,,,,,,,,,
harvest,378,909839,0.0-115.0-1.0,,null,run_exp/static/images/task_images/gems/65.jpg,null,,,,,,55,,,15,,,,,65,0.845738387,0.846153846,,,,,,,
decision,379,910215,0.0-115.0-2.0,,375.2,run_exp/static/images/task_images/land.jpg,65,,,,,,55,,,15,,,,,,,,265120,2,2,FALSE,,,
dig,380,912850,0.0-116.0-0.0,,,,,,,,,,,"[{""stimulus"":""run_exp/static/images/task_images/dig.jpg"",""time"":0},{""stimulus"":""run_exp/static/images/task_images/land.jpg"",""time"":887.5999999046326},{""stimulus"":""run_exp/static/images/task_images/dig.jpg"",""time"":1762.7999999523163}]",[],15,,,,,,,,,,,,,,
harvest,381,913856,0.0-116.0-1.0,,null,run_exp/static/images/task_images/gems/55.jpg,null,,,,,,45,,,15,,,,,55,0.822788277,0.818181818,,,,,,,
decision,382,914289,0.0-116.0-2.0,,432.6999998,run_exp/static/images/task_images/land.jpg,65,,,,,,45,,,15,,,,,,,,269194,2,3,FALSE,,,
dig,383,916872,0.0-117.0-0.0,,,,,,,,,,,"[{""stimulus"":""run_exp/static/images/task_images/dig.jpg"",""time"":0.09999990463256836},{""stimulus"":""run_exp/static/images/task_images/land.jpg"",""time"":862.2000000476837},{""stimulus"":""run_exp/static/images/task_images/dig.jpg"",""time"":1721.5999999046326}]",[],15,,,,,,,,,,,,,,
harvest,384,917876,0.0-117.0-1.0,,null,run_exp/static/images/task_images/gems/45.jpg,null,,,,,,37,,,15,,,,,45,0.825085566,0.822222222,,,,,,,
decision,385,918281,0.0-117.0-2.0,,402.8999999,run_exp/static/images/task_images/land.jpg,65,,,,,,37,,,15,,,,,,,,273186,2,4,FALSE,,,
dig,386,920892,0.0-118.0-0.0,,,,,,,,,,,"[{""stimulus"":""run_exp/static/images/task_images/dig.jpg"",""time"":0},{""stimulus"":""run_exp/static/images/task_images/land.jpg"",""time"":878},{""stimulus"":""run_exp/static/images/task_images/dig.jpg"",""time"":1737.7999999523163}]",[],15,,,,,,,,,,,,,,
harvest,387,921909,0.0-118.0-1.0,,null,run_exp/static/images/task_images/gems/37.jpg,null,,,,,,30,,,15,,,,,37,0.810488536,0.810810811,,,,,,,
decision,388,922733,0.0-118.0-2.0,,822.8999999,run_exp/static/images/task_images/land.jpg,65,,,,,,30,,,15,,,,,,,,277638,2,5,FALSE,,,
dig,389,924922,0.0-119.0-0.0,,,,,,,,,,,"[{""stimulus"":""run_exp/static/images/task_images/dig.jpg"",""time"":0.10000014305114746},{""stimulus"":""run_exp/static/images/task_images/land.jpg"",""time"":730},{""stimulus"":""run_exp/static/images/task_images/dig.jpg"",""time"":1465.6000001430511}]",[],15,,,,,,,,,,,,,,
harvest,390,925926,0.0-119.0-1.0,,null,run_exp/static/images/task_images/gems/30.jpg,null,,,,,,27,,,15,,,,,30,0.892359164,0.9,,,,,,,
decision,391,926309,0.0-119.0-2.0,,381.5,run_exp/static/images/task_images/land.jpg,65,,,,,,27,,,15,,,,,,,,281214,2,6,FALSE,,,
dig,392,928935,0.0-120.0-0.0,,,,,,,,,,,"[{""stimulus"":""run_exp/static/images/task_images/dig.jpg"",""time"":0.09999990463256836},{""stimulus"":""run_exp/static/images/task_images/land.jpg"",""time"":878.5},{""stimulus"":""run_exp/static/images/task_images/dig.jpg"",""time"":1748.5}]",[],15,,,,,,,,,,,,,,
harvest,393,929939,0.0-120.0-1.0,,null,run_exp/static/images/task_images/gems/27.jpg,null,,,,,,22,,,15,,,,,27,0.833080796,0.814814815,,,,,,,
decision,394,930379,0.0-120.0-2.0,,438.7,run_exp/static/images/task_images/land.jpg,65,,,,,,22,,,15,,,,,,,,285284,2,7,FALSE,,,
dig,395,932944,0.0-121.0-0.0,,,,,,,,,,,"[{""stimulus"":""run_exp/static/images/task_images/dig.jpg"",""time"":0.09999990463256836},{""stimulus"":""run_exp/static/images/task_images/land.jpg"",""time"":866.5},{""stimulus"":""run_exp/static/images/task_images/dig.jpg"",""time"":1707.4000000953674}]",[],15,,,,,,,,,,,,,,
harvest,396,933962,0.0-121.0-1.0,,null,run_exp/static/images/task_images/gems/22.jpg,null,,,,,,15,,,15,,,,,22,0.695011629,0.681818182,,,,,,,
decision,397,934039,0.0-121.0-2.0,,74.80000019,run_exp/static/images/task_images/land.jpg,65,,,,,,15,,,15,,,,,,,,288944,2,8,FALSE,,,
dig,398,936970,0.0-122.0-0.0,,,,,,,,,,,"[{""stimulus"":""run_exp/static/images/task_images/dig.jpg"",""time"":0.20000004768371582},{""stimulus"":""run_exp/static/images/task_images/land.jpg"",""time"":980.6000001430511},{""stimulus"":""run_exp/static/images/task_images/dig.jpg"",""time"":1951.7000000476837}]",[],15,,,,,,,,,,,,,,
harvest,399,937985,0.0-122.0-1.0,,null,run_exp/static/images/task_images/gems/15.jpg,null,,,,,,10,,,15,,,,,15,0.672533796,0.666666667,,,,,,,
decision,400,938630,0.0-122.0-2.0,,643.3999999,run_exp/static/images/task_images/land.jpg,65,,,,,,10,,,15,,,,,,,,293535,2,9,FALSE,,,
dig,401,940988,0.0-123.0-0.0,,,,,,,,,,,"[{""stimulus"":""run_exp/static/images/task_images/dig.jpg"",""time"":0.10000014305114746},{""stimulus"":""run_exp/static/images/task_images/land.jpg"",""time"":798.4000000953674},{""stimulus"":""run_exp/static/images/task_images/dig.jpg"",""time"":1580.4000000953674}]",[],15,,,,,,,,,,,,,,
harvest,402,942002,0.0-123.0-1.0,,null,run_exp/static/images/task_images/gems/10.jpg,null,,,,,,8,,,15,,,,,10,0.796384659,0.8,,,,,,,
decision,403,942988,0.0-123.0-2.0,,985.5999999,run_exp/static/images/task_images/land.jpg,76,,,,,,8,,,15,,,,,,,,297893,2,10,TRUE,,,
travel,404,952013,0.0-124.0-0.0,,,,,,,,,,,"[{""stimulus"":""run_exp/static/images/task_images/rocket-01.jpg"",""time"":0},{""stimulus"":""run_exp/static/images/task_images/rocket-02.jpg"",""time"":1003.9000000953674},{""stimulus"":""run_exp/static/images/task_images/rocket-03.jpg"",""time"":2017.2000000476837},{""stimulus"":""run_exp/static/images/task_images/rocket-04.jpg"",""time"":3016.9000000953674},{""stimulus"":""run_exp/static/images/task_images/rocket-05.jpg"",""time"":4015.2000000476837},{""stimulus"":""run_exp/static/images/task_images/rocket-06.jpg"",""time"":5014.100000143051},{""stimulus"":""run_exp/static/images/task_images/rocket-07.jpg"",""time"":6014.799999952316},{""stimulus"":""run_exp/static/images/task_images/rocket-08.jpg"",""time"":7011.400000095367},{""stimulus"":""run_exp/static/images/task_images/rocket-09.jpg"",""time"":8009}]",[],15,,,,,,,,,,,,,,
alien_welcome,405,957024,0.0-124.0-1.0,,null,run_exp/static/images/task_images/aliens/old_aliens/planet/alien_planet-74.jpg,null,,,,,,,,,,,,74,"58,52,33,61,42,55,28,69,27,37,32,10,50,79,7,74,60,65,72,56,46,31,38,71,63,1,5,45,40,16,25,15,76",,,,,,,,,,
land,406,957539,0.0-124.0-2.0,,null,run_exp/static/images/task_images/land.jpg,null,,,,,,102,,,16,,,,,,,,,,,,,,
dig,407,959547,0.0-124.0-3.0,,,,,,,,,,,"[{""stimulus"":""run_exp/static/images/task_images/dig.jpg"",""time"":0.10000014305114746},{""stimulus"":""run_exp/static/images/task_images/land.jpg"",""time"":668.5},{""stimulus"":""run_exp/static/images/task_images/dig.jpg"",""time"":1338.7000000476837}]",[],16,,,,,,,,,,,,,,
harvest,408,960552,0.0-124.0-4.0,,null,run_exp/static/images/task_images/gems/102.jpg,null,,,,,,89,,,16,,,,,102,0.870147192,0.87254902,,,,,,,
decision,409,961082,0.0-124.0-5.0,,529.0999999,run_exp/static/images/task_images/land.jpg,65,,,,,,89,,,16,,,,,,,,315987,2,0,TRUE,,,
end_of_block_continue,410,969905,0.0-125.0-0.0,,null,run_exp/static/audio/clip_32_block_end.m4a,,,,,,null,,,,,,,,,,,,,,,,,,
alien_welcome,411,974922,0.0-126.0-0.0,,null,run_exp/static/images/task_images/aliens/old_aliens/planet/alien_planet-60.jpg,null,,,,,,,,,,,,60,"58,52,33,61,42,55,28,69,27,37,32,10,50,79,7,74,60,65,72,56,46,31,38,71,63,1,5,45,40,16,25,15,76",,,,,,,,,,
land,412,975436,0.0-126.0-1.0,,null,run_exp/static/images/task_images/land.jpg,null,,,,,,100,,,17,,,,,,,,,,,,,,
dig,413,977449,0.0-126.0-2.0,,,,,,,,,,,"[{""stimulus"":""run_exp/static/images/task_images/dig.jpg"",""time"":0.40000009536743164},{""stimulus"":""run_exp/static/images/task_images/land.jpg"",""time"":669.3000001907349},{""stimulus"":""run_exp/static/images/task_images/dig.jpg"",""time"":1341.4000000953674}]",[],17,,,,,,,,,,,,,,
harvest,414,978451,0.0-126.0-3.0,,null,run_exp/static/images/task_images/gems/100.jpg,null,,,,,,51,,,17,,,,,100,0.514242708,0.51,,,,,,,
decision,415,978902,0.0-126.0-4.0,,448.8,run_exp/static/images/task_images/land.jpg,65,,,,,,51,,,17,,,,,,,,8992,3,0,FALSE,,,
dig,416,981460,0.0-127.0-0.0,,,,,,,,,,,"[{""stimulus"":""run_exp/static/images/task_images/dig.jpg"",""time"":0},{""stimulus"":""run_exp/static/images/task_images/land.jpg"",""time"":853.6000001430511},{""stimulus"":""run_exp/static/images/task_images/dig.jpg"",""time"":1714.4000000953674}]",[],17,,,,,,,,,,,,,,
harvest,417,982470,0.0-127.0-1.0,,null,run_exp/static/images/task_images/gems/51.jpg,null,,,,,,25,,,17,,,,,51,0.485023938,0.490196078,,,,,,,
decision,418,982839,0.0-127.0-2.0,,367,run_exp/static/images/task_images/land.jpg,65,,,,,,25,,,17,,,,,,,,12929,3,1,FALSE,,,
dig,419,985475,0.0-128.0-0.0,,,,,,,,,,,"[{""stimulus"":""run_exp/static/images/task_images/dig.jpg"",""time"":0.20000004768371582},{""stimulus"":""run_exp/static/images/task_images/land.jpg"",""time"":890.7999999523163},{""stimulus"":""run_exp/static/images/task_images/dig.jpg"",""time"":1760.7999999523163}]",[],17,,,,,,,,,,,,,,
harvest,420,986487,0.0-128.0-1.0,,null,run_exp/static/images/task_images/gems/25.jpg,null,,,,,,13,,,17,,,,,25,0.505185551,0.52,,,,,,,
decision,421,987306,0.0-128.0-2.0,,818.5,run_exp/static/images/task_images/land.jpg,65,,,,,,13,,,17,,,,,,,,17396,3,2,FALSE,,,
dig,422,989492,0.0-129.0-0.0,,,,,,,,,,,"[{""stimulus"":""run_exp/static/images/task_images/dig.jpg"",""time"":0},{""stimulus"":""run_exp/static/images/task_images/land.jpg"",""time"":733.9000000953674},{""stimulus"":""run_exp/static/images/task_images/dig.jpg"",""time"":1466.9000000953674}]",[],17,,,,,,,,,,,,,,
