trial_type,trial_index,time_elapsed,internal_node_id,interactions,blur_events,focus_events,fullscreenenter_events,fullscreenexit_events,success,rt,stimulus,key_press,prompt,subject_id,participant_id,age,gender,button_pressed,next_reward,animation_sequence,responses,planet,curr_prac_trial,n_prac_rounds,alien,aliens,reward_received,decay_rate_actual,decay_rate_exp,time_in_block,block_num,prt,last_trial_on_planet,button_html,bonus,num_failures
pavlovia,0,2,0.0-0.0,"""event"",""trial"",""time""
""fullscreenenter"",""1"",""1705""
","
","
","""event"",""trial"",""time""
""fullscreenenter"",""1"",""1705""
","
",,,,,,,,,,,,,,,,,,,,,,,,,,,,
fullscreen,1,2688,0.0-1.0,"""event"",""trial"",""time""
""fullscreenenter"",""1"",""1705""
","
","
","""event"",""trial"",""time""
""fullscreenenter"",""1"",""1705""
","
",TRUE,,,,,,,,,,,,,,,,,,,,,,,,,,,
instruc_welcome,2,12403,0.0-2.0,"""event"",""trial"",""time""
""fullscreenenter"",""1"",""1705""
","
","
","""event"",""trial"",""time""
""fullscreenenter"",""1"",""1705""
","
",,null,run_exp/static/audio/clip_1_welcome.m4a,null,"<p>Howdy! In this experiment, you’ll be an explorer traveling through space to collect space treasure.</p><p>Your mission is to collect as much treasure as possible.</p><br><br><p><img src='run_exp/static/images/task_images/opening_img-01.jpg' height='300' width='auto'></p>",9712,136,15.75,Male,,,,,,,,,,,,,,,,,,,
audio-keyboard-response,3,28982,0.0-3.0,"""event"",""trial"",""time""
""fullscreenenter"",""1"",""1705""
","
","
","""event"",""trial"",""time""
""fullscreenenter"",""1"",""1705""
","
",,null,run_exp/static/audio/clip_2_move.m4a,null,,,,,,,,,,,,,,,,,,,,,,,,
welcome_dec,4,31017,0.0-4.0,"""event"",""trial"",""time""
""fullscreenenter"",""1"",""1705""
","
","
","""event"",""trial"",""time""
""fullscreenenter"",""1"",""1705""
","
",,2033.2,"<p>Howdy! In this experiment, you’ll be an explorer traveling through space to collect space treasure.</p><p>Your mission is to collect as much treasure as possible.</p><br><br><p><img src='run_exp/static/images/task_images/opening_img-01.jpg' height='300' width='auto'></p>",,,,,,,1,,,,,,,,,,,,,,,,,,
html-keyboard-response,5,31815,0.0-5.0,"""event"",""trial"",""time""
""fullscreenenter"",""1"",""1705""
","
","
","""event"",""trial"",""time""
""fullscreenenter"",""1"",""1705""
","
",,797.8000002,"<p>Howdy! In this experiment, you’ll be an explorer traveling through space to collect space treasure.</p><p>Your mission is to collect as much treasure as possible.</p><br><br><p><img src='run_exp/static/images/task_images/opening_img-01.jpg' height='300' width='auto'></p><button class=""jspsych-html-btn-unchosen""><img src=""run_exp/static/images/task_images/planet-01.jpg"" height=""50""></button><button class=""jspsych-html-btn-chosen""><img src=""run_exp/static/images/task_images/planet-02.jpg"" height=""50""></button><p><b>[press the space bar to lock in your answer]<b><br></p>",32,,,,,,,,,,,,,,,,,,,,,,,,
instruc_goal,6,41882,0.0-6.0-0.0,"""event"",""trial"",""time""
""fullscreenenter"",""1"",""1705""
","
","
","""event"",""trial"",""time""
""fullscreenenter"",""1"",""1705""
","
",,null,run_exp/static/audio/clip_3_goal.m4a,null,"<p> As a space explorer, you’ll visit different planets to dig for space treasure, these pink gems.</p> <p> The more treasure you dig up, the more bonus money you’ll win! </p><br><br><p><img src='run_exp/static/images/task_images/pink_gem.jpg' height='300' width='auto'></p>",,,,,,,,,,,,,,,,,,,,,,,
instruc_goal,7,44387,0.0-6.0-1.0,"""event"",""trial"",""time""
""fullscreenenter"",""1"",""1705""
","
","
","""event"",""trial"",""time""
""fullscreenenter"",""1"",""1705""
","
",,2503.8,"<p> As a space explorer, you’ll visit different planets to dig for space treasure, these pink gems.</p> <p> The more treasure you dig up, the more bonus money you’ll win! </p><br><br><p><img src='run_exp/static/images/task_images/pink_gem.jpg' height='300' width='auto'></p>",,,,,,,1,,,,,,,,,,,,,,,,,,
html-keyboard-response,8,44543,0.0-6.0-2.0,"""event"",""trial"",""time""
""fullscreenenter"",""1"",""1705""
","
","
","""event"",""trial"",""time""
""fullscreenenter"",""1"",""1705""
","
",,155.1999998,"<p> As a space explorer, you’ll visit different planets to dig for space treasure, these pink gems.</p> <p> The more treasure you dig up, the more bonus money you’ll win! </p><br><br><p><img src='run_exp/static/images/task_images/pink_gem.jpg' height='300' width='auto'></p><button class=""jspsych-html-btn-unchosen""><img src=""run_exp/static/images/task_images/planet-01.jpg"" height=""50""></button><button class=""jspsych-html-btn-chosen""><img src=""run_exp/static/images/task_images/planet-02.jpg"" height=""50""></button><p><b>[press the space bar to lock in your answer]<b><br></p>",32,,,,,,,,,,,,,,,,,,,,,,,,
instruc_dig,9,60542,0.0-7.0-0.0,"""event"",""trial"",""time""
""fullscreenenter"",""1"",""1705""
","
","
","""event"",""trial"",""time""
""fullscreenenter"",""1"",""1705""
","
",,null,run_exp/static/audio/clip_4_dig.m4a,null,,,,,,,100,,,,,,,,,,,,,,,,,
instruc_dig_try,10,61175,0.0-7.0-1.0,"""event"",""trial"",""time""
""fullscreenenter"",""1"",""1705""
","
","
","""event"",""trial"",""time""
""fullscreenenter"",""1"",""1705""
","
",,632.0999999,"<p> When you’ve arrived at a new planet, you will dig once. </p> <p>Then, you get to decide if you want to stay on the planet and dig again or travel to a new planet and dig there.</p> <p> To stay and dig, press the letter <strong>‘A’</strong> on your keyboard. Try pressing it now! </p><p><img src='run_exp/static/images/task_images/land.jpg'  height='700' width='auto'></p>",65,"<p> When you’ve arrived at a new planet, you will dig once. </p> <p>Then, you get to decide if you want to stay on the planet and dig again or travel to a new planet and dig there.</p> <p> To stay and dig, press the letter <strong>‘A’</strong> on your keyboard. Try pressing it now! </p><p><img src='run_exp/static/images/task_images/land.jpg'  height='700' width='auto'></p>",,,,,,100,,,,,,,,,,,,,,,,,
dig_prac,11,63184,0.0-7.0-2.0,"""event"",""trial"",""time""
""fullscreenenter"",""1"",""1705""
","
","
","""event"",""trial"",""time""
""fullscreenenter"",""1"",""1705""
","
",,,,,,,,,,,,"[{""stimulus"":""run_exp/static/images/task_images/dig.jpg"",""time"":0},{""stimulus"":""run_exp/static/images/task_images/land.jpg"",""time"":682.5999999046326},{""stimulus"":""run_exp/static/images/task_images/dig.jpg"",""time"":1335.7000002861023}]",[],,,,,,,,,,,,,,,
instruc_travel,12,99422,0.0-7.0-3.0,"""event"",""trial"",""time""
""fullscreenenter"",""1"",""1705""
","
","
","""event"",""trial"",""time""
""fullscreenenter"",""1"",""1705""
","
",,null,run_exp/static/audio/clip_5_travel.m4a,null,"<p>Every time you dig up gems, there are less gems on the planet, so the more you dig on a planet the fewer gems you’ll get with each dig.</p><p>When gems are running low, you may want to travel to a new planet. </p> <p>  Planets are very far apart in this galaxy, so it will take some time to travel between them. </p> <br><p>There are lots and lots of planets for you to visit, so you won’t be able to return to any planets you’ve seen before. </p><br><p>To leave this planet and travel to a new one, press the letter <strong>‘L’</strong> on your keyboard. Try pressing it now! </p><p><img src='run_exp/static/images/task_images/rocket-01.jpg'  height='600' width='auto'></p>",,,,,,,,,,,,,,,,,,,,,,,
instruc_travel_try,13,100159,0.0-7.0-4.0,"""event"",""trial"",""time""
""fullscreenenter"",""1"",""1705""
","
","
","""event"",""trial"",""time""
""fullscreenenter"",""1"",""1705""
","
",,736.1999998,"<p>Every time you dig up gems, there are less gems on the planet, so the more you dig on a planet the fewer gems you’ll get with each dig.</p><p>When gems are running low, you may want to travel to a new planet. </p> <p>  Planets are very far apart in this galaxy, so it will take some time to travel between them. </p> <br><p>There are lots and lots of planets for you to visit, so you won’t be able to return to any planets you’ve seen before. </p><br><p>To leave this planet and travel to a new one, press the letter <strong>‘L’</strong> on your keyboard. Try pressing it now! </p><p><img src='run_exp/static/images/task_images/rocket-01.jpg'  height='600' width='auto'></p>",76,"<p>Every time you dig up gems, there are less gems on the planet, so the more you dig on a planet the fewer gems you’ll get with each dig.</p><p>When gems are running low, you may want to travel to a new planet. </p> <p>  Planets are very far apart in this galaxy, so it will take some time to travel between them. </p> <br><p>There are lots and lots of planets for you to visit, so you won’t be able to return to any planets you’ve seen before. </p><br><p>To leave this planet and travel to a new one, press the letter <strong>‘L’</strong> on your keyboard. Try pressing it now! </p><p><img src='run_exp/static/images/task_images/rocket-01.jpg'  height='600' width='auto'></p>",,,,,,,,,,,,,,,,,,,,,,,
travel_prac,14,110168,0.0-7.0-5.0,"""event"",""trial"",""time""
""fullscreenenter"",""1"",""1705""
","
","
","""event"",""trial"",""time""
""fullscreenenter"",""1"",""1705""
","
",,,,,,,,,,,,"[{""stimulus"":""run_exp/static/images/task_images/rocket-01.jpg"",""time"":0.09999990463256836},{""stimulus"":""run_exp/static/images/task_images/rocket-02.jpg"",""time"":1121.6999998092651},{""stimulus"":""run_exp/static/images/task_images/rocket-03.jpg"",""time"":2227.3999996185303},{""stimulus"":""run_exp/static/images/task_images/rocket-04.jpg"",""time"":3348.2999997138977},{""stimulus"":""run_exp/static/images/task_images/rocket-05.jpg"",""time"":4451.299999713898},{""stimulus"":""run_exp/static/images/task_images/rocket-06.jpg"",""time"":5559.599999904633},{""stimulus"":""run_exp/static/images/task_images/rocket-07.jpg"",""time"":6677.599999904633},{""stimulus"":""run_exp/static/images/task_images/rocket-08.jpg"",""time"":7784.89999961853},{""stimulus"":""run_exp/static/images/task_images/rocket-09.jpg"",""time"":8891.299999713898}]",[],0,,,,,,,,,,,,,,
instruc_alien_greet,15,137342,0.0-7.0-6.0,"""event"",""trial"",""time""
""fullscreenenter"",""1"",""1705""
","
","
","""event"",""trial"",""time""
""fullscreenenter"",""1"",""1705""
","
",,null,run_exp/static/audio/clip_6_alien.m4a,null,"<p>When you arrive at a new planet, the alien who owns the treasure mine on that planet will greet you!</p><p>The better an alien takes care of their mine the easier it is to dig for gems. Some aliens take better care of their mine than others. So, you won’t get exactly the same amount of gems on each planet.</p><p>What the alien looks like does not tell you anything about how many gems there are on the planet.</p><br><p><img src=""run_exp/static/images/task_images/aliens/instructions_aliens/planet/alien_planet-1.jpg""  height=""600"" width=""auto""></p>",,,,,,,,,,,,,,,,,,,,,,,
instruc_alien_greet,16,139250,0.0-7.0-7.0,"""event"",""trial"",""time""
""fullscreenenter"",""1"",""1705""
","
","
","""event"",""trial"",""time""
""fullscreenenter"",""1"",""1705""
","
",,1907.2,"<p>When you arrive at a new planet, the alien who owns the treasure mine on that planet will greet you!</p><p>The better an alien takes care of their mine the easier it is to dig for gems. Some aliens take better care of their mine than others. So, you won’t get exactly the same amount of gems on each planet.</p><p>What the alien looks like does not tell you anything about how many gems there are on the planet.</p><br><p><img src=""run_exp/static/images/task_images/aliens/instructions_aliens/planet/alien_planet-1.jpg""  height=""600"" width=""auto""></p>",,,,,,,1,,,,,,,,,,,,,,,,,,
html-keyboard-response,17,139327,0.0-7.0-8.0,"""event"",""trial"",""time""
""fullscreenenter"",""1"",""1705""
","
","
","""event"",""trial"",""time""
""fullscreenenter"",""1"",""1705""
","
",,76.0999999,"<p>When you arrive at a new planet, the alien who owns the treasure mine on that planet will greet you!</p><p>The better an alien takes care of their mine the easier it is to dig for gems. Some aliens take better care of their mine than others. So, you won’t get exactly the same amount of gems on each planet.</p><p>What the alien looks like does not tell you anything about how many gems there are on the planet.</p><br><p><img src=""run_exp/static/images/task_images/aliens/instructions_aliens/planet/alien_planet-1.jpg""  height=""600"" width=""auto""></p><button class=""jspsych-html-btn-unchosen""><img src=""run_exp/static/images/task_images/planet-01.jpg"" height=""50""></button><button class=""jspsych-html-btn-chosen""><img src=""run_exp/static/images/task_images/planet-02.jpg"" height=""50""></button><p><b>[press the space bar to lock in your answer]<b><br></p>",32,,,,,,,,,,,,,,,,,,,,,,,,
time_out,18,150402,0.0-8.0-0.0,"""event"",""trial"",""time""
""fullscreenenter"",""1"",""1705""
","
","
","""event"",""trial"",""time""
""fullscreenenter"",""1"",""1705""
","
",,null,run_exp/static/audio/clip_7_timeout.m4a,null,"<p>If you don't make your choice fast enough, you’ll have to wait a few seconds before you can make another one.</p><p>You can’t dig for more gems or travel to new planets. You just have to sit and wait.</p><br><p><img src='run_exp/static/images/task_images/time_out.jpg'  height='600' width='auto'></p>",,,,,,,,,,,,,,,,,,,,,,,
time_out,19,151809,0.0-8.0-1.0,"""event"",""trial"",""time""
""fullscreenenter"",""1"",""1705""
","
","
","""event"",""trial"",""time""
""fullscreenenter"",""1"",""1705""
","
",,1406.1,"<p>If you don't make your choice fast enough, you’ll have to wait a few seconds before you can make another one.</p><p>You can’t dig for more gems or travel to new planets. You just have to sit and wait.</p><br><p><img src='run_exp/static/images/task_images/time_out.jpg'  height='600' width='auto'></p>",,,,,,,1,,,,,,,,,,,,,,,,,,
html-keyboard-response,20,152055,0.0-8.0-2.0,"""event"",""trial"",""time""
""fullscreenenter"",""1"",""1705""
","
","
","""event"",""trial"",""time""
""fullscreenenter"",""1"",""1705""
","
",,245.3000002,"<p>If you don't make your choice fast enough, you’ll have to wait a few seconds before you can make another one.</p><p>You can’t dig for more gems or travel to new planets. You just have to sit and wait.</p><br><p><img src='run_exp/static/images/task_images/time_out.jpg'  height='600' width='auto'></p><button class=""jspsych-html-btn-unchosen""><img src=""run_exp/static/images/task_images/planet-01.jpg"" height=""50""></button><button class=""jspsych-html-btn-chosen""><img src=""run_exp/static/images/task_images/planet-02.jpg"" height=""50""></button><p><b>[press the space bar to lock in your answer]<b><br></p>",32,,,,,,,,,,,,,,,,,,,,,,,,
instruc_break,21,167722,0.0-9.0-0.0,"""event"",""trial"",""time""
""fullscreenenter"",""1"",""1705""
","
","
","""event"",""trial"",""time""
""fullscreenenter"",""1"",""1705""
","
",,null,run_exp/static/audio/clip_8_break.m4a,null,"<p> After digging and traveling for a while, you’ll be able to take a break at home base. </p><p>The game will last 20 minutes no matter what.</p><p>You will visit home base every 5 minutes, so, you will visit home base three times during the game.</p><br><p><img src='run_exp/static/images/task_images/home_base.jpg' height='600' width='auto'></p>",,,,,,,,,,,,,,,,,,,,,,,
instruc_break,22,169455,0.0-9.0-1.0,"""event"",""trial"",""time""
""fullscreenenter"",""1"",""1705""
","
","
","""event"",""trial"",""time""
""fullscreenenter"",""1"",""1705""
","
",,1732.1,"<p> After digging and traveling for a while, you’ll be able to take a break at home base. </p><p>The game will last 20 minutes no matter what.</p><p>You will visit home base every 5 minutes, so, you will visit home base three times during the game.</p><br><p><img src='run_exp/static/images/task_images/home_base.jpg' height='600' width='auto'></p>",,,,,,,1,,,,,,,,,,,,,,,,,,
html-keyboard-response,23,171671,0.0-9.0-2.0,"""event"",""trial"",""time""
""fullscreenenter"",""1"",""1705""
","
","
","""event"",""trial"",""time""
""fullscreenenter"",""1"",""1705""
","
",,2215,"<p> After digging and traveling for a while, you’ll be able to take a break at home base. </p><p>The game will last 20 minutes no matter what.</p><p>You will visit home base every 5 minutes, so, you will visit home base three times during the game.</p><br><p><img src='run_exp/static/images/task_images/home_base.jpg' height='600' width='auto'></p><button class=""jspsych-html-btn-unchosen""><img src=""run_exp/static/images/task_images/planet-01.jpg"" height=""50""></button><button class=""jspsych-html-btn-chosen""><img src=""run_exp/static/images/task_images/planet-02.jpg"" height=""50""></button><p><b>[press the space bar to lock in your answer]<b><br></p>",32,,,,,,,,,,,,,,,,,,,,,,,,
instruc_prac_game,24,181782,0.0-10.0-0.0,"""event"",""trial"",""time""
""fullscreenenter"",""1"",""1705""
","
","
","""event"",""trial"",""time""
""fullscreenenter"",""1"",""1705""
","
",,null,run_exp/static/audio/clip_9_practice.m4a,null,"<p> Are you ready to play a practice game? </p> <p>In this practice game, you'll be digging up barrels of gems. But, in the real game, you'll be digging up the gems themselves. </p>",,,,,,,,,,,,,,,,,,,,,,,
html-button-response,25,183108,0.0-10.0-1.0,"""event"",""trial"",""time""
""fullscreenenter"",""1"",""1705""
","
","
","""event"",""trial"",""time""
""fullscreenenter"",""1"",""1705""
","
",,1325.1,"<p> Are you ready to play a practice game? </p> <p>In this practice game, you'll be digging up barrels of gems. But, in the real game, you'll be digging up the gems themselves. </p>",,,,,,,0,,,,,,,,,,,,,,,,,,
alien_welcome_prac,26,188123,0.0-11.0-0.0,"""event"",""trial"",""time""
""fullscreenenter"",""1"",""1705""
","
","
","""event"",""trial"",""time""
""fullscreenenter"",""1"",""1705""
","
",,null,run_exp/static/images/task_images/aliens/practice_aliens/planet/alien_planet-5.jpg,null,,,,,,,,,,,,,,,,,,,,,,,,
land_prac,27,188633,0.0-11.0-1.0,"""event"",""trial"",""time""
""fullscreenenter"",""1"",""1705""
","
","
","""event"",""trial"",""time""
""fullscreenenter"",""1"",""1705""
","
",,null,run_exp/static/images/task_images/land.jpg,null,,,,,,,94,,,0,,,,,,,,,,,,,,
dig_prac,28,190645,0.0-11.0-2.0,"""event"",""trial"",""time""
""fullscreenenter"",""1"",""1705""
","
","
","""event"",""trial"",""time""
""fullscreenenter"",""1"",""1705""
","
",,,,,,,,,,,,"[{""stimulus"":""run_exp/static/images/task_images/dig.jpg"",""time"":0.20000028610229492},{""stimulus"":""run_exp/static/images/task_images/land.jpg"",""time"":671.7000002861023},{""stimulus"":""run_exp/static/images/task_images/dig.jpg"",""time"":1339.2000002861023}]",[],,,,,,,,,,,,,,,
harvest_prac,29,191656,0.0-11.0-3.0,"""event"",""trial"",""time""
""fullscreenenter"",""1"",""1705""
","
","
","""event"",""trial"",""time""
""fullscreenenter"",""1"",""1705""
","
",,null,run_exp/static/images/task_images/barrel_text.jpg,null,,,,,,,,,,,,,,,,,,,,,,,,
decision_prac,30,191807,0.0-11.0-4.0,"""event"",""trial"",""time""
""fullscreenenter"",""1"",""1705""
","
","
","""event"",""trial"",""time""
""fullscreenenter"",""1"",""1705""
","
",,150.5,run_exp/static/images/task_images/land.jpg,65,,,,,,,,,,,1,,,,,,,,,,,,,
dig_prac,31,193820,0.0-12.0-0.0,"""event"",""trial"",""time""
""fullscreenenter"",""1"",""1705""
","
","
","""event"",""trial"",""time""
""fullscreenenter"",""1"",""1705""
","
",,,,,,,,,,,,"[{""stimulus"":""run_exp/static/images/task_images/dig.jpg"",""time"":0},{""stimulus"":""run_exp/static/images/task_images/land.jpg"",""time"":669.6999998092651},{""stimulus"":""run_exp/static/images/task_images/dig.jpg"",""time"":1342.4000000953674}]",[],,,,,,,,,,,,,,,
harvest_prac,32,194829,0.0-12.0-1.0,"""event"",""trial"",""time""
""fullscreenenter"",""1"",""1705""
","
","
","""event"",""trial"",""time""
""fullscreenenter"",""1"",""1705""
","
",,null,run_exp/static/images/task_images/barrel_text.jpg,null,,,,,,,,,,,,,,,,,,,,,,,,
decision_prac,33,194983,0.0-12.0-2.0,"""event"",""trial"",""time""
""fullscreenenter"",""1"",""1705""
","
","
","""event"",""trial"",""time""
""fullscreenenter"",""1"",""1705""
","
",,153.2000003,run_exp/static/images/task_images/land.jpg,65,,,,,,,,,,,2,,,,,,,,,,,,,
dig_prac,34,196989,0.0-13.0-0.0,"""event"",""trial"",""time""
""fullscreenenter"",""1"",""1705""
","
","
","""event"",""trial"",""time""
""fullscreenenter"",""1"",""1705""
","
",,,,,,,,,,,,"[{""stimulus"":""run_exp/static/images/task_images/dig.jpg"",""time"":0.09999990463256836},{""stimulus"":""run_exp/static/images/task_images/land.jpg"",""time"":669.1999998092651},{""stimulus"":""run_exp/static/images/task_images/dig.jpg"",""time"":1336.8000001907349}]",[],,,,,,,,,,,,,,,
harvest_prac,35,198001,0.0-13.0-1.0,"""event"",""trial"",""time""
""fullscreenenter"",""1"",""1705""
","
","
","""event"",""trial"",""time""
""fullscreenenter"",""1"",""1705""
","
",,null,run_exp/static/images/task_images/barrel_text.jpg,null,,,,,,,,,,,,,,,,,,,,,,,,
decision_prac,36,198135,0.0-13.0-2.0,"""event"",""trial"",""time""
""fullscreenenter"",""1"",""1705""
","
","
","""event"",""trial"",""time""
""fullscreenenter"",""1"",""1705""
","
",,133.2000003,run_exp/static/images/task_images/land.jpg,65,,,,,,,,,,,3,,,,,,,,,,,,,
dig_prac,37,200142,0.0-14.0-0.0,"""event"",""trial"",""time""
""fullscreenenter"",""1"",""1705""
","
","
","""event"",""trial"",""time""
""fullscreenenter"",""1"",""1705""
","
",,,,,,,,,,,,"[{""stimulus"":""run_exp/static/images/task_images/dig.jpg"",""time"":0},{""stimulus"":""run_exp/static/images/task_images/land.jpg"",""time"":674.6000003814697},{""stimulus"":""run_exp/static/images/task_images/dig.jpg"",""time"":1344.1000003814697}]",[],,,,,,,,,,,,,,,
harvest_prac,38,201151,0.0-14.0-1.0,"""event"",""trial"",""time""
""fullscreenenter"",""1"",""1705""
","
","
","""event"",""trial"",""time""
""fullscreenenter"",""1"",""1705""
","
",,null,run_exp/static/images/task_images/barrel_text.jpg,null,,,,,,,,,,,,,,,,,,,,,,,,
decision_prac,39,201295,0.0-14.0-2.0,"""event"",""trial"",""time""
""fullscreenenter"",""1"",""1705""
","
","
","""event"",""trial"",""time""
""fullscreenenter"",""1"",""1705""
","
",,143.5,run_exp/static/images/task_images/land.jpg,65,,,,,,,,,,,4,,,,,,,,,,,,,
dig_prac,40,203310,0.0-15.0-0.0,"""event"",""trial"",""time""
""fullscreenenter"",""1"",""1705""
","
","
","""event"",""trial"",""time""
""fullscreenenter"",""1"",""1705""
","
",,,,,,,,,,,,"[{""stimulus"":""run_exp/static/images/task_images/dig.jpg"",""time"":0.09999990463256836},{""stimulus"":""run_exp/static/images/task_images/land.jpg"",""time"":682.4000000953674},{""stimulus"":""run_exp/static/images/task_images/dig.jpg"",""time"":1349.1999998092651}]",[],,,,,,,,,,,,,,,
harvest_prac,41,204319,0.0-15.0-1.0,"""event"",""trial"",""time""
""fullscreenenter"",""1"",""1705""
","
","
","""event"",""trial"",""time""
""fullscreenenter"",""1"",""1705""
","
",,null,run_exp/static/images/task_images/barrel_text.jpg,null,,,,,,,,,,,,,,,,,,,,,,,,
decision_prac,42,204455,0.0-15.0-2.0,"""event"",""trial"",""time""
""fullscreenenter"",""1"",""1705""
","
","
","""event"",""trial"",""time""
""fullscreenenter"",""1"",""1705""
","
",,135.5,run_exp/static/images/task_images/land.jpg,65,,,,,,,,,,,,1,,,,,,,,,,,,
quiz_instruc,43,208071,0.0-16.0-0.0,"""event"",""trial"",""time""
""fullscreenenter"",""1"",""1705""
","
","
","""event"",""trial"",""time""
""fullscreenenter"",""1"",""1705""
","
",,3614.7,run_exp/static/audio/clip_10_quiz.m4a,,,,,,,0,,,,,,,,,,,,,,,,,,
instruc_repeat,44,250822,0.0-16.0-1.0,"""event"",""trial"",""time""
""fullscreenenter"",""1"",""1705""
","
","
","""event"",""trial"",""time""
""fullscreenenter"",""1"",""1705""
","
",,null,"<p> Are you ready to play a practice game? </p> <p>In this practice game, you'll be digging up barrels of gems. But, in the real game, you'll be digging up the gems themselves. </p>",null,"<p>In this game, your goal is to collect as many gems as you can. That’s how you will win bonus money. </p> <p>The entire game will last 20 minutes no matter how many gems you collect or how many planets you visit. </p><p>To stay on a planet and dig again, press the letter A on your keyboard. To leave for a new planet, press the letter L.</p><p>The more you dig on a planet, the fewer gems you’ll get with each dig which is why you might consider leaving for a new planet. </p><p>When you arrive at a new planet, you’ll be greeted by an alien. What the alien looks like does not tell you anything about how much treasure is on the planet. </p>",,,,,,,,,,,,,,,,,,,,,,,
instruc_repeat_continue,45,251602,0.0-16.0-2.0,"""event"",""trial"",""time""
""fullscreenenter"",""1"",""1705""
","
","
","""event"",""trial"",""time""
""fullscreenenter"",""1"",""1705""
","
",,778.4000001,"<p> Are you ready to play a practice game? </p> <p>In this practice game, you'll be digging up barrels of gems. But, in the real game, you'll be digging up the gems themselves. </p>",,,,,,,0,,,,,,,,,,,,,,,,,,
quiz_q_1_ask,46,254568,0.0-16.0-3.0,"""event"",""trial"",""time""
""fullscreenenter"",""1"",""1705""
","
","
","""event"",""trial"",""time""
""fullscreenenter"",""1"",""1705""
","
",,2966,run_exp/static/audio/clip_11_q1_ask.m4a,,,,,,,2,,,,,,,,,,,,,,,,,,
quiz_q_1_fb_correct,47,258402,0.0-17.0-0.0,"""event"",""trial"",""time""
""fullscreenenter"",""1"",""1705""
","
","
","""event"",""trial"",""time""
""fullscreenenter"",""1"",""1705""
","
",,null,run_exp/static/audio/clip_12_q1_correct.m4a,null,<p>That’s correct. You win extra money by collecting more gems.</p>,,,,,,,,,,,,,,,,,,,,,,,
quiz_q_2_ask,48,260421,0.0-17.0-1.0,"""event"",""trial"",""time""
""fullscreenenter"",""1"",""1705""
","
","
","""event"",""trial"",""time""
""fullscreenenter"",""1"",""1705""
","
",,2018,run_exp/static/audio/clip_14_q2_ask.m4a,,,,,,,1,,,,,,,,,,,,,,,,,,
quiz_q_2_fb_correct,49,264422,0.0-18.0-0.0,"""event"",""trial"",""time""
""fullscreenenter"",""1"",""1705""
","
","
","""event"",""trial"",""time""
""fullscreenenter"",""1"",""1705""
","
",,null,run_exp/static/audio/clip_15_q2_correct.m4a,null,<p>That’s correct. The experiment is 20 minutes no matter what.</p>,,,,,,,,,,,,,,,,,,,,,,,
quiz_q_3_ask,50,266526,0.0-18.0-1.0,"""event"",""trial"",""time""
""fullscreenenter"",""1"",""1705""
","
","
","""event"",""trial"",""time""
""fullscreenenter"",""1"",""1705""
","
",,2102.8,run_exp/static/audio/clip_17_q3_ask.m4a,,,,,,,1,,,,,,,,,,,,,,,,,,
quiz_q_3_fb_correct,51,270502,0.0-19.0-0.0,"""event"",""trial"",""time""
""fullscreenenter"",""1"",""1705""
","
","
","""event"",""trial"",""time""
""fullscreenenter"",""1"",""1705""
","
",,null,run_exp/static/audio/clip_18_q3_correct.m4a,null,<p> That’s correct. You press the letter L to travel to a new planet.</p>,,,,,,,,,,,,,,,,,,,,,,,
quiz_q_4_ask,52,274199,0.0-19.0-1.0,"""event"",""trial"",""time""
""fullscreenenter"",""1"",""1705""
","
","
","""event"",""trial"",""time""
""fullscreenenter"",""1"",""1705""
","
",,3696.7,run_exp/static/audio/clip_20_q4_ask.m4a,,,,,,,0,,,,,,,,,,,,,,,,,,
quiz_q_4_fb_correct,53,279522,0.0-20.0-0.0,"""event"",""trial"",""time""
""fullscreenenter"",""1"",""1705""
","
","
","""event"",""trial"",""time""
""fullscreenenter"",""1"",""1705""
","
",,null,run_exp/static/audio/clip_21_q4_correct.m4a,null,<p> That’s correct. The more you dig on a planet the fewer gems you’ll get with each dig. </p>,,,,,,,,,,,,,,,,,,,,,,,
quiz_q_5_ask,54,281362,0.0-20.0-1.0,"""event"",""trial"",""time""
""fullscreenenter"",""1"",""1705""
","
","
","""event"",""trial"",""time""
""fullscreenenter"",""1"",""1705""
","
",,1839.3,run_exp/static/audio/clip_23_q5_ask.m4a,,,,,,,1,,,,,,,,,,,,,,,,,,
quiz_q_5_fb_correct,55,286362,0.0-21.0-0.0,"""event"",""trial"",""time""
""fullscreenenter"",""1"",""1705""
","
","
","""event"",""trial"",""time""
""fullscreenenter"",""1"",""1705""
","
",,null,run_exp/static/audio/clip_24_q5_correct.m4a,null,<p> That’s correct. The alien tells you nothing about how much treasure is on the planet.</p>,,,,,,,,,,,,,,,,,,,,,,,
quiz_correct,56,289822,0.0-22.0-0.0,"""event"",""trial"",""time""
""fullscreenenter"",""1"",""1705""
","
","
","""event"",""trial"",""time""
""fullscreenenter"",""1"",""1705""
","
",,null,run_exp/static/audio/clip_26_correct_quiz.m4a,null,,,,,,,,,,,,,,,,,,,,,,,,
quiz_correct_continue,57,290788,0.0-22.0-1.0,"""event"",""trial"",""time""
""fullscreenenter"",""1"",""1705""
","
","
","""event"",""trial"",""time""
""fullscreenenter"",""1"",""1705""
","
",,965.5,<p>Good job! You're now ready to move on to the real game!</p>,,,,,,,0,,,,,,,,,,,,,,,,,,
audio-keyboard-response,58,300902,0.0-22.0-2.0,"""event"",""trial"",""time""
""fullscreenenter"",""1"",""1705""
","
","
","""event"",""trial"",""time""
""fullscreenenter"",""1"",""1705""
","
",,null,run_exp/static/audio/clip_28_real_game.m4a,null,,,,,,,,,,,,,,,,,,,,,,,,
instruc_begin_exp_contine,59,302288,0.0-22.0-3.0,"""event"",""trial"",""time""
""fullscreenenter"",""1"",""1705""
","
","
","""event"",""trial"",""time""
""fullscreenenter"",""1"",""1705""
","
",,1386,"<p>Now that you know how  to dig for space treasure and travel to new planets,you can start exploring! </p><p>Do you want to go over the instructions again or get started with the real game?</p>",,,,,,,1,,,,,,1,,,,,,,,,,,,
alien_welcome,60,307297,0.0-23.0-0.0,"""event"",""trial"",""time""
""fullscreenenter"",""1"",""1705""
","
","
","""event"",""trial"",""time""
""fullscreenenter"",""1"",""1705""
","
",,null,run_exp/static/images/task_images/aliens/old_aliens/planet/alien_planet-74.jpg,null,,,,,,,,,,,,,74,"74,48,79,69,1,9,41,13,30,29,57,71,8,25,18,16,68,66,6,27,40,24,3,80,4,19,2,10,64,47,55,61,33,49,72,53,7,73,70",,,,,,,,,,
land,61,307812,0.0-23.0-1.0,"""event"",""trial"",""time""
""fullscreenenter"",""1"",""1705""
","
","
","""event"",""trial"",""time""
""fullscreenenter"",""1"",""1705""
","
",,null,run_exp/static/images/task_images/land.jpg,null,,,,,,,100,,,1,,,,,,,,,,,,,,
dig,62,309825,0.0-23.0-2.0,"""event"",""trial"",""time""
""fullscreenenter"",""1"",""1705""
","
","
","""event"",""trial"",""time""
""fullscreenenter"",""1"",""1705""
","
",,,,,,,,,,,,"[{""stimulus"":""run_exp/static/images/task_images/dig.jpg"",""time"":0.19999980926513672},{""stimulus"":""run_exp/static/images/task_images/land.jpg"",""time"":669.3999996185303},{""stimulus"":""run_exp/static/images/task_images/dig.jpg"",""time"":1347.6999998092651}]",[],1,,,,,,,,,,,,,,
harvest,63,310838,0.0-23.0-3.0,"""event"",""trial"",""time""
""fullscreenenter"",""1"",""1705""
","
","
","""event"",""trial"",""time""
""fullscreenenter"",""1"",""1705""
","
",,null,run_exp/static/images/task_images/gems/100.jpg,null,,,,,,,14,,,1,,,,,100,0.14229596,0.14,,,,,,,
decision,64,311671,0.0-23.0-4.0,"""event"",""trial"",""time""
""fullscreenenter"",""1"",""1705""
","
","
","""event"",""trial"",""time""
""fullscreenenter"",""1"",""1705""
","
",,832.0999999,run_exp/static/images/task_images/land.jpg,65,,,,,,,14,,,1,,,,,,,,9382,1,0,FALSE,,,
dig,65,313840,0.0-24.0-0.0,"""event"",""trial"",""time""
""fullscreenenter"",""1"",""1705""
","
","
","""event"",""trial"",""time""
""fullscreenenter"",""1"",""1705""
","
",,,,,,,,,,,,"[{""stimulus"":""run_exp/static/images/task_images/dig.jpg"",""time"":0.09999990463256836},{""stimulus"":""run_exp/static/images/task_images/land.jpg"",""time"":736.9000000953674},{""stimulus"":""run_exp/static/images/task_images/dig.jpg"",""time"":1453.3000001907349}]",[],1,,,,,,,,,,,,,,
harvest,66,314848,0.0-24.0-1.0,"""event"",""trial"",""time""
""fullscreenenter"",""1"",""1705""
","
","
","""event"",""trial"",""time""
""fullscreenenter"",""1"",""1705""
","
",,null,run_exp/static/images/task_images/gems/14.jpg,null,,,,,,,2,,,1,,,,,14,0.175954701,0.142857143,,,,,,,
decision,67,315455,0.0-24.0-2.0,"""event"",""trial"",""time""
""fullscreenenter"",""1"",""1705""
","
","
","""event"",""trial"",""time""
""fullscreenenter"",""1"",""1705""
","
",,606.5,run_exp/static/images/task_images/land.jpg,65,,,,,,,2,,,1,,,,,,,,13166,1,1,FALSE,,,
dig,68,317853,0.0-25.0-0.0,"""event"",""trial"",""time""
""fullscreenenter"",""1"",""1705""
","
","
","""event"",""trial"",""time""
""fullscreenenter"",""1"",""1705""
","
",,,,,,,,,,,,"[{""stimulus"":""run_exp/static/images/task_images/dig.jpg"",""time"":0},{""stimulus"":""run_exp/static/images/task_images/land.jpg"",""time"":811.2999997138977},{""stimulus"":""run_exp/static/images/task_images/dig.jpg"",""time"":1599.6999998092651}]",[],1,,,,,,,,,,,,,,
harvest,69,318869,0.0-25.0-1.0,"""event"",""trial"",""time""
""fullscreenenter"",""1"",""1705""
","
","
","""event"",""trial"",""time""
""fullscreenenter"",""1"",""1705""
","
",,null,run_exp/static/images/task_images/gems/2.jpg,null,,,,,,,1,,,1,,,,,2,0.269718909,0.5,,,,,,,
decision,70,319655,0.0-25.0-2.0,"""event"",""trial"",""time""
""fullscreenenter"",""1"",""1705""
","
","
","""event"",""trial"",""time""
""fullscreenenter"",""1"",""1705""
","
",,786.1999998,run_exp/static/images/task_images/land.jpg,76,,,,,,,1,,,1,,,,,,,,17366,1,2,TRUE,,,
travel,71,328868,0.0-26.0-0.0,"""event"",""trial"",""time""
""fullscreenenter"",""1"",""1705""
","
","
","""event"",""trial"",""time""
""fullscreenenter"",""1"",""1705""
","
",,,,,,,,,,,,"[{""stimulus"":""run_exp/static/images/task_images/rocket-01.jpg"",""time"":0},{""stimulus"":""run_exp/static/images/task_images/rocket-02.jpg"",""time"":1031.4000000953674},{""stimulus"":""run_exp/static/images/task_images/rocket-03.jpg"",""time"":2056.9000000953674},{""stimulus"":""run_exp/static/images/task_images/rocket-04.jpg"",""time"":3069.800000190735},{""stimulus"":""run_exp/static/images/task_images/rocket-05.jpg"",""time"":4102.199999809265},{""stimulus"":""run_exp/static/images/task_images/rocket-06.jpg"",""time"":5115.699999809265},{""stimulus"":""run_exp/static/images/task_images/rocket-07.jpg"",""time"":6147.800000190735},{""stimulus"":""run_exp/static/images/task_images/rocket-08.jpg"",""time"":7172.599999904633},{""stimulus"":""run_exp/static/images/task_images/rocket-09.jpg"",""time"":8198.900000095367}]",[],1,,,,,,,,,,,,,,
alien_welcome,72,333873,0.0-26.0-1.0,"""event"",""trial"",""time""
""fullscreenenter"",""1"",""1705""
","
","
","""event"",""trial"",""time""
""fullscreenenter"",""1"",""1705""
","
",,null,run_exp/static/images/task_images/aliens/old_aliens/planet/alien_planet-48.jpg,null,,,,,,,,,,,,,48,"74,48,79,69,1,9,41,13,30,29,57,71,8,25,18,16,68,66,6,27,40,24,3,80,4,19,2,10,64,47,55,61,33,49,72,53,7,73,70",,,,,,,,,,
land,73,334389,0.0-26.0-2.0,"""event"",""trial"",""time""
""fullscreenenter"",""1"",""1705""
","
","
","""event"",""trial"",""time""
""fullscreenenter"",""1"",""1705""
","
",,null,run_exp/static/images/task_images/land.jpg,null,,,,,,,100,,,2,,,,,,,,,,,,,,
dig,74,336406,0.0-26.0-3.0,"""event"",""trial"",""time""
""fullscreenenter"",""1"",""1705""
","
","
","""event"",""trial"",""time""
""fullscreenenter"",""1"",""1705""
","
",,,,,,,,,,,,"[{""stimulus"":""run_exp/static/images/task_images/dig.jpg"",""time"":0.09999990463256836},{""stimulus"":""run_exp/static/images/task_images/land.jpg"",""time"":674.1999998092651},{""stimulus"":""run_exp/static/images/task_images/dig.jpg"",""time"":1336.0999999046326}]",[],2,,,,,,,,,,,,,,
harvest,75,337419,0.0-26.0-4.0,"""event"",""trial"",""time""
""fullscreenenter"",""1"",""1705""
","
","
","""event"",""trial"",""time""
""fullscreenenter"",""1"",""1705""
","
",,null,run_exp/static/images/task_images/gems/100.jpg,null,,,,,,,22,,,2,,,,,100,0.220599536,0.22,,,,,,,
decision,76,337583,0.0-26.0-5.0,"""event"",""trial"",""time""
""fullscreenenter"",""1"",""1705""
","
","
","""event"",""trial"",""time""
""fullscreenenter"",""1"",""1705""
","
",,163.5,run_exp/static/images/task_images/land.jpg,65,,,,,,,22,,,2,,,,,,,,35294,1,0,FALSE,,,
dig,77,340422,0.0-27.0-0.0,"""event"",""trial"",""time""
""fullscreenenter"",""1"",""1705""
","
","
","""event"",""trial"",""time""
""fullscreenenter"",""1"",""1705""
","
",,,,,,,,,,,,"[{""stimulus"":""run_exp/static/images/task_images/dig.jpg"",""time"":0.09999990463256836},{""stimulus"":""run_exp/static/images/task_images/land.jpg"",""time"":953.2000002861023},{""stimulus"":""run_exp/static/images/task_images/dig.jpg"",""time"":1893.2000002861023}]",[],2,,,,,,,,,,,,,,
harvest,78,341434,0.0-27.0-1.0,"""event"",""trial"",""time""
""fullscreenenter"",""1"",""1705""
","
","
","""event"",""trial"",""time""
""fullscreenenter"",""1"",""1705""
","
",,null,run_exp/static/images/task_images/gems/22.jpg,null,,,,,,,5,,,2,,,,,22,0.217454892,0.227272727,,,,,,,
decision,79,341575,0.0-27.0-2.0,"""event"",""trial"",""time""
""fullscreenenter"",""1"",""1705""
","
","
","""event"",""trial"",""time""
""fullscreenenter"",""1"",""1705""
","
",,139.7999997,run_exp/static/images/task_images/land.jpg,65,,,,,,,5,,,2,,,,,,,,39286,1,1,FALSE,,,
dig,80,344437,0.0-28.0-0.0,"""event"",""trial"",""time""
""fullscreenenter"",""1"",""1705""
","
","
","""event"",""trial"",""time""
""fullscreenenter"",""1"",""1705""
","
",,,,,,,,,,,,"[{""stimulus"":""run_exp/static/images/task_images/dig.jpg"",""time"":0.09999990463256836},{""stimulus"":""run_exp/static/images/task_images/land.jpg"",""time"":960.4000000953674},{""stimulus"":""run_exp/static/images/task_images/dig.jpg"",""time"":1909.4000000953674}]",[],2,,,,,,,,,,,,,,
harvest,81,345443,0.0-28.0-1.0,"""event"",""trial"",""time""
""fullscreenenter"",""1"",""1705""
","
","
","""event"",""trial"",""time""
""fullscreenenter"",""1"",""1705""
","
",,null,run_exp/static/images/task_images/gems/5.jpg,null,,,,,,,1,,,2,,,,,5,0.161718709,0.2,,,,,,,
decision,82,346159,0.0-28.0-2.0,"""event"",""trial"",""time""
""fullscreenenter"",""1"",""1705""
","
","
","""event"",""trial"",""time""
""fullscreenenter"",""1"",""1705""
","
",,715.6999998,run_exp/static/images/task_images/land.jpg,76,,,,,,,1,,,2,,,,,,,,43871,1,2,TRUE,,,
travel,83,355449,0.0-29.0-0.0,"""event"",""trial"",""time""
""fullscreenenter"",""1"",""1705""
","
","
","""event"",""trial"",""time""
""fullscreenenter"",""1"",""1705""
","
",,,,,,,,,,,,"[{""stimulus"":""run_exp/static/images/task_images/rocket-01.jpg"",""time"":0},{""stimulus"":""run_exp/static/images/task_images/rocket-02.jpg"",""time"":1043.9000000953674},{""stimulus"":""run_exp/static/images/task_images/rocket-03.jpg"",""time"":2071.699999809265},{""stimulus"":""run_exp/static/images/task_images/rocket-04.jpg"",""time"":3097.4000000953674},{""stimulus"":""run_exp/static/images/task_images/rocket-05.jpg"",""time"":4125.800000190735},{""stimulus"":""run_exp/static/images/task_images/rocket-06.jpg"",""time"":5155.400000095367},{""stimulus"":""run_exp/static/images/task_images/rocket-07.jpg"",""time"":6192.5},{""stimulus"":""run_exp/static/images/task_images/rocket-08.jpg"",""time"":7230},{""stimulus"":""run_exp/static/images/task_images/rocket-09.jpg"",""time"":8259.099999904633}]",[],2,,,,,,,,,,,,,,
alien_welcome,84,360454,0.0-29.0-1.0,"""event"",""trial"",""time""
""fullscreenenter"",""1"",""1705""
","
","
","""event"",""trial"",""time""
""fullscreenenter"",""1"",""1705""
","
",,null,run_exp/static/images/task_images/aliens/old_aliens/planet/alien_planet-79.jpg,null,,,,,,,,,,,,,79,"74,48,79,69,1,9,41,13,30,29,57,71,8,25,18,16,68,66,6,27,40,24,3,80,4,19,2,10,64,47,55,61,33,49,72,53,7,73,70",,,,,,,,,,
land,85,360969,0.0-29.0-2.0,"""event"",""trial"",""time""
""fullscreenenter"",""1"",""1705""
","
","
","""event"",""trial"",""time""
""fullscreenenter"",""1"",""1705""
","
",,null,run_exp/static/images/task_images/land.jpg,null,,,,,,,99,,,3,,,,,,,,,,,,,,
dig,86,362975,0.0-29.0-3.0,"""event"",""trial"",""time""
""fullscreenenter"",""1"",""1705""
","
","
","""event"",""trial"",""time""
""fullscreenenter"",""1"",""1705""
","
",,,,,,,,,,,,"[{""stimulus"":""run_exp/static/images/task_images/dig.jpg"",""time"":0.10000038146972656},{""stimulus"":""run_exp/static/images/task_images/land.jpg"",""time"":683.9000000953674},{""stimulus"":""run_exp/static/images/task_images/dig.jpg"",""time"":1335.7000002861023}]",[],3,,,,,,,,,,,,,,
harvest,87,363983,0.0-29.0-4.0,"""event"",""trial"",""time""
""fullscreenenter"",""1"",""1705""
","
","
","""event"",""trial"",""time""
""fullscreenenter"",""1"",""1705""
","
",,null,run_exp/static/images/task_images/gems/99.jpg,null,,,,,,,47,,,3,,,,,99,0.473777394,0.474747475,,,,,,,
decision,88,364063,0.0-29.0-5.0,"""event"",""trial"",""time""
""fullscreenenter"",""1"",""1705""
","
","
","""event"",""trial"",""time""
""fullscreenenter"",""1"",""1705""
","
",,79.30000019,run_exp/static/images/task_images/land.jpg,65,,,,,,,47,,,3,,,,,,,,61774,1,0,FALSE,,,
dig,89,366996,0.0-30.0-0.0,"""event"",""trial"",""time""
""fullscreenenter"",""1"",""1705""
","
","
","""event"",""trial"",""time""
""fullscreenenter"",""1"",""1705""
","
",,,,,,,,,,,,"[{""stimulus"":""run_exp/static/images/task_images/dig.jpg"",""time"":0},{""stimulus"":""run_exp/static/images/task_images/land.jpg"",""time"":979.5999999046326},{""stimulus"":""run_exp/static/images/task_images/dig.jpg"",""time"":1953.9000000953674}]",[],3,,,,,,,,,,,,,,
harvest,90,368005,0.0-30.0-1.0,"""event"",""trial"",""time""
""fullscreenenter"",""1"",""1705""
","
","
","""event"",""trial"",""time""
""fullscreenenter"",""1"",""1705""
","
",,null,run_exp/static/images/task_images/gems/47.jpg,null,,,,,,,24,,,3,,,,,47,0.510354624,0.510638298,,,,,,,
decision,91,368175,0.0-30.0-2.0,"""event"",""trial"",""time""
""fullscreenenter"",""1"",""1705""
","
","
","""event"",""trial"",""time""
""fullscreenenter"",""1"",""1705""
","
",,169.5999999,run_exp/static/images/task_images/land.jpg,65,,,,,,,24,,,3,,,,,,,,65886,1,1,FALSE,,,
dig,92,371016,0.0-31.0-0.0,"""event"",""trial"",""time""
""fullscreenenter"",""1"",""1705""
","
","
","""event"",""trial"",""time""
""fullscreenenter"",""1"",""1705""
","
",,,,,,,,,,,,"[{""stimulus"":""run_exp/static/images/task_images/dig.jpg"",""time"":0.10000038146972656},{""stimulus"":""run_exp/static/images/task_images/land.jpg"",""time"":958.6000003814697},{""stimulus"":""run_exp/static/images/task_images/dig.jpg"",""time"":1891.5}]",[],3,,,,,,,,,,,,,,
harvest,93,372026,0.0-31.0-1.0,"""event"",""trial"",""time""
""fullscreenenter"",""1"",""1705""
","
","
","""event"",""trial"",""time""
""fullscreenenter"",""1"",""1705""
","
",,null,run_exp/static/images/task_images/gems/24.jpg,null,,,,,,,12,,,3,,,,,24,0.482938912,0.5,,,,,,,
decision,94,372135,0.0-31.0-2.0,"""event"",""trial"",""time""
""fullscreenenter"",""1"",""1705""
","
","
","""event"",""trial"",""time""
""fullscreenenter"",""1"",""1705""
","
",,108.3000002,run_exp/static/images/task_images/land.jpg,65,,,,,,,12,,,3,,,,,,,,69846,1,2,FALSE,,,
dig,95,375026,0.0-32.0-0.0,"""event"",""trial"",""time""
""fullscreenenter"",""1"",""1705""
","
","
","""event"",""trial"",""time""
""fullscreenenter"",""1"",""1705""
","
",,,,,,,,,,,,"[{""stimulus"":""run_exp/static/images/task_images/dig.jpg"",""time"":0},{""stimulus"":""run_exp/static/images/task_images/land.jpg"",""time"":974.4000000953674},{""stimulus"":""run_exp/static/images/task_images/dig.jpg"",""time"":1928.1000003814697}]",[],3,,,,,,,,,,,,,,
harvest,96,376035,0.0-32.0-1.0,"""event"",""trial"",""time""
""fullscreenenter"",""1"",""1705""
","
","
","""event"",""trial"",""time""
""fullscreenenter"",""1"",""1705""
","
",,null,run_exp/static/images/task_images/gems/12.jpg,null,,,,,,,6,,,3,,,,,12,0.472242993,0.5,,,,,,,
decision,97,376047,0.0-32.0-2.0,"""event"",""trial"",""time""
""fullscreenenter"",""1"",""1705""
","
","
","""event"",""trial"",""time""
""fullscreenenter"",""1"",""1705""
","
",,11.5999999,run_exp/static/images/task_images/land.jpg,65,,,,,,,6,,,3,,,,,,,,73758,1,3,FALSE,,,
dig,98,379047,0.0-33.0-0.0,"""event"",""trial"",""time""
""fullscreenenter"",""1"",""1705""
","
","
","""event"",""trial"",""time""
""fullscreenenter"",""1"",""1705""
","
",,,,,,,,,,,,"[{""stimulus"":""run_exp/static/images/task_images/dig.jpg"",""time"":0},{""stimulus"":""run_exp/static/images/task_images/land.jpg"",""time"":1002.1999998092651},{""stimulus"":""run_exp/static/images/task_images/dig.jpg"",""time"":1998.1999998092651}]",[],3,,,,,,,,,,,,,,
harvest,99,380058,0.0-33.0-1.0,"""event"",""trial"",""time""
""fullscreenenter"",""1"",""1705""
","
","
","""event"",""trial"",""time""
""fullscreenenter"",""1"",""1705""
","
",,null,run_exp/static/images/task_images/gems/6.jpg,null,,,,,,,2,,,3,,,,,6,0.355352762,0.333333333,,,,,,,
decision,100,380096,0.0-33.0-2.0,"""event"",""trial"",""time""
""fullscreenenter"",""1"",""1705""
","
","
","""event"",""trial"",""time""
""fullscreenenter"",""1"",""1705""
","
",,36.5,run_exp/static/images/task_images/land.jpg,76,,,,,,,2,,,3,,,,,,,,77807,1,4,TRUE,,,
travel,101,390062,0.0-34.0-0.0,"""event"",""trial"",""time""
""fullscreenenter"",""1"",""1705""
","
","
","""event"",""trial"",""time""
""fullscreenenter"",""1"",""1705""
","
",,,,,,,,,,,,"[{""stimulus"":""run_exp/static/images/task_images/rocket-01.jpg"",""time"":0},{""stimulus"":""run_exp/static/images/task_images/rocket-02.jpg"",""time"":1119.3999996185303},{""stimulus"":""run_exp/static/images/task_images/rocket-03.jpg"",""time"":2227.699999809265},{""stimulus"":""run_exp/static/images/task_images/rocket-04.jpg"",""time"":3329.3999996185303},{""stimulus"":""run_exp/static/images/task_images/rocket-05.jpg"",""time"":4431.699999809265},{""stimulus"":""run_exp/static/images/task_images/rocket-06.jpg"",""time"":5537.599999904633},{""stimulus"":""run_exp/static/images/task_images/rocket-07.jpg"",""time"":6656.699999809265},{""stimulus"":""run_exp/static/images/task_images/rocket-08.jpg"",""time"":7758.599999904633},{""stimulus"":""run_exp/static/images/task_images/rocket-09.jpg"",""time"":8861.599999904633}]",[],3,,,,,,,,,,,,,,
alien_welcome,102,395069,0.0-34.0-1.0,"""event"",""trial"",""time""
""fullscreenenter"",""1"",""1705""
","
","
","""event"",""trial"",""time""
""fullscreenenter"",""1"",""1705""
","
",,null,run_exp/static/images/task_images/aliens/old_aliens/planet/alien_planet-69.jpg,null,,,,,,,,,,,,,69,"74,48,79,69,1,9,41,13,30,29,57,71,8,25,18,16,68,66,6,27,40,24,3,80,4,19,2,10,64,47,55,61,33,49,72,53,7,73,70",,,,,,,,,,
land,103,395581,0.0-34.0-2.0,"""event"",""trial"",""time""
""fullscreenenter"",""1"",""1705""
","
","
","""event"",""trial"",""time""
""fullscreenenter"",""1"",""1705""
","
",,null,run_exp/static/images/task_images/land.jpg,null,,,,,,,99,,,4,,,,,,,,,,,,,,
dig,104,397586,0.0-34.0-3.0,"""event"",""trial"",""time""
""fullscreenenter"",""1"",""1705""
","
","
","""event"",""trial"",""time""
""fullscreenenter"",""1"",""1705""
","
",,,,,,,,,,,,"[{""stimulus"":""run_exp/static/images/task_images/dig.jpg"",""time"":0.19999980926513672},{""stimulus"":""run_exp/static/images/task_images/land.jpg"",""time"":669.6999998092651},{""stimulus"":""run_exp/static/images/task_images/dig.jpg"",""time"":1338.9000000953674}]",[],4,,,,,,,,,,,,,,
harvest,105,398594,0.0-34.0-4.0,"""event"",""trial"",""time""
""fullscreenenter"",""1"",""1705""
","
","
","""event"",""trial"",""time""
""fullscreenenter"",""1"",""1705""
","
",,null,run_exp/static/images/task_images/gems/99.jpg,null,,,,,,,51,,,4,,,,,99,0.514197924,0.515151515,,,,,,,
decision,106,398791,0.0-34.0-5.0,"""event"",""trial"",""time""
""fullscreenenter"",""1"",""1705""
","
","
","""event"",""trial"",""time""
""fullscreenenter"",""1"",""1705""
","
",,197.0999999,run_exp/static/images/task_images/land.jpg,65,,,,,,,51,,,4,,,,,,,,96503,1,0,FALSE,,,
dig,107,401603,0.0-35.0-0.0,"""event"",""trial"",""time""
""fullscreenenter"",""1"",""1705""
","
","
","""event"",""trial"",""time""
""fullscreenenter"",""1"",""1705""
","
",,,,,,,,,,,,"[{""stimulus"":""run_exp/static/images/task_images/dig.jpg"",""time"":0.09999990463256836},{""stimulus"":""run_exp/static/images/task_images/land.jpg"",""time"":935.0999999046326},{""stimulus"":""run_exp/static/images/task_images/dig.jpg"",""time"":1876.7999997138977}]",[],4,,,,,,,,,,,,,,
harvest,108,402618,0.0-35.0-1.0,"""event"",""trial"",""time""
""fullscreenenter"",""1"",""1705""
","
","
","""event"",""trial"",""time""
""fullscreenenter"",""1"",""1705""
","
",,null,run_exp/static/images/task_images/gems/51.jpg,null,,,,,,,26,,,4,,,,,51,0.512851888,0.509803922,,,,,,,
decision,109,402687,0.0-35.0-2.0,"""event"",""trial"",""time""
""fullscreenenter"",""1"",""1705""
","
","
","""event"",""trial"",""time""
""fullscreenenter"",""1"",""1705""
","
",,69.10000038,run_exp/static/images/task_images/land.jpg,65,,,,,,,26,,,4,,,,,,,,100398,1,1,FALSE,,,
dig,110,405624,0.0-36.0-0.0,"""event"",""trial"",""time""
""fullscreenenter"",""1"",""1705""
","
","
","""event"",""trial"",""time""
""fullscreenenter"",""1"",""1705""
","
",,,,,,,,,,,,"[{""stimulus"":""run_exp/static/images/task_images/dig.jpg"",""time"":0.10000038146972656},{""stimulus"":""run_exp/static/images/task_images/land.jpg"",""time"":986.9000000953674},{""stimulus"":""run_exp/static/images/task_images/dig.jpg"",""time"":1954}]",[],4,,,,,,,,,,,,,,
harvest,111,406636,0.0-36.0-1.0,"""event"",""trial"",""time""
""fullscreenenter"",""1"",""1705""
","
","
","""event"",""trial"",""time""
""fullscreenenter"",""1"",""1705""
","
",,null,run_exp/static/images/task_images/gems/26.jpg,null,,,,,,,13,,,4,,,,,26,0.490621951,0.5,,,,,,,
decision,112,406647,0.0-36.0-2.0,"""event"",""trial"",""time""
""fullscreenenter"",""1"",""1705""
","
","
","""event"",""trial"",""time""
""fullscreenenter"",""1"",""1705""
","
",,10,run_exp/static/images/task_images/land.jpg,65,,,,,,,13,,,4,,,,,,,,104358,1,2,FALSE,,,
dig,113,409646,0.0-37.0-0.0,"""event"",""trial"",""time""
""fullscreenenter"",""1"",""1705""
","
","
","""event"",""trial"",""time""
""fullscreenenter"",""1"",""1705""
","
",,,,,,,,,,,,"[{""stimulus"":""run_exp/static/images/task_images/dig.jpg"",""time"":0},{""stimulus"":""run_exp/static/images/task_images/land.jpg"",""time"":1007.3000001907349},{""stimulus"":""run_exp/static/images/task_images/dig.jpg"",""time"":1998.5999999046326}]",[],4,,,,,,,,,,,,,,
harvest,114,410660,0.0-37.0-1.0,"""event"",""trial"",""time""
""fullscreenenter"",""1"",""1705""
","
","
","""event"",""trial"",""time""
""fullscreenenter"",""1"",""1705""
","
",,null,run_exp/static/images/task_images/gems/13.jpg,null,,,,,,,7,,,4,,,,,13,0.502087073,0.538461538,,,,,,,
decision,115,410792,0.0-37.0-2.0,"""event"",""trial"",""time""
""fullscreenenter"",""1"",""1705""
","
","
","""event"",""trial"",""time""
""fullscreenenter"",""1"",""1705""
","
",,131.2999997,run_exp/static/images/task_images/land.jpg,65,,,,,,,7,,,4,,,,,,,,108503,1,3,FALSE,,,
dig,116,413665,0.0-38.0-0.0,"""event"",""trial"",""time""
""fullscreenenter"",""1"",""1705""
","
","
","""event"",""trial"",""time""
""fullscreenenter"",""1"",""1705""
","
",,,,,,,,,,,,"[{""stimulus"":""run_exp/static/images/task_images/dig.jpg"",""time"":0.09999990463256836},{""stimulus"":""run_exp/static/images/task_images/land.jpg"",""time"":969.5999999046326},{""stimulus"":""run_exp/static/images/task_images/dig.jpg"",""time"":1921}]",[],4,,,,,,,,,,,,,,
harvest,117,414676,0.0-38.0-1.0,"""event"",""trial"",""time""
""fullscreenenter"",""1"",""1705""
","
","
","""event"",""trial"",""time""
""fullscreenenter"",""1"",""1705""
","
",,null,run_exp/static/images/task_images/gems/7.jpg,null,,,,,,,4,,,4,,,,,7,0.536774061,0.571428571,,,,,,,
decision,118,414679,0.0-38.0-2.0,"""event"",""trial"",""time""
""fullscreenenter"",""1"",""1705""
","
","
","""event"",""trial"",""time""
""fullscreenenter"",""1"",""1705""
","
",,2.199999809,run_exp/static/images/task_images/land.jpg,76,,,,,,,4,,,4,,,,,,,,112390,1,4,TRUE,,,
travel,119,424682,0.0-39.0-0.0,"""event"",""trial"",""time""
""fullscreenenter"",""1"",""1705""
","
","
","""event"",""trial"",""time""
""fullscreenenter"",""1"",""1705""
","
",,,,,,,,,,,,"[{""stimulus"":""run_exp/static/images/task_images/rocket-01.jpg"",""time"":0},{""stimulus"":""run_exp/static/images/task_images/rocket-02.jpg"",""time"":1114.2000002861023},{""stimulus"":""run_exp/static/images/task_images/rocket-03.jpg"",""time"":2235.2000002861023},{""stimulus"":""run_exp/static/images/task_images/rocket-04.jpg"",""time"":3340},{""stimulus"":""run_exp/static/images/task_images/rocket-05.jpg"",""time"":4446.900000095367},{""stimulus"":""run_exp/static/images/task_images/rocket-06.jpg"",""time"":5553.099999904633},{""stimulus"":""run_exp/static/images/task_images/rocket-07.jpg"",""time"":6660.800000190735},{""stimulus"":""run_exp/static/images/task_images/rocket-08.jpg"",""time"":7777.300000190735},{""stimulus"":""run_exp/static/images/task_images/rocket-09.jpg"",""time"":8883.200000286102}]",[],4,,,,,,,,,,,,,,
alien_welcome,120,429696,0.0-39.0-1.0,"""event"",""trial"",""time""
""fullscreenenter"",""1"",""1705""
","
","
","""event"",""trial"",""time""
""fullscreenenter"",""1"",""1705""
","
",,null,run_exp/static/images/task_images/aliens/old_aliens/planet/alien_planet-1.jpg,null,,,,,,,,,,,,,1,"74,48,79,69,1,9,41,13,30,29,57,71,8,25,18,16,68,66,6,27,40,24,3,80,4,19,2,10,64,47,55,61,33,49,72,53,7,73,70",,,,,,,,,,
land,121,430211,0.0-39.0-2.0,"""event"",""trial"",""time""
""fullscreenenter"",""1"",""1705""
","
","
","""event"",""trial"",""time""
""fullscreenenter"",""1"",""1705""
","
",,null,run_exp/static/images/task_images/land.jpg,null,,,,,,,101,,,5,,,,,,,,,,,,,,
dig,122,432214,0.0-39.0-3.0,"""event"",""trial"",""time""
""fullscreenenter"",""1"",""1705""
","
","
","""event"",""trial"",""time""
""fullscreenenter"",""1"",""1705""
","
",,,,,,,,,,,,"[{""stimulus"":""run_exp/static/images/task_images/dig.jpg"",""time"":0.19999980926513672},{""stimulus"":""run_exp/static/images/task_images/land.jpg"",""time"":667.9000000953674},{""stimulus"":""run_exp/static/images/task_images/dig.jpg"",""time"":1335.5999999046326}]",[],5,,,,,,,,,,,,,,
harvest,123,433218,0.0-39.0-4.0,"""event"",""trial"",""time""
""fullscreenenter"",""1"",""1705""
","
","
","""event"",""trial"",""time""
""fullscreenenter"",""1"",""1705""
","
",,null,run_exp/static/images/task_images/gems/101.jpg,null,,,,,,,51,,,5,,,,,101,0.50494219,0.504950495,,,,,,,
decision,124,433263,0.0-39.0-5.0,"""event"",""trial"",""time""
""fullscreenenter"",""1"",""1705""
","
","
","""event"",""trial"",""time""
""fullscreenenter"",""1"",""1705""
","
",,44.70000029,run_exp/static/images/task_images/land.jpg,65,,,,,,,51,,,5,,,,,,,,130974,1,0,FALSE,,,
dig,125,436234,0.0-40.0-0.0,"""event"",""trial"",""time""
""fullscreenenter"",""1"",""1705""
","
","
","""event"",""trial"",""time""
""fullscreenenter"",""1"",""1705""
","
",,,,,,,,,,,,"[{""stimulus"":""run_exp/static/images/task_images/dig.jpg"",""time"":0},{""stimulus"":""run_exp/static/images/task_images/land.jpg"",""time"":991},{""stimulus"":""run_exp/static/images/task_images/dig.jpg"",""time"":1975.1000003814697}]",[],5,,,,,,,,,,,,,,
harvest,126,437243,0.0-40.0-1.0,"""event"",""trial"",""time""
""fullscreenenter"",""1"",""1705""
","
","
","""event"",""trial"",""time""
""fullscreenenter"",""1"",""1705""
","
",,null,run_exp/static/images/task_images/gems/51.jpg,null,,,,,,,24,,,5,,,,,51,0.46898239,0.470588235,,,,,,,
decision,127,437375,0.0-40.0-2.0,"""event"",""trial"",""time""
""fullscreenenter"",""1"",""1705""
","
","
","""event"",""trial"",""time""
""fullscreenenter"",""1"",""1705""
","
",,131.5,run_exp/static/images/task_images/land.jpg,65,,,,,,,24,,,5,,,,,,,,135086,1,1,FALSE,,,
dig,128,440253,0.0-41.0-0.0,"""event"",""trial"",""time""
""fullscreenenter"",""1"",""1705""
","
","
","""event"",""trial"",""time""
""fullscreenenter"",""1"",""1705""
","
",,,,,,,,,,,,"[{""stimulus"":""run_exp/static/images/task_images/dig.jpg"",""time"":0.10000038146972656},{""stimulus"":""run_exp/static/images/task_images/land.jpg"",""time"":964.7000002861023},{""stimulus"":""run_exp/static/images/task_images/dig.jpg"",""time"":1914.4000000953674}]",[],5,,,,,,,,,,,,,,
harvest,129,441260,0.0-41.0-1.0,"""event"",""trial"",""time""
""fullscreenenter"",""1"",""1705""
","
","
","""event"",""trial"",""time""
""fullscreenenter"",""1"",""1705""
","
",,null,run_exp/static/images/task_images/gems/24.jpg,null,,,,,,,13,,,5,,,,,24,0.532054616,0.541666667,,,,,,,
decision,130,441367,0.0-41.0-2.0,"""event"",""trial"",""time""
""fullscreenenter"",""1"",""1705""
","
","
","""event"",""trial"",""time""
""fullscreenenter"",""1"",""1705""
","
",,106.3000002,run_exp/static/images/task_images/land.jpg,65,,,,,,,13,,,5,,,,,,,,139078,1,2,FALSE,,,
dig,131,444262,0.0-42.0-0.0,"""event"",""trial"",""time""
""fullscreenenter"",""1"",""1705""
","
","
","""event"",""trial"",""time""
""fullscreenenter"",""1"",""1705""
","
",,,,,,,,,,,,"[{""stimulus"":""run_exp/static/images/task_images/dig.jpg"",""time"":0.09999990463256836},{""stimulus"":""run_exp/static/images/task_images/land.jpg"",""time"":965.1999998092651},{""stimulus"":""run_exp/static/images/task_images/dig.jpg"",""time"":1929}]",[],5,,,,,,,,,,,,,,
harvest,132,445270,0.0-42.0-1.0,"""event"",""trial"",""time""
""fullscreenenter"",""1"",""1705""
","
","
","""event"",""trial"",""time""
""fullscreenenter"",""1"",""1705""
","
",,null,run_exp/static/images/task_images/gems/13.jpg,null,,,,,,,7,,,5,,,,,13,0.542068482,0.538461538,,,,,,,
decision,133,445303,0.0-42.0-2.0,"""event"",""trial"",""time""
""fullscreenenter"",""1"",""1705""
","
","
","""event"",""trial"",""time""
""fullscreenenter"",""1"",""1705""
","
",,32.9000001,run_exp/static/images/task_images/land.jpg,76,,,,,,,7,,,5,,,,,,,,143014,1,3,TRUE,,,
travel,134,455271,0.0-43.0-0.0,"""event"",""trial"",""time""
""fullscreenenter"",""1"",""1705""
","
","
","""event"",""trial"",""time""
""fullscreenenter"",""1"",""1705""
","
",,,,,,,,,,,,"[{""stimulus"":""run_exp/static/images/task_images/rocket-01.jpg"",""time"":0},{""stimulus"":""run_exp/static/images/task_images/rocket-02.jpg"",""time"":1116.2999997138977},{""stimulus"":""run_exp/static/images/task_images/rocket-03.jpg"",""time"":2220.9000000953674},{""stimulus"":""run_exp/static/images/task_images/rocket-04.jpg"",""time"":3326.9000000953674},{""stimulus"":""run_exp/static/images/task_images/rocket-05.jpg"",""time"":4433.599999904633},{""stimulus"":""run_exp/static/images/task_images/rocket-06.jpg"",""time"":5550.599999904633},{""stimulus"":""run_exp/static/images/task_images/rocket-07.jpg"",""time"":6653.099999904633},{""stimulus"":""run_exp/static/images/task_images/rocket-08.jpg"",""time"":7760},{""stimulus"":""run_exp/static/images/task_images/rocket-09.jpg"",""time"":8864.900000095367}]",[],5,,,,,,,,,,,,,,
alien_welcome,135,460286,0.0-43.0-1.0,"""event"",""trial"",""time""
""fullscreenenter"",""1"",""1705""
","
","
","""event"",""trial"",""time""
""fullscreenenter"",""1"",""1705""
","
",,null,run_exp/static/images/task_images/aliens/old_aliens/planet/alien_planet-9.jpg,null,,,,,,,,,,,,,9,"74,48,79,69,1,9,41,13,30,29,57,71,8,25,18,16,68,66,6,27,40,24,3,80,4,19,2,10,64,47,55,61,33,49,72,53,7,73,70",,,,,,,,,,
land,136,460798,0.0-43.0-2.0,"""event"",""trial"",""time""
""fullscreenenter"",""1"",""1705""
","
","
","""event"",""trial"",""time""
""fullscreenenter"",""1"",""1705""
","
",,null,run_exp/static/images/task_images/land.jpg,null,,,,,,,102,,,6,,,,,,,,,,,,,,
dig,137,462814,0.0-43.0-3.0,"""event"",""trial"",""time""
""fullscreenenter"",""1"",""1705""
","
","
","""event"",""trial"",""time""
""fullscreenenter"",""1"",""1705""
","
",,,,,,,,,,,,"[{""stimulus"":""run_exp/static/images/task_images/dig.jpg"",""time"":0.09999990463256836},{""stimulus"":""run_exp/static/images/task_images/land.jpg"",""time"":667.5999999046326},{""stimulus"":""run_exp/static/images/task_images/dig.jpg"",""time"":1343}]",[],6,,,,,,,,,,,,,,
harvest,138,463824,0.0-43.0-4.0,"""event"",""trial"",""time""
""fullscreenenter"",""1"",""1705""
","
","
","""event"",""trial"",""time""
""fullscreenenter"",""1"",""1705""
","
",,null,run_exp/static/images/task_images/gems/102.jpg,null,,,,,,,88,,,6,,,,,102,0.858328654,0.862745098,,,,,,,
decision,139,463879,0.0-43.0-5.0,"""event"",""trial"",""time""
""fullscreenenter"",""1"",""1705""
","
","
","""event"",""trial"",""time""
""fullscreenenter"",""1"",""1705""
","
",,54.30000019,run_exp/static/images/task_images/land.jpg,65,,,,,,,88,,,6,,,,,,,,161590,1,0,FALSE,,,
dig,140,466828,0.0-44.0-0.0,"""event"",""trial"",""time""
""fullscreenenter"",""1"",""1705""
","
","
","""event"",""trial"",""time""
""fullscreenenter"",""1"",""1705""
","
",,,,,,,,,,,,"[{""stimulus"":""run_exp/static/images/task_images/dig.jpg"",""time"":0.10000038146972656},{""stimulus"":""run_exp/static/images/task_images/land.jpg"",""time"":986.2000002861023},{""stimulus"":""run_exp/static/images/task_images/dig.jpg"",""time"":1967.7000002861023}]",[],6,,,,,,,,,,,,,,
harvest,141,467836,0.0-44.0-1.0,"""event"",""trial"",""time""
""fullscreenenter"",""1"",""1705""
","
","
","""event"",""trial"",""time""
""fullscreenenter"",""1"",""1705""
","
",,null,run_exp/static/images/task_images/gems/88.jpg,null,,,,,,,75,,,6,,,,,88,0.848678285,0.852272727,,,,,,,
decision,142,468383,0.0-44.0-2.0,"""event"",""trial"",""time""
""fullscreenenter"",""1"",""1705""
","
","
","""event"",""trial"",""time""
""fullscreenenter"",""1"",""1705""
","
",,546.5999999,run_exp/static/images/task_images/land.jpg,65,,,,,,,75,,,6,,,,,,,,166094,1,1,FALSE,,,
dig,143,470849,0.0-45.0-0.0,"""event"",""trial"",""time""
""fullscreenenter"",""1"",""1705""
","
","
","""event"",""trial"",""time""
""fullscreenenter"",""1"",""1705""
","
",,,,,,,,,,,,"[{""stimulus"":""run_exp/static/images/task_images/dig.jpg"",""time"":0.10000038146972656},{""stimulus"":""run_exp/static/images/task_images/land.jpg"",""time"":822.4000000953674},{""stimulus"":""run_exp/static/images/task_images/dig.jpg"",""time"":1635.7000002861023}]",[],6,,,,,,,,,,,,,,
harvest,144,471864,0.0-45.0-1.0,"""event"",""trial"",""time""
""fullscreenenter"",""1"",""1705""
","
","
","""event"",""trial"",""time""
""fullscreenenter"",""1"",""1705""
","
",,null,run_exp/static/images/task_images/gems/75.jpg,null,,,,,,,62,,,6,,,,,75,0.826182659,0.826666667,,,,,,,
decision,145,473167,0.0-45.0-2.0,"""event"",""trial"",""time""
""fullscreenenter"",""1"",""1705""
","
","
","""event"",""trial"",""time""
""fullscreenenter"",""1"",""1705""
","
",,1302,run_exp/static/images/task_images/land.jpg,65,,,,,,,62,,,6,,,,,,,,170878,1,2,FALSE,,,
dig,146,474873,0.0-46.0-0.0,"""event"",""trial"",""time""
""fullscreenenter"",""1"",""1705""
","
","
","""event"",""trial"",""time""
""fullscreenenter"",""1"",""1705""
","
",,,,,,,,,,,,"[{""stimulus"":""run_exp/static/images/task_images/dig.jpg"",""time"":0.19999980926513672},{""stimulus"":""run_exp/static/images/task_images/land.jpg"",""time"":567},{""stimulus"":""run_exp/static/images/task_images/dig.jpg"",""time"":1141.5999999046326}]",[],6,,,,,,,,,,,,,,
harvest,147,475889,0.0-46.0-1.0,"""event"",""trial"",""time""
""fullscreenenter"",""1"",""1705""
","
","
","""event"",""trial"",""time""
""fullscreenenter"",""1"",""1705""
","
",,null,run_exp/static/images/task_images/gems/62.jpg,null,,,,,,,52,,,6,,,,,62,0.842786929,0.838709677,,,,,,,
decision,148,476023,0.0-46.0-2.0,"""event"",""trial"",""time""
""fullscreenenter"",""1"",""1705""
","
","
","""event"",""trial"",""time""
""fullscreenenter"",""1"",""1705""
","
",,133.7999997,run_exp/static/images/task_images/land.jpg,65,,,,,,,52,,,6,,,,,,,,173734,1,3,FALSE,,,
dig,149,478895,0.0-47.0-0.0,"""event"",""trial"",""time""
""fullscreenenter"",""1"",""1705""
","
","
","""event"",""trial"",""time""
""fullscreenenter"",""1"",""1705""
","
",,,,,,,,,,,,"[{""stimulus"":""run_exp/static/images/task_images/dig.jpg"",""time"":0.09999990463256836},{""stimulus"":""run_exp/static/images/task_images/land.jpg"",""time"":967.7999997138977},{""stimulus"":""run_exp/static/images/task_images/dig.jpg"",""time"":1922.1999998092651}]",[],6,,,,,,,,,,,,,,
harvest,150,479906,0.0-47.0-1.0,"""event"",""trial"",""time""
""fullscreenenter"",""1"",""1705""
","
","
","""event"",""trial"",""time""
""fullscreenenter"",""1"",""1705""
","
",,null,run_exp/static/images/task_images/gems/52.jpg,null,,,,,,,43,,,6,,,,,52,0.8292389,0.826923077,,,,,,,
decision,151,479911,0.0-47.0-2.0,"""event"",""trial"",""time""
""fullscreenenter"",""1"",""1705""
","
","
","""event"",""trial"",""time""
""fullscreenenter"",""1"",""1705""
","
",,4.5,run_exp/static/images/task_images/land.jpg,65,,,,,,,43,,,6,,,,,,,,177622,1,4,FALSE,,,
dig,152,482916,0.0-48.0-0.0,"""event"",""trial"",""time""
""fullscreenenter"",""1"",""1705""
","
","
","""event"",""trial"",""time""
""fullscreenenter"",""1"",""1705""
","
",,,,,,,,,,,,"[{""stimulus"":""run_exp/static/images/task_images/dig.jpg"",""time"":0},{""stimulus"":""run_exp/static/images/task_images/land.jpg"",""time"":1003.0999999046326},{""stimulus"":""run_exp/static/images/task_images/dig.jpg"",""time"":2009.8000001907349}]",[],6,,,,,,,,,,,,,,
harvest,153,483919,0.0-48.0-1.0,"""event"",""trial"",""time""
""fullscreenenter"",""1"",""1705""
","
","
","""event"",""trial"",""time""
""fullscreenenter"",""1"",""1705""
","
",,null,run_exp/static/images/task_images/gems/43.jpg,null,,,,,,,36,,,6,,,,,43,0.830108752,0.837209302,,,,,,,
decision,154,484047,0.0-48.0-2.0,"""event"",""trial"",""time""
""fullscreenenter"",""1"",""1705""
","
","
","""event"",""trial"",""time""
""fullscreenenter"",""1"",""1705""
","
",,127.5999999,run_exp/static/images/task_images/land.jpg,65,,,,,,,36,,,6,,,,,,,,181758,1,5,FALSE,,,
dig,155,486931,0.0-49.0-0.0,"""event"",""trial"",""time""
""fullscreenenter"",""1"",""1705""
","
","
","""event"",""trial"",""time""
""fullscreenenter"",""1"",""1705""
","
",,,,,,,,,,,,"[{""stimulus"":""run_exp/static/images/task_images/dig.jpg"",""time"":0.09999990463256836},{""stimulus"":""run_exp/static/images/task_images/land.jpg"",""time"":967},{""stimulus"":""run_exp/static/images/task_images/dig.jpg"",""time"":1916}]",[],6,,,,,,,,,,,,,,
harvest,156,487935,0.0-49.0-1.0,"""event"",""trial"",""time""
""fullscreenenter"",""1"",""1705""
","
","
","""event"",""trial"",""time""
""fullscreenenter"",""1"",""1705""
","
",,null,run_exp/static/images/task_images/gems/36.jpg,null,,,,,,,30,,,6,,,,,36,0.833535329,0.833333333,,,,,,,
decision,157,488167,0.0-49.0-2.0,"""event"",""trial"",""time""
""fullscreenenter"",""1"",""1705""
","
","
","""event"",""trial"",""time""
""fullscreenenter"",""1"",""1705""
","
",,231.2000003,run_exp/static/images/task_images/land.jpg,65,,,,,,,30,,,6,,,,,,,,185878,1,6,FALSE,,,
dig,158,490936,0.0-50.0-0.0,"""event"",""trial"",""time""
""fullscreenenter"",""1"",""1705""
","
","
","""event"",""trial"",""time""
""fullscreenenter"",""1"",""1705""
","
",,,,,,,,,,,,"[{""stimulus"":""run_exp/static/images/task_images/dig.jpg"",""time"":0.09999990463256836},{""stimulus"":""run_exp/static/images/task_images/land.jpg"",""time"":922.7999997138977},{""stimulus"":""run_exp/static/images/task_images/dig.jpg"",""time"":1851.6999998092651}]",[],6,,,,,,,,,,,,,,
harvest,159,491947,0.0-50.0-1.0,"""event"",""trial"",""time""
""fullscreenenter"",""1"",""1705""
","
","
","""event"",""trial"",""time""
""fullscreenenter"",""1"",""1705""
","
",,null,run_exp/static/images/task_images/gems/30.jpg,null,,,,,,,24,,,6,,,,,30,0.810803752,0.8,,,,,,,
decision,160,492031,0.0-50.0-2.0,"""event"",""trial"",""time""
""fullscreenenter"",""1"",""1705""
","
","
","""event"",""trial"",""time""
""fullscreenenter"",""1"",""1705""
","
",,83.5,run_exp/static/images/task_images/land.jpg,65,,,,,,,24,,,6,,,,,,,,189742,1,7,FALSE,,,
dig,161,494961,0.0-51.0-0.0,"""event"",""trial"",""time""
""fullscreenenter"",""1"",""1705""
","
","
","""event"",""trial"",""time""
""fullscreenenter"",""1"",""1705""
","
",,,,,,,,,,,,"[{""stimulus"":""run_exp/static/images/task_images/dig.jpg"",""time"":0.09999990463256836},{""stimulus"":""run_exp/static/images/task_images/land.jpg"",""time"":984.9000000953674},{""stimulus"":""run_exp/static/images/task_images/dig.jpg"",""time"":1951.1999998092651}]",[],6,,,,,,,,,,,,,,
harvest,162,495973,0.0-51.0-1.0,"""event"",""trial"",""time""
""fullscreenenter"",""1"",""1705""
","
","
","""event"",""trial"",""time""
""fullscreenenter"",""1"",""1705""
","
",,null,run_exp/static/images/task_images/gems/24.jpg,null,,,,,,,19,,,6,,,,,24,0.803392368,0.791666667,,,,,,,
decision,163,495983,0.0-51.0-2.0,"""event"",""trial"",""time""
""fullscreenenter"",""1"",""1705""
","
","
","""event"",""trial"",""time""
""fullscreenenter"",""1"",""1705""
","
",,9.099999905,run_exp/static/images/task_images/land.jpg,65,,,,,,,19,,,6,,,,,,,,193694,1,8,FALSE,,,
dig,164,498988,0.0-52.0-0.0,"""event"",""trial"",""time""
""fullscreenenter"",""1"",""1705""
","
","
","""event"",""trial"",""time""
""fullscreenenter"",""1"",""1705""
","
",,,,,,,,,,,,"[{""stimulus"":""run_exp/static/images/task_images/dig.jpg"",""time"":0.09999990463256836},{""stimulus"":""run_exp/static/images/task_images/land.jpg"",""time"":997.8000001907349},{""stimulus"":""run_exp/static/images/task_images/dig.jpg"",""time"":1993.2000002861023}]",[],6,,,,,,,,,,,,,,
harvest,165,499998,0.0-52.0-1.0,"""event"",""trial"",""time""
""fullscreenenter"",""1"",""1705""
","
","
","""event"",""trial"",""time""
""fullscreenenter"",""1"",""1705""
","
",,null,run_exp/static/images/task_images/gems/19.jpg,null,,,,,,,15,,,6,,,,,19,0.778177698,0.789473684,,,,,,,
decision,166,500159,0.0-52.0-2.0,"""event"",""trial"",""time""
""fullscreenenter"",""1"",""1705""
","
","
","""event"",""trial"",""time""
""fullscreenenter"",""1"",""1705""
","
",,160.8000002,run_exp/static/images/task_images/land.jpg,76,,,,,,,15,,,6,,,,,,,,197871,1,9,TRUE,,,
travel,167,510009,0.0-53.0-0.0,"""event"",""trial"",""time""
""fullscreenenter"",""1"",""1705""
","
","
","""event"",""trial"",""time""
""fullscreenenter"",""1"",""1705""
","
",,,,,,,,,,,,"[{""stimulus"":""run_exp/static/images/task_images/rocket-01.jpg"",""time"":0},{""stimulus"":""run_exp/static/images/task_images/rocket-02.jpg"",""time"":1095.8000001907349},{""stimulus"":""run_exp/static/images/task_images/rocket-03.jpg"",""time"":2189.7000002861023},{""stimulus"":""run_exp/static/images/task_images/rocket-04.jpg"",""time"":3281.300000190735},{""stimulus"":""run_exp/static/images/task_images/rocket-05.jpg"",""time"":4377.700000286102},{""stimulus"":""run_exp/static/images/task_images/rocket-06.jpg"",""time"":5469.400000095367},{""stimulus"":""run_exp/static/images/task_images/rocket-07.jpg"",""time"":6563.200000286102},{""stimulus"":""run_exp/static/images/task_images/rocket-08.jpg"",""time"":7652.400000095367},{""stimulus"":""run_exp/static/images/task_images/rocket-09.jpg"",""time"":8759}]",[],6,,,,,,,,,,,,,,
alien_welcome,168,515016,0.0-53.0-1.0,"""event"",""trial"",""time""
""fullscreenenter"",""1"",""1705""
","
","
","""event"",""trial"",""time""
""fullscreenenter"",""1"",""1705""
","
",,null,run_exp/static/images/task_images/aliens/old_aliens/planet/alien_planet-41.jpg,null,,,,,,,,,,,,,41,"74,48,79,69,1,9,41,13,30,29,57,71,8,25,18,16,68,66,6,27,40,24,3,80,4,19,2,10,64,47,55,61,33,49,72,53,7,73,70",,,,,,,,,,
land,169,515527,0.0-53.0-2.0,"""event"",""trial"",""time""
""fullscreenenter"",""1"",""1705""
","
","
","""event"",""trial"",""time""
""fullscreenenter"",""1"",""1705""
","
",,null,run_exp/static/images/task_images/land.jpg,null,,,,,,,95,,,7,,,,,,,,,,,,,,
dig,170,517534,0.0-53.0-3.0,"""event"",""trial"",""time""
""fullscreenenter"",""1"",""1705""
","
","
","""event"",""trial"",""time""
""fullscreenenter"",""1"",""1705""
","
",,,,,,,,,,,,"[{""stimulus"":""run_exp/static/images/task_images/dig.jpg"",""time"":0},{""stimulus"":""run_exp/static/images/task_images/land.jpg"",""time"":683.0999999046326},{""stimulus"":""run_exp/static/images/task_images/dig.jpg"",""time"":1337.3000001907349}]",[],7,,,,,,,,,,,,,,
harvest,171,518540,0.0-53.0-4.0,"""event"",""trial"",""time""
""fullscreenenter"",""1"",""1705""
","
","
","""event"",""trial"",""time""
""fullscreenenter"",""1"",""1705""
","
",,null,run_exp/static/images/task_images/gems/95.jpg,null,,,,,,,78,,,7,,,,,95,0.821333661,0.821052632,,,,,,,
decision,172,518663,0.0-53.0-5.0,"""event"",""trial"",""time""
""fullscreenenter"",""1"",""1705""
","
","
","""event"",""trial"",""time""
""fullscreenenter"",""1"",""1705""
","
",,122.4000001,run_exp/static/images/task_images/land.jpg,65,,,,,,,78,,,7,,,,,,,,216374,1,0,FALSE,,,
dig,173,521546,0.0-54.0-0.0,"""event"",""trial"",""time""
""fullscreenenter"",""1"",""1705""
","
","
","""event"",""trial"",""time""
""fullscreenenter"",""1"",""1705""
","
",,,,,,,,,,,,"[{""stimulus"":""run_exp/static/images/task_images/dig.jpg"",""time"":0.09999990463256836},{""stimulus"":""run_exp/static/images/task_images/land.jpg"",""time"":967.9000000953674},{""stimulus"":""run_exp/static/images/task_images/dig.jpg"",""time"":1933}]",[],7,,,,,,,,,,,,,,
harvest,174,522556,0.0-54.0-1.0,"""event"",""trial"",""time""
""fullscreenenter"",""1"",""1705""
","
","
","""event"",""trial"",""time""
""fullscreenenter"",""1"",""1705""
","
",,null,run_exp/static/images/task_images/gems/78.jpg,null,,,,,,,61,,,7,,,,,78,0.786744371,0.782051282,,,,,,,
decision,175,522576,0.0-54.0-2.0,"""event"",""trial"",""time""
""fullscreenenter"",""1"",""1705""
","
","
","""event"",""trial"",""time""
""fullscreenenter"",""1"",""1705""
","
",,18.79999971,run_exp/static/images/task_images/land.jpg,65,,,,,,,61,,,7,,,,,,,,220287,1,1,FALSE,,,
dig,176,525568,0.0-55.0-0.0,"""event"",""trial"",""time""
""fullscreenenter"",""1"",""1705""
","
","
","""event"",""trial"",""time""
""fullscreenenter"",""1"",""1705""
","
",,,,,,,,,,,,"[{""stimulus"":""run_exp/static/images/task_images/dig.jpg"",""time"":0},{""stimulus"":""run_exp/static/images/task_images/land.jpg"",""time"":1006.9000000953674},{""stimulus"":""run_exp/static/images/task_images/dig.jpg"",""time"":1990.8000001907349}]",[],7,,,,,,,,,,,,,,
harvest,177,526577,0.0-55.0-1.0,"""event"",""trial"",""time""
""fullscreenenter"",""1"",""1705""
","
","
","""event"",""trial"",""time""
""fullscreenenter"",""1"",""1705""
","
",,null,run_exp/static/images/task_images/gems/61.jpg,null,,,,,,,51,,,7,,,,,61,0.84315756,0.836065574,,,,,,,
decision,178,526687,0.0-55.0-2.0,"""event"",""trial"",""time""
""fullscreenenter"",""1"",""1705""
","
","
","""event"",""trial"",""time""
""fullscreenenter"",""1"",""1705""
","
",,109.9000001,run_exp/static/images/task_images/land.jpg,65,,,,,,,51,,,7,,,,,,,,224398,1,2,FALSE,,,
dig,179,529590,0.0-56.0-0.0,"""event"",""trial"",""time""
""fullscreenenter"",""1"",""1705""
","
","
","""event"",""trial"",""time""
""fullscreenenter"",""1"",""1705""
","
",,,,,,,,,,,,"[{""stimulus"":""run_exp/static/images/task_images/dig.jpg"",""time"":0},{""stimulus"":""run_exp/static/images/task_images/land.jpg"",""time"":964},{""stimulus"":""run_exp/static/images/task_images/dig.jpg"",""time"":1937.6999998092651}]",[],7,,,,,,,,,,,,,,
harvest,180,530602,0.0-56.0-1.0,"""event"",""trial"",""time""
""fullscreenenter"",""1"",""1705""
","
","
","""event"",""trial"",""time""
""fullscreenenter"",""1"",""1705""
","
",,null,run_exp/static/images/task_images/gems/51.jpg,null,,,,,,,45,,,7,,,,,51,0.886520222,0.882352941,,,,,,,
decision,181,530655,0.0-56.0-2.0,"""event"",""trial"",""time""
""fullscreenenter"",""1"",""1705""
","
","
","""event"",""trial"",""time""
""fullscreenenter"",""1"",""1705""
","
",,52.69999981,run_exp/static/images/task_images/land.jpg,65,,,,,,,45,,,7,,,,,,,,228367,1,3,FALSE,,,
dig,182,533603,0.0-57.0-0.0,"""event"",""trial"",""time""
""fullscreenenter"",""1"",""1705""
","
","
","""event"",""trial"",""time""
""fullscreenenter"",""1"",""1705""
","
",,,,,,,,,,,,"[{""stimulus"":""run_exp/static/images/task_images/dig.jpg"",""time"":0.09999990463256836},{""stimulus"":""run_exp/static/images/task_images/land.jpg"",""time"":986.8000001907349},{""stimulus"":""run_exp/static/images/task_images/dig.jpg"",""time"":1968.6999998092651}]",[],7,,,,,,,,,,,,,,
harvest,183,534616,0.0-57.0-1.0,"""event"",""trial"",""time""
""fullscreenenter"",""1"",""1705""
","
","
","""event"",""trial"",""time""
""fullscreenenter"",""1"",""1705""
","
",,null,run_exp/static/images/task_images/gems/45.jpg,null,,,,,,,38,,,7,,,,,45,0.854850957,0.844444444,,,,,,,
decision,184,534751,0.0-57.0-2.0,"""event"",""trial"",""time""
""fullscreenenter"",""1"",""1705""
","
","
","""event"",""trial"",""time""
""fullscreenenter"",""1"",""1705""
","
",,134.5999999,run_exp/static/images/task_images/land.jpg,65,,,,,,,38,,,7,,,,,,,,232463,1,4,FALSE,,,
dig,185,537634,0.0-58.0-0.0,"""event"",""trial"",""time""
""fullscreenenter"",""1"",""1705""
","
","
","""event"",""trial"",""time""
""fullscreenenter"",""1"",""1705""
","
",,,,,,,,,,,,"[{""stimulus"":""run_exp/static/images/task_images/dig.jpg"",""time"":0.09999990463256836},{""stimulus"":""run_exp/static/images/task_images/land.jpg"",""time"":958.5999999046326},{""stimulus"":""run_exp/static/images/task_images/dig.jpg"",""time"":1918.4000000953674}]",[],7,,,,,,,,,,,,,,
harvest,186,538640,0.0-58.0-1.0,"""event"",""trial"",""time""
""fullscreenenter"",""1"",""1705""
","
","
","""event"",""trial"",""time""
""fullscreenenter"",""1"",""1705""
","
",,null,run_exp/static/images/task_images/gems/38.jpg,null,,,,,,,27,,,7,,,,,38,0.708210767,0.710526316,,,,,,,
decision,187,538847,0.0-58.0-2.0,"""event"",""trial"",""time""
""fullscreenenter"",""1"",""1705""
","
","
","""event"",""trial"",""time""
""fullscreenenter"",""1"",""1705""
","
",,206.8000002,run_exp/static/images/task_images/land.jpg,65,,,,,,,27,,,7,,,,,,,,236559,1,5,FALSE,,,
dig,188,541652,0.0-59.0-0.0,"""event"",""trial"",""time""
""fullscreenenter"",""1"",""1705""
","
","
","""event"",""trial"",""time""
""fullscreenenter"",""1"",""1705""
","
",,,,,,,,,,,,"[{""stimulus"":""run_exp/static/images/task_images/dig.jpg"",""time"":0.09999990463256836},{""stimulus"":""run_exp/static/images/task_images/land.jpg"",""time"":934.6999998092651},{""stimulus"":""run_exp/static/images/task_images/dig.jpg"",""time"":1874.0999999046326}]",[],7,,,,,,,,,,,,,,
harvest,189,542666,0.0-59.0-1.0,"""event"",""trial"",""time""
""fullscreenenter"",""1"",""1705""
","
","
","""event"",""trial"",""time""
""fullscreenenter"",""1"",""1705""
","
",,null,run_exp/static/images/task_images/gems/27.jpg,null,,,,,,,23,,,7,,,,,27,0.859275939,0.851851852,,,,,,,
decision,190,542831,0.0-59.0-2.0,"""event"",""trial"",""time""
""fullscreenenter"",""1"",""1705""
","
","
","""event"",""trial"",""time""
""fullscreenenter"",""1"",""1705""
","
",,164.9000001,run_exp/static/images/task_images/land.jpg,65,,,,,,,23,,,7,,,,,,,,240542,1,6,FALSE,,,
dig,191,545678,0.0-60.0-0.0,"""event"",""trial"",""time""
""fullscreenenter"",""1"",""1705""
","
","
","""event"",""trial"",""time""
""fullscreenenter"",""1"",""1705""
","
",,,,,,,,,,,,"[{""stimulus"":""run_exp/static/images/task_images/dig.jpg"",""time"":0},{""stimulus"":""run_exp/static/images/task_images/land.jpg"",""time"":951.5999999046326},{""stimulus"":""run_exp/static/images/task_images/dig.jpg"",""time"":1900.6999998092651}]",[],7,,,,,,,,,,,,,,
harvest,192,546687,0.0-60.0-1.0,"""event"",""trial"",""time""
""fullscreenenter"",""1"",""1705""
","
","
","""event"",""trial"",""time""
""fullscreenenter"",""1"",""1705""
","
",,null,run_exp/static/images/task_images/gems/23.jpg,null,,,,,,,19,,,7,,,,,23,0.826901246,0.826086957,,,,,,,
decision,193,546695,0.0-60.0-2.0,"""event"",""trial"",""time""
""fullscreenenter"",""1"",""1705""
","
","
","""event"",""trial"",""time""
""fullscreenenter"",""1"",""1705""
","
",,7.899999619,run_exp/static/images/task_images/land.jpg,76,,,,,,,19,,,7,,,,,,,,244406,1,7,TRUE,,,
travel,194,556689,0.0-61.0-0.0,"""event"",""trial"",""time""
""fullscreenenter"",""1"",""1705""
","
","
","""event"",""trial"",""time""
""fullscreenenter"",""1"",""1705""
","
",,,,,,,,,,,,"[{""stimulus"":""run_exp/static/images/task_images/rocket-01.jpg"",""time"":0.09999990463256836},{""stimulus"":""run_exp/static/images/task_images/rocket-02.jpg"",""time"":1121.9000000953674},{""stimulus"":""run_exp/static/images/task_images/rocket-03.jpg"",""time"":2228.300000190735},{""stimulus"":""run_exp/static/images/task_images/rocket-04.jpg"",""time"":3344.300000190735},{""stimulus"":""run_exp/static/images/task_images/rocket-05.jpg"",""time"":4454.700000286102},{""stimulus"":""run_exp/static/images/task_images/rocket-06.jpg"",""time"":5559.900000095367},{""stimulus"":""run_exp/static/images/task_images/rocket-07.jpg"",""time"":6667.5},{""stimulus"":""run_exp/static/images/task_images/rocket-08.jpg"",""time"":7770.800000190735},{""stimulus"":""run_exp/static/images/task_images/rocket-09.jpg"",""time"":8887}]",[],7,,,,,,,,,,,,,,
alien_welcome,195,561695,0.0-61.0-1.0,"""event"",""trial"",""time""
""fullscreenenter"",""1"",""1705""
","
","
","""event"",""trial"",""time""
""fullscreenenter"",""1"",""1705""
","
",,null,run_exp/static/images/task_images/aliens/old_aliens/planet/alien_planet-13.jpg,null,,,,,,,,,,,,,13,"74,48,79,69,1,9,41,13,30,29,57,71,8,25,18,16,68,66,6,27,40,24,3,80,4,19,2,10,64,47,55,61,33,49,72,53,7,73,70",,,,,,,,,,
land,196,562209,0.0-61.0-2.0,"""event"",""trial"",""time""
""fullscreenenter"",""1"",""1705""
","
","
","""event"",""trial"",""time""
""fullscreenenter"",""1"",""1705""
","
",,null,run_exp/static/images/task_images/land.jpg,null,,,,,,,99,,,8,,,,,,,,,,,,,,
dig,197,564222,0.0-61.0-3.0,"""event"",""trial"",""time""
""fullscreenenter"",""1"",""1705""
","
","
","""event"",""trial"",""time""
""fullscreenenter"",""1"",""1705""
","
",,,,,,,,,,,,"[{""stimulus"":""run_exp/static/images/task_images/dig.jpg"",""time"":0.20000028610229492},{""stimulus"":""run_exp/static/images/task_images/land.jpg"",""time"":678.8000001907349},{""stimulus"":""run_exp/static/images/task_images/dig.jpg"",""time"":1341.2000002861023}]",[],8,,,,,,,,,,,,,,
harvest,198,565236,0.0-61.0-4.0,"""event"",""trial"",""time""
""fullscreenenter"",""1"",""1705""
","
","
","""event"",""trial"",""time""
""fullscreenenter"",""1"",""1705""
","
",,null,run_exp/static/images/task_images/gems/99.jpg,null,,,,,,,79,,,8,,,,,99,0.796035224,0.797979798,,,,,,,
decision,199,565415,0.0-61.0-5.0,"""event"",""trial"",""time""
""fullscreenenter"",""1"",""1705""
","
","
","""event"",""trial"",""time""
""fullscreenenter"",""1"",""1705""
","
",,178.3000002,run_exp/static/images/task_images/land.jpg,65,,,,,,,79,,,8,,,,,,,,263126,1,0,FALSE,,,
dig,200,568249,0.0-62.0-0.0,"""event"",""trial"",""time""
""fullscreenenter"",""1"",""1705""
","
","
","""event"",""trial"",""time""
""fullscreenenter"",""1"",""1705""
","
",,,,,,,,,,,,"[{""stimulus"":""run_exp/static/images/task_images/dig.jpg"",""time"":0.09999990463256836},{""stimulus"":""run_exp/static/images/task_images/land.jpg"",""time"":951.5},{""stimulus"":""run_exp/static/images/task_images/dig.jpg"",""time"":1887.3000001907349}]",[],8,,,,,,,,,,,,,,
harvest,201,569260,0.0-62.0-1.0,"""event"",""trial"",""time""
""fullscreenenter"",""1"",""1705""
","
","
","""event"",""trial"",""time""
""fullscreenenter"",""1"",""1705""
","
",,null,run_exp/static/images/task_images/gems/79.jpg,null,,,,,,,69,,,8,,,,,79,0.867205397,0.873417722,,,,,,,
decision,202,569367,0.0-62.0-2.0,"""event"",""trial"",""time""
""fullscreenenter"",""1"",""1705""
","
","
","""event"",""trial"",""time""
""fullscreenenter"",""1"",""1705""
","
",,106.0999999,run_exp/static/images/task_images/land.jpg,65,,,,,,,69,,,8,,,,,,,,267078,1,1,FALSE,,,
dig,203,572273,0.0-63.0-0.0,"""event"",""trial"",""time""
""fullscreenenter"",""1"",""1705""
","
","
","""event"",""trial"",""time""
""fullscreenenter"",""1"",""1705""
","
",,,,,,,,,,,,"[{""stimulus"":""run_exp/static/images/task_images/dig.jpg"",""time"":0},{""stimulus"":""run_exp/static/images/task_images/land.jpg"",""time"":975.5},{""stimulus"":""run_exp/static/images/task_images/dig.jpg"",""time"":1942.4000000953674}]",[],8,,,,,,,,,,,,,,
harvest,204,573280,0.0-63.0-1.0,"""event"",""trial"",""time""
""fullscreenenter"",""1"",""1705""
","
","
","""event"",""trial"",""time""
""fullscreenenter"",""1"",""1705""
","
",,null,run_exp/static/images/task_images/gems/69.jpg,null,,,,,,,59,,,8,,,,,69,0.857289129,0.855072464,,,,,,,
decision,205,573431,0.0-63.0-2.0,"""event"",""trial"",""time""
""fullscreenenter"",""1"",""1705""
","
","
","""event"",""trial"",""time""
""fullscreenenter"",""1"",""1705""
","
",,149.5999999,run_exp/static/images/task_images/land.jpg,65,,,,,,,59,,,8,,,,,,,,271142,1,2,FALSE,,,
dig,206,576284,0.0-64.0-0.0,"""event"",""trial"",""time""
""fullscreenenter"",""1"",""1705""
","
","
","""event"",""trial"",""time""
""fullscreenenter"",""1"",""1705""
","
",,,,,,,,,,,,"[{""stimulus"":""run_exp/static/images/task_images/dig.jpg"",""time"":0.09999990463256836},{""stimulus"":""run_exp/static/images/task_images/land.jpg"",""time"":953},{""stimulus"":""run_exp/static/images/task_images/dig.jpg"",""time"":1902}]",[],8,,,,,,,,,,,,,,
harvest,207,577297,0.0-64.0-1.0,"""event"",""trial"",""time""
""fullscreenenter"",""1"",""1705""
","
","
","""event"",""trial"",""time""
""fullscreenenter"",""1"",""1705""
","
",,null,run_exp/static/images/task_images/gems/59.jpg,null,,,,,,,46,,,8,,,,,59,0.773169169,0.779661017,,,,,,,
decision,208,577351,0.0-64.0-2.0,"""event"",""trial"",""time""
""fullscreenenter"",""1"",""1705""
","
","
","""event"",""trial"",""time""
""fullscreenenter"",""1"",""1705""
","
",,53.4000001,run_exp/static/images/task_images/land.jpg,65,,,,,,,46,,,8,,,,,,,,275062,1,3,FALSE,,,
dig,209,580303,0.0-65.0-0.0,"""event"",""trial"",""time""
""fullscreenenter"",""1"",""1705""
","
","
","""event"",""trial"",""time""
""fullscreenenter"",""1"",""1705""
","
",,,,,,,,,,,,"[{""stimulus"":""run_exp/static/images/task_images/dig.jpg"",""time"":0.09999990463256836},{""stimulus"":""run_exp/static/images/task_images/land.jpg"",""time"":995.5},{""stimulus"":""run_exp/static/images/task_images/dig.jpg"",""time"":1971.7000002861023}]",[],8,,,,,,,,,,,,,,
harvest,210,581312,0.0-65.0-1.0,"""event"",""trial"",""time""
""fullscreenenter"",""1"",""1705""
","
","
","""event"",""trial"",""time""
""fullscreenenter"",""1"",""1705""
","
",,null,run_exp/static/images/task_images/gems/46.jpg,null,,,,,,,34,,,8,,,,,46,0.733233161,0.739130435,,,,,,,
decision,211,581503,0.0-65.0-2.0,"""event"",""trial"",""time""
""fullscreenenter"",""1"",""1705""
","
","
","""event"",""trial"",""time""
""fullscreenenter"",""1"",""1705""
","
",,189.5,run_exp/static/images/task_images/land.jpg,65,,,,,,,34,,,8,,,,,,,,279214,1,4,FALSE,,,
dig,212,584315,0.0-66.0-0.0,"""event"",""trial"",""time""
""fullscreenenter"",""1"",""1705""
","
","
","""event"",""trial"",""time""
""fullscreenenter"",""1"",""1705""
","
",,,,,,,,,,,,"[{""stimulus"":""run_exp/static/images/task_images/dig.jpg"",""time"":0.09999990463256836},{""stimulus"":""run_exp/static/images/task_images/land.jpg"",""time"":946.2000002861023},{""stimulus"":""run_exp/static/images/task_images/dig.jpg"",""time"":1876.5999999046326}]",[],8,,,,,,,,,,,,,,
harvest,213,585325,0.0-66.0-1.0,"""event"",""trial"",""time""
""fullscreenenter"",""1"",""1705""
","
","
","""event"",""trial"",""time""
""fullscreenenter"",""1"",""1705""
","
",,null,run_exp/static/images/task_images/gems/34.jpg,null,,,,,,,28,,,8,,,,,34,0.824090871,0.823529412,,,,,,,
decision,214,585351,0.0-66.0-2.0,"""event"",""trial"",""time""
""fullscreenenter"",""1"",""1705""
","
","
","""event"",""trial"",""time""
""fullscreenenter"",""1"",""1705""
","
",,24.5999999,run_exp/static/images/task_images/land.jpg,65,,,,,,,28,,,8,,,,,,,,283062,1,5,FALSE,,,
dig,215,588337,0.0-67.0-0.0,"""event"",""trial"",""time""
""fullscreenenter"",""1"",""1705""
","
","
","""event"",""trial"",""time""
""fullscreenenter"",""1"",""1705""
","
",,,,,,,,,,,,"[{""stimulus"":""run_exp/static/images/task_images/dig.jpg"",""time"":0},{""stimulus"":""run_exp/static/images/task_images/land.jpg"",""time"":994},{""stimulus"":""run_exp/static/images/task_images/dig.jpg"",""time"":1989.6999998092651}]",[],8,,,,,,,,,,,,,,
harvest,216,589343,0.0-67.0-1.0,"""event"",""trial"",""time""
""fullscreenenter"",""1"",""1705""
","
","
","""event"",""trial"",""time""
""fullscreenenter"",""1"",""1705""
","
",,null,run_exp/static/images/task_images/gems/28.jpg,null,,,,,,,23,,,8,,,,,28,0.829897578,0.821428571,,,,,,,
decision,217,589359,0.0-67.0-2.0,"""event"",""trial"",""time""
""fullscreenenter"",""1"",""1705""
","
","
","""event"",""trial"",""time""
""fullscreenenter"",""1"",""1705""
","
",,15.0999999,run_exp/static/images/task_images/land.jpg,76,,,,,,,23,,,8,,,,,,,,287070,1,6,TRUE,,,
travel,218,599354,0.0-68.0-0.0,"""event"",""trial"",""time""
""fullscreenenter"",""1"",""1705""
","
","
","""event"",""trial"",""time""
""fullscreenenter"",""1"",""1705""
","
",,,,,,,,,,,,"[{""stimulus"":""run_exp/static/images/task_images/rocket-01.jpg"",""time"":0.09999990463256836},{""stimulus"":""run_exp/static/images/task_images/rocket-02.jpg"",""time"":1121.5999999046326},{""stimulus"":""run_exp/static/images/task_images/rocket-03.jpg"",""time"":2229.199999809265},{""stimulus"":""run_exp/static/images/task_images/rocket-04.jpg"",""time"":3333.5999999046326},{""stimulus"":""run_exp/static/images/task_images/rocket-05.jpg"",""time"":4450.299999713898},{""stimulus"":""run_exp/static/images/task_images/rocket-06.jpg"",""time"":5552.799999713898},{""stimulus"":""run_exp/static/images/task_images/rocket-07.jpg"",""time"":6667.39999961853},{""stimulus"":""run_exp/static/images/task_images/rocket-08.jpg"",""time"":7770.5},{""stimulus"":""run_exp/static/images/task_images/rocket-09.jpg"",""time"":8887.299999713898}]",[],8,,,,,,,,,,,,,,
alien_welcome,219,604368,0.0-68.0-1.0,"""event"",""trial"",""time""
""fullscreenenter"",""1"",""1705""
","
","
","""event"",""trial"",""time""
""fullscreenenter"",""1"",""1705""
","
",,null,run_exp/static/images/task_images/aliens/old_aliens/planet/alien_planet-30.jpg,null,,,,,,,,,,,,,30,"74,48,79,69,1,9,41,13,30,29,57,71,8,25,18,16,68,66,6,27,40,24,3,80,4,19,2,10,64,47,55,61,33,49,72,53,7,73,70",,,,,,,,,,
land,220,604882,0.0-68.0-2.0,"""event"",""trial"",""time""
""fullscreenenter"",""1"",""1705""
","
","
","""event"",""trial"",""time""
""fullscreenenter"",""1"",""1705""
","
",,null,run_exp/static/images/task_images/land.jpg,null,,,,,,,103,,,9,,,,,,,,,,,,,,
dig,221,606890,0.0-68.0-3.0,"""event"",""trial"",""time""
""fullscreenenter"",""1"",""1705""
","
","
","""event"",""trial"",""time""
""fullscreenenter"",""1"",""1705""
","
",,,,,,,,,,,,"[{""stimulus"":""run_exp/static/images/task_images/dig.jpg"",""time"":0.20000028610229492},{""stimulus"":""run_exp/static/images/task_images/land.jpg"",""time"":669.9000000953674},{""stimulus"":""run_exp/static/images/task_images/dig.jpg"",""time"":1337.8000001907349}]",[],9,,,,,,,,,,,,,,
harvest,222,607900,0.0-68.0-4.0,"""event"",""trial"",""time""
""fullscreenenter"",""1"",""1705""
","
","
","""event"",""trial"",""time""
""fullscreenenter"",""1"",""1705""
","
",,null,run_exp/static/images/task_images/gems/103.jpg,null,,,,,,,26,,,9,,,,,103,0.251269233,0.252427184,,,,,,,
decision,223,608183,0.0-68.0-5.0,"""event"",""trial"",""time""
""fullscreenenter"",""1"",""1705""
","
","
","""event"",""trial"",""time""
""fullscreenenter"",""1"",""1705""
","
",,281.6999998,run_exp/static/images/task_images/land.jpg,65,,,,,,,26,,,9,,,,,,,,305894,1,0,TRUE,,,
end_of_block_continue,224,613210,0.0-69.0-0.0,"""event"",""trial"",""time""
""fullscreenenter"",""1"",""1705""
","
","
","""event"",""trial"",""time""
""fullscreenenter"",""1"",""1705""
","
",,5025.3,run_exp/static/audio/clip_32_block_end.m4a,,,,,,,0,,,,,,,,,,,,,,,,,,
alien_welcome,225,618213,0.0-70.0-0.0,"""event"",""trial"",""time""
""fullscreenenter"",""1"",""1705""
","
","
","""event"",""trial"",""time""
""fullscreenenter"",""1"",""1705""
","
",,null,run_exp/static/images/task_images/aliens/old_aliens/planet/alien_planet-29.jpg,null,,,,,,,,,,,,,29,"74,48,79,69,1,9,41,13,30,29,57,71,8,25,18,16,68,66,6,27,40,24,3,80,4,19,2,10,64,47,55,61,33,49,72,53,7,73,70",,,,,,,,,,
land,226,618726,0.0-70.0-1.0,"""event"",""trial"",""time""
""fullscreenenter"",""1"",""1705""
","
","
","""event"",""trial"",""time""
""fullscreenenter"",""1"",""1705""
","
",,null,run_exp/static/images/task_images/land.jpg,null,,,,,,,101,,,10,,,,,,,,,,,,,,
dig,227,620742,0.0-70.0-2.0,"""event"",""trial"",""time""
""fullscreenenter"",""1"",""1705""
","
","
","""event"",""trial"",""time""
""fullscreenenter"",""1"",""1705""
","
",,,,,,,,,,,,"[{""stimulus"":""run_exp/static/images/task_images/dig.jpg"",""time"":0.09999990463256836},{""stimulus"":""run_exp/static/images/task_images/land.jpg"",""time"":681.8999996185303},{""stimulus"":""run_exp/static/images/task_images/dig.jpg"",""time"":1347.7999997138977}]",[],10,,,,,,,,,,,,,,
harvest,228,621756,0.0-70.0-3.0,"""event"",""trial"",""time""
""fullscreenenter"",""1"",""1705""
","
","
","""event"",""trial"",""time""
""fullscreenenter"",""1"",""1705""
","
",,null,run_exp/static/images/task_images/gems/101.jpg,null,,,,,,,15,,,10,,,,,101,0.145237068,0.148514851,,,,,,,
decision,229,621847,0.0-70.0-4.0,"""event"",""trial"",""time""
""fullscreenenter"",""1"",""1705""
","
","
","""event"",""trial"",""time""
""fullscreenenter"",""1"",""1705""
","
",,90.9000001,run_exp/static/images/task_images/land.jpg,65,,,,,,,15,,,10,,,,,,,,8636,2,0,FALSE,,,
dig,230,624759,0.0-71.0-0.0,"""event"",""trial"",""time""
""fullscreenenter"",""1"",""1705""
","
","
","""event"",""trial"",""time""
""fullscreenenter"",""1"",""1705""
","
",,,,,,,,,,,,"[{""stimulus"":""run_exp/static/images/task_images/dig.jpg"",""time"":0.20000028610229492},{""stimulus"":""run_exp/static/images/task_images/land.jpg"",""time"":979.4000000953674},{""stimulus"":""run_exp/static/images/task_images/dig.jpg"",""time"":1942.5}]",[],10,,,,,,,,,,,,,,
harvest,231,625769,0.0-71.0-1.0,"""event"",""trial"",""time""
""fullscreenenter"",""1"",""1705""
","
","
","""event"",""trial"",""time""
""fullscreenenter"",""1"",""1705""
","
",,null,run_exp/static/images/task_images/gems/15.jpg,null,,,,,,,3,,,10,,,,,15,0.204867724,0.2,,,,,,,
decision,232,625848,0.0-71.0-2.0,"""event"",""trial"",""time""
""fullscreenenter"",""1"",""1705""
","
","
","""event"",""trial"",""time""
""fullscreenenter"",""1"",""1705""
","
",,77.5,run_exp/static/images/task_images/land.jpg,76,,,,,,,3,,,10,,,,,,,,12637,2,1,TRUE,,,
travel,233,635782,0.0-72.0-0.0,"""event"",""trial"",""time""
""fullscreenenter"",""1"",""1705""
","
","
","""event"",""trial"",""time""
""fullscreenenter"",""1"",""1705""
","
",,,,,,,,,,,,"[{""stimulus"":""run_exp/static/images/task_images/rocket-01.jpg"",""time"":0.09999990463256836},{""stimulus"":""run_exp/static/images/task_images/rocket-02.jpg"",""time"":1117.6999998092651},{""stimulus"":""run_exp/static/images/task_images/rocket-03.jpg"",""time"":2209.0999999046326},{""stimulus"":""run_exp/static/images/task_images/rocket-04.jpg"",""time"":3316.300000190735},{""stimulus"":""run_exp/static/images/task_images/rocket-05.jpg"",""time"":4416.699999809265},{""stimulus"":""run_exp/static/images/task_images/rocket-06.jpg"",""time"":5520.699999809265},{""stimulus"":""run_exp/static/images/task_images/rocket-07.jpg"",""time"":6626.699999809265},{""stimulus"":""run_exp/static/images/task_images/rocket-08.jpg"",""time"":7724.599999904633},{""stimulus"":""run_exp/static/images/task_images/rocket-09.jpg"",""time"":8827.199999809265}]",[],10,,,,,,,,,,,,,,
alien_welcome,234,640786,0.0-72.0-1.0,"""event"",""trial"",""time""
""fullscreenenter"",""1"",""1705""
","
","
","""event"",""trial"",""time""
""fullscreenenter"",""1"",""1705""
","
",,null,run_exp/static/images/task_images/aliens/old_aliens/planet/alien_planet-57.jpg,null,,,,,,,,,,,,,57,"74,48,79,69,1,9,41,13,30,29,57,71,8,25,18,16,68,66,6,27,40,24,3,80,4,19,2,10,64,47,55,61,33,49,72,53,7,73,70",,,,,,,,,,
land,235,641288,0.0-72.0-2.0,"""event"",""trial"",""time""
""fullscreenenter"",""1"",""1705""
","
","
","""event"",""trial"",""time""
""fullscreenenter"",""1"",""1705""
","
",,null,run_exp/static/images/task_images/land.jpg,null,,,,,,,104,,,11,,,,,,,,,,,,,,
dig,236,643295,0.0-72.0-3.0,"""event"",""trial"",""time""
""fullscreenenter"",""1"",""1705""
","
","
","""event"",""trial"",""time""
""fullscreenenter"",""1"",""1705""
","
",,,,,,,,,,,,"[{""stimulus"":""run_exp/static/images/task_images/dig.jpg"",""time"":0.09999990463256836},{""stimulus"":""run_exp/static/images/task_images/land.jpg"",""time"":670.5},{""stimulus"":""run_exp/static/images/task_images/dig.jpg"",""time"":1340.7999997138977}]",[],11,,,,,,,,,,,,,,
harvest,237,644311,0.0-72.0-4.0,"""event"",""trial"",""time""
""fullscreenenter"",""1"",""1705""
","
","
","""event"",""trial"",""time""
""fullscreenenter"",""1"",""1705""
","
",,null,run_exp/static/images/task_images/gems/104.jpg,null,,,,,,,19,,,11,,,,,104,0.183877774,0.182692308,,,,,,,
decision,238,644312,0.0-72.0-5.0,"""event"",""trial"",""time""
""fullscreenenter"",""1"",""1705""
","
","
","""event"",""trial"",""time""
""fullscreenenter"",""1"",""1705""
","
",,0,run_exp/static/images/task_images/land.jpg,65,,,,,,,19,,,11,,,,,,,,31101,2,0,FALSE,,,
dig,239,647322,0.0-73.0-0.0,"""event"",""trial"",""time""
""fullscreenenter"",""1"",""1705""
","
","
","""event"",""trial"",""time""
""fullscreenenter"",""1"",""1705""
","
",,,,,,,,,,,,"[{""stimulus"":""run_exp/static/images/task_images/dig.jpg"",""time"":0.10000038146972656},{""stimulus"":""run_exp/static/images/task_images/land.jpg"",""time"":1005.4000000953674},{""stimulus"":""run_exp/static/images/task_images/dig.jpg"",""time"":2014.6000003814697}]",[],11,,,,,,,,,,,,,,
harvest,240,648331,0.0-73.0-1.0,"""event"",""trial"",""time""
""fullscreenenter"",""1"",""1705""
","
","
","""event"",""trial"",""time""
""fullscreenenter"",""1"",""1705""
","
",,null,run_exp/static/images/task_images/gems/19.jpg,null,,,,,,,5,,,11,,,,,19,0.26978106,0.263157895,,,,,,,
decision,241,648527,0.0-73.0-2.0,"""event"",""trial"",""time""
""fullscreenenter"",""1"",""1705""
","
","
","""event"",""trial"",""time""
""fullscreenenter"",""1"",""1705""
","
",,195.3000002,run_exp/static/images/task_images/land.jpg,76,,,,,,,5,,,11,,,,,,,,35316,2,1,TRUE,,,
travel,242,658336,0.0-74.0-0.0,"""event"",""trial"",""time""
""fullscreenenter"",""1"",""1705""
","
","
","""event"",""trial"",""time""
""fullscreenenter"",""1"",""1705""
","
",,,,,,,,,,,,"[{""stimulus"":""run_exp/static/images/task_images/rocket-01.jpg"",""time"":0},{""stimulus"":""run_exp/static/images/task_images/rocket-02.jpg"",""time"":1096.2000002861023},{""stimulus"":""run_exp/static/images/task_images/rocket-03.jpg"",""time"":2187.7000002861023},{""stimulus"":""run_exp/static/images/task_images/rocket-04.jpg"",""time"":3276.800000190735},{""stimulus"":""run_exp/static/images/task_images/rocket-05.jpg"",""time"":4365.800000190735},{""stimulus"":""run_exp/static/images/task_images/rocket-06.jpg"",""time"":5455.800000190735},{""stimulus"":""run_exp/static/images/task_images/rocket-07.jpg"",""time"":6542.599999904633},{""stimulus"":""run_exp/static/images/task_images/rocket-08.jpg"",""time"":7632.800000190735},{""stimulus"":""run_exp/static/images/task_images/rocket-09.jpg"",""time"":8719.300000190735}]",[],11,,,,,,,,,,,,,,
alien_welcome,243,663341,0.0-74.0-1.0,"""event"",""trial"",""time""
""fullscreenenter"",""1"",""1705""
","
","
","""event"",""trial"",""time""
""fullscreenenter"",""1"",""1705""
","
",,null,run_exp/static/images/task_images/aliens/old_aliens/planet/alien_planet-71.jpg,null,,,,,,,,,,,,,71,"74,48,79,69,1,9,41,13,30,29,57,71,8,25,18,16,68,66,6,27,40,24,3,80,4,19,2,10,64,47,55,61,33,49,72,53,7,73,70",,,,,,,,,,
land,244,663851,0.0-74.0-2.0,"""event"",""trial"",""time""
""fullscreenenter"",""1"",""1705""
","
","
","""event"",""trial"",""time""
""fullscreenenter"",""1"",""1705""
","
",,null,run_exp/static/images/task_images/land.jpg,null,,,,,,,101,,,12,,,,,,,,,,,,,,
dig,245,665855,0.0-74.0-3.0,"""event"",""trial"",""time""
""fullscreenenter"",""1"",""1705""
","
","
","""event"",""trial"",""time""
""fullscreenenter"",""1"",""1705""
","
",,,,,,,,,,,,"[{""stimulus"":""run_exp/static/images/task_images/dig.jpg"",""time"":0.09999990463256836},{""stimulus"":""run_exp/static/images/task_images/land.jpg"",""time"":683.9000000953674},{""stimulus"":""run_exp/static/images/task_images/dig.jpg"",""time"":1336}]",[],12,,,,,,,,,,,,,,
harvest,246,666871,0.0-74.0-4.0,"""event"",""trial"",""time""
""fullscreenenter"",""1"",""1705""
","
","
","""event"",""trial"",""time""
""fullscreenenter"",""1"",""1705""
","
",,null,run_exp/static/images/task_images/gems/101.jpg,null,,,,,,,23,,,12,,,,,101,0.231062359,0.227722772,,,,,,,
decision,247,666879,0.0-74.0-5.0,"""event"",""trial"",""time""
""fullscreenenter"",""1"",""1705""
","
","
