trial_type,trial_index,time_elapsed,internal_node_id,interactions,blur_events,focus_events,fullscreenenter_events,fullscreenexit_events,success,rt,stimulus,key_press,prompt,subject_id,participant_id,age,gender,button_pressed,next_reward,animation_sequence,responses,planet,curr_prac_trial,n_prac_rounds,alien,aliens,reward_received,decay_rate_actual,decay_rate_exp,time_in_block,block_num,prt,last_trial_on_planet,button_html,bonus,num_failures
pavlovia,0,2,0.0-0.0,"""event"",""trial"",""time""
""fullscreenenter"",""1"",""3794""
","
","
","""event"",""trial"",""time""
""fullscreenenter"",""1"",""3794""
","
",,,,,,,,,,,,,,,,,,,,,,,,,,,,
fullscreen,1,4729,0.0-1.0,"""event"",""trial"",""time""
""fullscreenenter"",""1"",""3794""
","
","
","""event"",""trial"",""time""
""fullscreenenter"",""1"",""3794""
","
",TRUE,,,,,,,,,,,,,,,,,,,,,,,,,,,
instruc_welcome,2,14495,0.0-2.0,"""event"",""trial"",""time""
""fullscreenenter"",""1"",""3794""
","
","
","""event"",""trial"",""time""
""fullscreenenter"",""1"",""3794""
","
",,null,run_exp/static/audio/clip_1_welcome.m4a,null,"<p>Howdy! In this experiment, you’ll be an explorer traveling through space to collect space treasure.</p><p>Your mission is to collect as much treasure as possible.</p><br><br><p><img src='run_exp/static/images/task_images/opening_img-01.jpg' height='300' width='auto'></p>",10015,2085,14.42,Female,,,,,,,,,,,,,,,,,,,
audio-keyboard-response,3,31096,0.0-3.0,"""event"",""trial"",""time""
""fullscreenenter"",""1"",""3794""
","
","
","""event"",""trial"",""time""
""fullscreenenter"",""1"",""3794""
","
",,null,run_exp/static/audio/clip_2_move.m4a,null,,,,,,,,,,,,,,,,,,,,,,,,
welcome_dec,4,41997,0.0-4.0,"""event"",""trial"",""time""
""fullscreenenter"",""1"",""3794""
","
","
","""event"",""trial"",""time""
""fullscreenenter"",""1"",""3794""
","
",,10899.7,"<p>Howdy! In this experiment, you’ll be an explorer traveling through space to collect space treasure.</p><p>Your mission is to collect as much treasure as possible.</p><br><br><p><img src='run_exp/static/images/task_images/opening_img-01.jpg' height='300' width='auto'></p>",,,,,,,0,,,,,,,,,,,,,,,,,,
html-keyboard-response,5,43319,0.0-5.0,"""event"",""trial"",""time""
""fullscreenenter"",""1"",""3794""
","
","
","""event"",""trial"",""time""
""fullscreenenter"",""1"",""3794""
","
",,1319.8,"<p>Howdy! In this experiment, you’ll be an explorer traveling through space to collect space treasure.</p><p>Your mission is to collect as much treasure as possible.</p><br><br><p><img src='run_exp/static/images/task_images/opening_img-01.jpg' height='300' width='auto'></p><button class=""jspsych-html-btn-chosen""><img src=""run_exp/static/images/task_images/planet-01.jpg"" height=""50""></button><button class=""jspsych-html-btn-unchosen""><img src=""run_exp/static/images/task_images/planet-02.jpg"" height=""50""></button><p><b>[press the space bar to lock in your answer]<b><br></p>",32,,,,,,,,,,,,,,,,,,,,,,,,
instruc_welcome,6,53040,0.0-6.0-0.0,"""event"",""trial"",""time""
""fullscreenenter"",""1"",""3794""
","
","
","""event"",""trial"",""time""
""fullscreenenter"",""1"",""3794""
","
",,null,run_exp/static/audio/clip_1_welcome.m4a,null,"<p>Howdy! In this experiment, you’ll be an explorer traveling through space to collect space treasure.</p><p>Your mission is to collect as much treasure as possible.</p><br><br><p><img src='run_exp/static/images/task_images/opening_img-01.jpg' height='300' width='auto'></p>",10015,2085,14.42,Female,,,,,,,,,,,,,,,,,,,
audio-keyboard-response,7,69641,0.0-6.0-1.0,"""event"",""trial"",""time""
""fullscreenenter"",""1"",""3794""
","
","
","""event"",""trial"",""time""
""fullscreenenter"",""1"",""3794""
","
",,null,run_exp/static/audio/clip_2_move.m4a,null,,,,,,,,,,,,,,,,,,,,,,,,
welcome_dec,8,72048,0.0-6.0-2.0,"""event"",""trial"",""time""
""fullscreenenter"",""1"",""3794""
","
","
","""event"",""trial"",""time""
""fullscreenenter"",""1"",""3794""
","
",,2404.9,"<p>Howdy! In this experiment, you’ll be an explorer traveling through space to collect space treasure.</p><p>Your mission is to collect as much treasure as possible.</p><br><br><p><img src='run_exp/static/images/task_images/opening_img-01.jpg' height='300' width='auto'></p>",,,,,,,1,,,,,,,,,,,,,,,,,,
html-keyboard-response,9,72431,0.0-6.0-3.0,"""event"",""trial"",""time""
""fullscreenenter"",""1"",""3794""
","
","
","""event"",""trial"",""time""
""fullscreenenter"",""1"",""3794""
","
",,382.3,"<p>Howdy! In this experiment, you’ll be an explorer traveling through space to collect space treasure.</p><p>Your mission is to collect as much treasure as possible.</p><br><br><p><img src='run_exp/static/images/task_images/opening_img-01.jpg' height='300' width='auto'></p><button class=""jspsych-html-btn-unchosen""><img src=""run_exp/static/images/task_images/planet-01.jpg"" height=""50""></button><button class=""jspsych-html-btn-chosen""><img src=""run_exp/static/images/task_images/planet-02.jpg"" height=""50""></button><p><b>[press the space bar to lock in your answer]<b><br></p>",32,,,,,,,,,,,,,,,,,,,,,,,,
instruc_goal,10,82501,0.0-7.0-0.0,"""event"",""trial"",""time""
""fullscreenenter"",""1"",""3794""
","
","
","""event"",""trial"",""time""
""fullscreenenter"",""1"",""3794""
","
",,null,run_exp/static/audio/clip_3_goal.m4a,null,"<p> As a space explorer, you’ll visit different planets to dig for space treasure, these pink gems.</p> <p> The more treasure you dig up, the more bonus money you’ll win! </p><br><br><p><img src='run_exp/static/images/task_images/pink_gem.jpg' height='300' width='auto'></p>",,,,,,,,,,,,,,,,,,,,,,,
instruc_goal,11,85176,0.0-7.0-1.0,"""event"",""trial"",""time""
""fullscreenenter"",""1"",""3794""
","
","
","""event"",""trial"",""time""
""fullscreenenter"",""1"",""3794""
","
",,2672.7,"<p> As a space explorer, you’ll visit different planets to dig for space treasure, these pink gems.</p> <p> The more treasure you dig up, the more bonus money you’ll win! </p><br><br><p><img src='run_exp/static/images/task_images/pink_gem.jpg' height='300' width='auto'></p>",,,,,,,1,,,,,,,,,,,,,,,,,,
html-keyboard-response,12,85287,0.0-7.0-2.0,"""event"",""trial"",""time""
""fullscreenenter"",""1"",""3794""
","
","
","""event"",""trial"",""time""
""fullscreenenter"",""1"",""3794""
","
",,110.8,"<p> As a space explorer, you’ll visit different planets to dig for space treasure, these pink gems.</p> <p> The more treasure you dig up, the more bonus money you’ll win! </p><br><br><p><img src='run_exp/static/images/task_images/pink_gem.jpg' height='300' width='auto'></p><button class=""jspsych-html-btn-unchosen""><img src=""run_exp/static/images/task_images/planet-01.jpg"" height=""50""></button><button class=""jspsych-html-btn-chosen""><img src=""run_exp/static/images/task_images/planet-02.jpg"" height=""50""></button><p><b>[press the space bar to lock in your answer]<b><br></p>",32,,,,,,,,,,,,,,,,,,,,,,,,
instruc_dig,13,101301,0.0-8.0-0.0,"""event"",""trial"",""time""
""fullscreenenter"",""1"",""3794""
","
","
","""event"",""trial"",""time""
""fullscreenenter"",""1"",""3794""
","
",,null,run_exp/static/audio/clip_4_dig.m4a,null,,,,,,,100,,,,,,,,,,,,,,,,,
instruc_dig_try,14,101663,0.0-8.0-1.0,"""event"",""trial"",""time""
""fullscreenenter"",""1"",""3794""
","
","
","""event"",""trial"",""time""
""fullscreenenter"",""1"",""3794""
","
",,361.1,"<p> When you’ve arrived at a new planet, you will dig once. </p> <p>Then, you get to decide if you want to stay on the planet and dig again or travel to a new planet and dig there.</p> <p> To stay and dig, press the letter <strong>‘A’</strong> on your keyboard. Try pressing it now! </p><p><img src='run_exp/static/images/task_images/land.jpg'  height='700' width='auto'></p>",65,"<p> When you’ve arrived at a new planet, you will dig once. </p> <p>Then, you get to decide if you want to stay on the planet and dig again or travel to a new planet and dig there.</p> <p> To stay and dig, press the letter <strong>‘A’</strong> on your keyboard. Try pressing it now! </p><p><img src='run_exp/static/images/task_images/land.jpg'  height='700' width='auto'></p>",,,,,,100,,,,,,,,,,,,,,,,,
dig_prac,15,103683,0.0-8.0-2.0,"""event"",""trial"",""time""
""fullscreenenter"",""1"",""3794""
","
","
","""event"",""trial"",""time""
""fullscreenenter"",""1"",""3794""
","
",,,,,,,,,,,,"[{""stimulus"":""run_exp/static/images/task_images/dig.jpg"",""time"":0.30000000074505806},{""stimulus"":""run_exp/static/images/task_images/land.jpg"",""time"":679.1999999992549},{""stimulus"":""run_exp/static/images/task_images/dig.jpg"",""time"":1337.800000000745}]",[],,,,,,,,,,,,,,,
instruc_travel,16,139942,0.0-8.0-3.0,"""event"",""trial"",""time""
""fullscreenenter"",""1"",""3794""
","
","
","""event"",""trial"",""time""
""fullscreenenter"",""1"",""3794""
","
",,null,run_exp/static/audio/clip_5_travel.m4a,null,"<p>Every time you dig up gems, there are less gems on the planet, so the more you dig on a planet the fewer gems you’ll get with each dig.</p><p>When gems are running low, you may want to travel to a new planet. </p> <p>  Planets are very far apart in this galaxy, so it will take some time to travel between them. </p> <br><p>There are lots and lots of planets for you to visit, so you won’t be able to return to any planets you’ve seen before. </p><br><p>To leave this planet and travel to a new one, press the letter <strong>‘L’</strong> on your keyboard. Try pressing it now! </p><p><img src='run_exp/static/images/task_images/rocket-01.jpg'  height='600' width='auto'></p>",,,,,,,,,,,,,,,,,,,,,,,
instruc_travel_try,17,142753,0.0-8.0-4.0,"""event"",""trial"",""time""
""fullscreenenter"",""1"",""3794""
","
","
","""event"",""trial"",""time""
""fullscreenenter"",""1"",""3794""
","
",,2809.9,"<p>Every time you dig up gems, there are less gems on the planet, so the more you dig on a planet the fewer gems you’ll get with each dig.</p><p>When gems are running low, you may want to travel to a new planet. </p> <p>  Planets are very far apart in this galaxy, so it will take some time to travel between them. </p> <br><p>There are lots and lots of planets for you to visit, so you won’t be able to return to any planets you’ve seen before. </p><br><p>To leave this planet and travel to a new one, press the letter <strong>‘L’</strong> on your keyboard. Try pressing it now! </p><p><img src='run_exp/static/images/task_images/rocket-01.jpg'  height='600' width='auto'></p>",76,"<p>Every time you dig up gems, there are less gems on the planet, so the more you dig on a planet the fewer gems you’ll get with each dig.</p><p>When gems are running low, you may want to travel to a new planet. </p> <p>  Planets are very far apart in this galaxy, so it will take some time to travel between them. </p> <br><p>There are lots and lots of planets for you to visit, so you won’t be able to return to any planets you’ve seen before. </p><br><p>To leave this planet and travel to a new one, press the letter <strong>‘L’</strong> on your keyboard. Try pressing it now! </p><p><img src='run_exp/static/images/task_images/rocket-01.jpg'  height='600' width='auto'></p>",,,,,,,,,,,,,,,,,,,,,,,
travel_prac,18,152758,0.0-8.0-5.0,"""event"",""trial"",""time""
""fullscreenenter"",""1"",""3794""
","
","
","""event"",""trial"",""time""
""fullscreenenter"",""1"",""3794""
","
",,,,,,,,,,,,"[{""stimulus"":""run_exp/static/images/task_images/rocket-01.jpg"",""time"":0.20000000298023224},{""stimulus"":""run_exp/static/images/task_images/rocket-02.jpg"",""time"":1119.2000000029802},{""stimulus"":""run_exp/static/images/task_images/rocket-03.jpg"",""time"":2226.900000002235},{""stimulus"":""run_exp/static/images/task_images/rocket-04.jpg"",""time"":3338.400000002235},{""stimulus"":""run_exp/static/images/task_images/rocket-05.jpg"",""time"":4457.300000000745},{""stimulus"":""run_exp/static/images/task_images/rocket-06.jpg"",""time"":5567},{""stimulus"":""run_exp/static/images/task_images/rocket-07.jpg"",""time"":6676.10000000149},{""stimulus"":""run_exp/static/images/task_images/rocket-08.jpg"",""time"":7789.300000000745},{""stimulus"":""run_exp/static/images/task_images/rocket-09.jpg"",""time"":8891.800000000745}]",[],0,,,,,,,,,,,,,,
instruc_alien_greet,19,179955,0.0-8.0-6.0,"""event"",""trial"",""time""
""fullscreenenter"",""1"",""3794""
","
","
","""event"",""trial"",""time""
""fullscreenenter"",""1"",""3794""
","
",,null,run_exp/static/audio/clip_6_alien.m4a,null,"<p>When you arrive at a new planet, the alien who owns the treasure mine on that planet will greet you!</p><p>The better an alien takes care of their mine the easier it is to dig for gems. Some aliens take better care of their mine than others. So, you won’t get exactly the same amount of gems on each planet.</p><p>What the alien looks like does not tell you anything about how many gems there are on the planet.</p><br><p><img src=""run_exp/static/images/task_images/aliens/instructions_aliens/planet/alien_planet-1.jpg""  height=""600"" width=""auto""></p>",,,,,,,,,,,,,,,,,,,,,,,
instruc_alien_greet,20,182310,0.0-8.0-7.0,"""event"",""trial"",""time""
""fullscreenenter"",""1"",""3794""
","
","
","""event"",""trial"",""time""
""fullscreenenter"",""1"",""3794""
","
",,2354.3,"<p>When you arrive at a new planet, the alien who owns the treasure mine on that planet will greet you!</p><p>The better an alien takes care of their mine the easier it is to dig for gems. Some aliens take better care of their mine than others. So, you won’t get exactly the same amount of gems on each planet.</p><p>What the alien looks like does not tell you anything about how many gems there are on the planet.</p><br><p><img src=""run_exp/static/images/task_images/aliens/instructions_aliens/planet/alien_planet-1.jpg""  height=""600"" width=""auto""></p>",,,,,,,1,,,,,,,,,,,,,,,,,,
html-keyboard-response,21,182483,0.0-8.0-8.0,"""event"",""trial"",""time""
""fullscreenenter"",""1"",""3794""
","
","
","""event"",""trial"",""time""
""fullscreenenter"",""1"",""3794""
","
",,171.2,"<p>When you arrive at a new planet, the alien who owns the treasure mine on that planet will greet you!</p><p>The better an alien takes care of their mine the easier it is to dig for gems. Some aliens take better care of their mine than others. So, you won’t get exactly the same amount of gems on each planet.</p><p>What the alien looks like does not tell you anything about how many gems there are on the planet.</p><br><p><img src=""run_exp/static/images/task_images/aliens/instructions_aliens/planet/alien_planet-1.jpg""  height=""600"" width=""auto""></p><button class=""jspsych-html-btn-unchosen""><img src=""run_exp/static/images/task_images/planet-01.jpg"" height=""50""></button><button class=""jspsych-html-btn-chosen""><img src=""run_exp/static/images/task_images/planet-02.jpg"" height=""50""></button><p><b>[press the space bar to lock in your answer]<b><br></p>",32,,,,,,,,,,,,,,,,,,,,,,,,
time_out,22,193575,0.0-9.0-0.0,"""event"",""trial"",""time""
""fullscreenenter"",""1"",""3794""
","
","
","""event"",""trial"",""time""
""fullscreenenter"",""1"",""3794""
","
",,null,run_exp/static/audio/clip_7_timeout.m4a,null,"<p>If you don't make your choice fast enough, you’ll have to wait a few seconds before you can make another one.</p><p>You can’t dig for more gems or travel to new planets. You just have to sit and wait.</p><br><p><img src='run_exp/static/images/task_images/time_out.jpg'  height='600' width='auto'></p>",,,,,,,,,,,,,,,,,,,,,,,
time_out,23,195943,0.0-9.0-1.0,"""event"",""trial"",""time""
""fullscreenenter"",""1"",""3794""
","
","
","""event"",""trial"",""time""
""fullscreenenter"",""1"",""3794""
","
",,2367,"<p>If you don't make your choice fast enough, you’ll have to wait a few seconds before you can make another one.</p><p>You can’t dig for more gems or travel to new planets. You just have to sit and wait.</p><br><p><img src='run_exp/static/images/task_images/time_out.jpg'  height='600' width='auto'></p>",,,,,,,1,,,,,,,,,,,,,,,,,,
html-keyboard-response,24,196035,0.0-9.0-2.0,"""event"",""trial"",""time""
""fullscreenenter"",""1"",""3794""
","
","
","""event"",""trial"",""time""
""fullscreenenter"",""1"",""3794""
","
",,90.8,"<p>If you don't make your choice fast enough, you’ll have to wait a few seconds before you can make another one.</p><p>You can’t dig for more gems or travel to new planets. You just have to sit and wait.</p><br><p><img src='run_exp/static/images/task_images/time_out.jpg'  height='600' width='auto'></p><button class=""jspsych-html-btn-unchosen""><img src=""run_exp/static/images/task_images/planet-01.jpg"" height=""50""></button><button class=""jspsych-html-btn-chosen""><img src=""run_exp/static/images/task_images/planet-02.jpg"" height=""50""></button><p><b>[press the space bar to lock in your answer]<b><br></p>",32,,,,,,,,,,,,,,,,,,,,,,,,
instruc_break,25,211716,0.0-10.0-0.0,"""event"",""trial"",""time""
""fullscreenenter"",""1"",""3794""
","
","
","""event"",""trial"",""time""
""fullscreenenter"",""1"",""3794""
","
",,null,run_exp/static/audio/clip_8_break.m4a,null,"<p> After digging and traveling for a while, you’ll be able to take a break at home base. </p><p>The game will last 20 minutes no matter what.</p><p>You will visit home base every 5 minutes, so, you will visit home base three times during the game.</p><br><p><img src='run_exp/static/images/task_images/home_base.jpg' height='600' width='auto'></p>",,,,,,,,,,,,,,,,,,,,,,,
instruc_break,26,214923,0.0-10.0-1.0,"""event"",""trial"",""time""
""fullscreenenter"",""1"",""3794""
","
","
","""event"",""trial"",""time""
""fullscreenenter"",""1"",""3794""
","
",,3206.2,"<p> After digging and traveling for a while, you’ll be able to take a break at home base. </p><p>The game will last 20 minutes no matter what.</p><p>You will visit home base every 5 minutes, so, you will visit home base three times during the game.</p><br><p><img src='run_exp/static/images/task_images/home_base.jpg' height='600' width='auto'></p>",,,,,,,1,,,,,,,,,,,,,,,,,,
html-keyboard-response,27,215252,0.0-10.0-2.0,"""event"",""trial"",""time""
""fullscreenenter"",""1"",""3794""
","
","
","""event"",""trial"",""time""
""fullscreenenter"",""1"",""3794""
","
",,328.2,"<p> After digging and traveling for a while, you’ll be able to take a break at home base. </p><p>The game will last 20 minutes no matter what.</p><p>You will visit home base every 5 minutes, so, you will visit home base three times during the game.</p><br><p><img src='run_exp/static/images/task_images/home_base.jpg' height='600' width='auto'></p><button class=""jspsych-html-btn-unchosen""><img src=""run_exp/static/images/task_images/planet-01.jpg"" height=""50""></button><button class=""jspsych-html-btn-chosen""><img src=""run_exp/static/images/task_images/planet-02.jpg"" height=""50""></button><p><b>[press the space bar to lock in your answer]<b><br></p>",32,,,,,,,,,,,,,,,,,,,,,,,,
instruc_prac_game,28,225396,0.0-11.0-0.0,"""event"",""trial"",""time""
""fullscreenenter"",""1"",""3794""
","
","
","""event"",""trial"",""time""
""fullscreenenter"",""1"",""3794""
","
",,null,run_exp/static/audio/clip_9_practice.m4a,null,"<p> Are you ready to play a practice game? </p> <p>In this practice game, you'll be digging up barrels of gems. But, in the real game, you'll be digging up the gems themselves. </p>",,,,,,,,,,,,,,,,,,,,,,,
html-button-response,29,234000,0.0-11.0-1.0,"""event"",""trial"",""time""
""fullscreenenter"",""1"",""3794""
","
","
","""event"",""trial"",""time""
""fullscreenenter"",""1"",""3794""
","
",,8603,"<p> Are you ready to play a practice game? </p> <p>In this practice game, you'll be digging up barrels of gems. But, in the real game, you'll be digging up the gems themselves. </p>",,,,,,,0,,,,,,,,,,,,,,,,,,
alien_welcome_prac,30,239017,0.0-12.0-0.0,"""event"",""trial"",""time""
""fullscreenenter"",""1"",""3794""
","
","
","""event"",""trial"",""time""
""fullscreenenter"",""1"",""3794""
","
",,null,run_exp/static/images/task_images/aliens/practice_aliens/planet/alien_planet-5.jpg,null,,,,,,,,,,,,,,,,,,,,,,,,
land_prac,31,239533,0.0-12.0-1.0,"""event"",""trial"",""time""
""fullscreenenter"",""1"",""3794""
","
","
","""event"",""trial"",""time""
""fullscreenenter"",""1"",""3794""
","
",,null,run_exp/static/images/task_images/land.jpg,null,,,,,,,107,,,0,,,,,,,,,,,,,,
dig_prac,32,241544,0.0-12.0-2.0,"""event"",""trial"",""time""
""fullscreenenter"",""1"",""3794""
","
","
","""event"",""trial"",""time""
""fullscreenenter"",""1"",""3794""
","
",,,,,,,,,,,,"[{""stimulus"":""run_exp/static/images/task_images/dig.jpg"",""time"":0.30000000074505806},{""stimulus"":""run_exp/static/images/task_images/land.jpg"",""time"":674.6000000014901},{""stimulus"":""run_exp/static/images/task_images/dig.jpg"",""time"":1339.9000000022352}]",[],,,,,,,,,,,,,,,
harvest_prac,33,242546,0.0-12.0-3.0,"""event"",""trial"",""time""
""fullscreenenter"",""1"",""3794""
","
","
","""event"",""trial"",""time""
""fullscreenenter"",""1"",""3794""
","
",,null,run_exp/static/images/task_images/barrel_text.jpg,null,,,,,,,,,,,,,,,,,,,,,,,,
decision_prac,34,242900,0.0-12.0-4.0,"""event"",""trial"",""time""
""fullscreenenter"",""1"",""3794""
","
","
","""event"",""trial"",""time""
""fullscreenenter"",""1"",""3794""
","
",,352.9,run_exp/static/images/task_images/land.jpg,65,,,,,,,,,,,1,,,,,,,,,,,,,
dig_prac,35,244909,0.0-13.0-0.0,"""event"",""trial"",""time""
""fullscreenenter"",""1"",""3794""
","
","
","""event"",""trial"",""time""
""fullscreenenter"",""1"",""3794""
","
",,,,,,,,,,,,"[{""stimulus"":""run_exp/static/images/task_images/dig.jpg"",""time"":0.09999999776482582},{""stimulus"":""run_exp/static/images/task_images/land.jpg"",""time"":673.1999999992549},{""stimulus"":""run_exp/static/images/task_images/dig.jpg"",""time"":1348.5999999977648}]",[],,,,,,,,,,,,,,,
harvest_prac,36,245912,0.0-13.0-1.0,"""event"",""trial"",""time""
""fullscreenenter"",""1"",""3794""
","
","
","""event"",""trial"",""time""
""fullscreenenter"",""1"",""3794""
","
",,null,run_exp/static/images/task_images/barrel_text.jpg,null,,,,,,,,,,,,,,,,,,,,,,,,
decision_prac,37,246012,0.0-13.0-2.0,"""event"",""trial"",""time""
""fullscreenenter"",""1"",""3794""
","
","
","""event"",""trial"",""time""
""fullscreenenter"",""1"",""3794""
","
",,99.4,run_exp/static/images/task_images/land.jpg,65,,,,,,,,,,,2,,,,,,,,,,,,,
dig_prac,38,248019,0.0-14.0-0.0,"""event"",""trial"",""time""
""fullscreenenter"",""1"",""3794""
","
","
","""event"",""trial"",""time""
""fullscreenenter"",""1"",""3794""
","
",,,,,,,,,,,,"[{""stimulus"":""run_exp/static/images/task_images/dig.jpg"",""time"":0.19999999925494194},{""stimulus"":""run_exp/static/images/task_images/land.jpg"",""time"":675.4000000022352},{""stimulus"":""run_exp/static/images/task_images/dig.jpg"",""time"":1342.699999999255}]",[],,,,,,,,,,,,,,,
harvest_prac,39,249020,0.0-14.0-1.0,"""event"",""trial"",""time""
""fullscreenenter"",""1"",""3794""
","
","
","""event"",""trial"",""time""
""fullscreenenter"",""1"",""3794""
","
",,null,run_exp/static/images/task_images/barrel_text.jpg,null,,,,,,,,,,,,,,,,,,,,,,,,
decision_prac,40,249196,0.0-14.0-2.0,"""event"",""trial"",""time""
""fullscreenenter"",""1"",""3794""
","
","
","""event"",""trial"",""time""
""fullscreenenter"",""1"",""3794""
","
",,175.2,run_exp/static/images/task_images/land.jpg,65,,,,,,,,,,,3,,,,,,,,,,,,,
dig_prac,41,251208,0.0-15.0-0.0,"""event"",""trial"",""time""
""fullscreenenter"",""1"",""3794""
","
","
","""event"",""trial"",""time""
""fullscreenenter"",""1"",""3794""
","
",,,,,,,,,,,,"[{""stimulus"":""run_exp/static/images/task_images/dig.jpg"",""time"":0.19999999925494194},{""stimulus"":""run_exp/static/images/task_images/land.jpg"",""time"":680.3000000007451},{""stimulus"":""run_exp/static/images/task_images/dig.jpg"",""time"":1347.699999999255}]",[],,,,,,,,,,,,,,,
harvest_prac,42,252212,0.0-15.0-1.0,"""event"",""trial"",""time""
""fullscreenenter"",""1"",""3794""
","
","
","""event"",""trial"",""time""
""fullscreenenter"",""1"",""3794""
","
",,null,run_exp/static/images/task_images/barrel_text.jpg,null,,,,,,,,,,,,,,,,,,,,,,,,
decision_prac,43,252229,0.0-15.0-2.0,"""event"",""trial"",""time""
""fullscreenenter"",""1"",""3794""
","
","
","""event"",""trial"",""time""
""fullscreenenter"",""1"",""3794""
","
",,15.4,run_exp/static/images/task_images/land.jpg,65,,,,,,,,,,,4,,,,,,,,,,,,,
dig_prac,44,254234,0.0-16.0-0.0,"""event"",""trial"",""time""
""fullscreenenter"",""1"",""3794""
","
","
","""event"",""trial"",""time""
""fullscreenenter"",""1"",""3794""
","
",,,,,,,,,,,,"[{""stimulus"":""run_exp/static/images/task_images/dig.jpg"",""time"":0.09999999776482582},{""stimulus"":""run_exp/static/images/task_images/land.jpg"",""time"":682.8999999985099},{""stimulus"":""run_exp/static/images/task_images/dig.jpg"",""time"":1345}]",[],,,,,,,,,,,,,,,
harvest_prac,45,255240,0.0-16.0-1.0,"""event"",""trial"",""time""
""fullscreenenter"",""1"",""3794""
","
","
","""event"",""trial"",""time""
""fullscreenenter"",""1"",""3794""
","
",,null,run_exp/static/images/task_images/barrel_text.jpg,null,,,,,,,,,,,,,,,,,,,,,,,,
decision_prac,46,255301,0.0-16.0-2.0,"""event"",""trial"",""time""
""fullscreenenter"",""1"",""3794""
","
","
","""event"",""trial"",""time""
""fullscreenenter"",""1"",""3794""
","
",,59.5,run_exp/static/images/task_images/land.jpg,65,,,,,,,,,,,,1,,,,,,,,,,,,
quiz_instruc,47,259173,0.0-17.0-0.0,"""event"",""trial"",""time""
""fullscreenenter"",""1"",""3794""
","
","
","""event"",""trial"",""time""
""fullscreenenter"",""1"",""3794""
","
",,3870.1,run_exp/static/audio/clip_10_quiz.m4a,,,,,,,0,,,,,,,,,,,,,,,,,,
instruc_repeat,48,301942,0.0-17.0-1.0,"""event"",""trial"",""time""
""fullscreenenter"",""1"",""3794""
","
","
","""event"",""trial"",""time""
""fullscreenenter"",""1"",""3794""
","
",,null,"<p> Are you ready to play a practice game? </p> <p>In this practice game, you'll be digging up barrels of gems. But, in the real game, you'll be digging up the gems themselves. </p>",null,"<p>In this game, your goal is to collect as many gems as you can. That’s how you will win bonus money. </p> <p>The entire game will last 20 minutes no matter how many gems you collect or how many planets you visit. </p><p>To stay on a planet and dig again, press the letter A on your keyboard. To leave for a new planet, press the letter L.</p><p>The more you dig on a planet, the fewer gems you’ll get with each dig which is why you might consider leaving for a new planet. </p><p>When you arrive at a new planet, you’ll be greeted by an alien. What the alien looks like does not tell you anything about how much treasure is on the planet. </p>",,,,,,,,,,,,,,,,,,,,,,,
instruc_repeat_continue,49,308128,0.0-17.0-2.0,"""event"",""trial"",""time""
""fullscreenenter"",""1"",""3794""
","
","
","""event"",""trial"",""time""
""fullscreenenter"",""1"",""3794""
","
",,6184.9,"<p> Are you ready to play a practice game? </p> <p>In this practice game, you'll be digging up barrels of gems. But, in the real game, you'll be digging up the gems themselves. </p>",,,,,,,0,,,,,,,,,,,,,,,,,,
quiz_q_1_ask,50,311598,0.0-17.0-3.0,"""event"",""trial"",""time""
""fullscreenenter"",""1"",""3794""
","
","
","""event"",""trial"",""time""
""fullscreenenter"",""1"",""3794""
","
",,3468.9,run_exp/static/audio/clip_11_q1_ask.m4a,,,,,,,2,,,,,,,,,,,,,,,,,,
quiz_q_1_fb_correct,51,315443,0.0-18.0-0.0,"""event"",""trial"",""time""
""fullscreenenter"",""1"",""3794""
","
","
","""event"",""trial"",""time""
""fullscreenenter"",""1"",""3794""
","
",,null,run_exp/static/audio/clip_12_q1_correct.m4a,null,<p>That’s correct. You win extra money by collecting more gems.</p>,,,,,,,,,,,,,,,,,,,,,,,
quiz_q_2_ask,52,323019,0.0-18.0-1.0,"""event"",""trial"",""time""
""fullscreenenter"",""1"",""3794""
","
","
","""event"",""trial"",""time""
""fullscreenenter"",""1"",""3794""
","
",,7574.3,run_exp/static/audio/clip_14_q2_ask.m4a,,,,,,,1,,,,,,,,,,,,,,,,,,
quiz_q_2_fb_correct,53,327043,0.0-19.0-0.0,"""event"",""trial"",""time""
""fullscreenenter"",""1"",""3794""
","
","
","""event"",""trial"",""time""
""fullscreenenter"",""1"",""3794""
","
",,null,run_exp/static/audio/clip_15_q2_correct.m4a,null,<p>That’s correct. The experiment is 20 minutes no matter what.</p>,,,,,,,,,,,,,,,,,,,,,,,
quiz_q_3_ask,54,333181,0.0-19.0-1.0,"""event"",""trial"",""time""
""fullscreenenter"",""1"",""3794""
","
","
","""event"",""trial"",""time""
""fullscreenenter"",""1"",""3794""
","
",,6137,run_exp/static/audio/clip_17_q3_ask.m4a,,,,,,,1,,,,,,,,,,,,,,,,,,
quiz_q_3_fb_correct,55,337183,0.0-20.0-0.0,"""event"",""trial"",""time""
""fullscreenenter"",""1"",""3794""
","
","
","""event"",""trial"",""time""
""fullscreenenter"",""1"",""3794""
","
",,null,run_exp/static/audio/clip_18_q3_correct.m4a,null,<p> That’s correct. You press the letter L to travel to a new planet.</p>,,,,,,,,,,,,,,,,,,,,,,,
quiz_q_4_ask,56,345745,0.0-20.0-1.0,"""event"",""trial"",""time""
""fullscreenenter"",""1"",""3794""
","
","
","""event"",""trial"",""time""
""fullscreenenter"",""1"",""3794""
","
",,8560.3,run_exp/static/audio/clip_20_q4_ask.m4a,,,,,,,1,,,,,,,,,,,,,,,,,,
quiz_q_4_fb_incorrect,57,351564,0.0-21.0-0.0,"""event"",""trial"",""time""
""fullscreenenter"",""1"",""3794""
","
","
","""event"",""trial"",""time""
""fullscreenenter"",""1"",""3794""
","
",,null,run_exp/static/audio/clip_22_q4_incorrect.m4a,null,<p>That’s incorrect.  The more you dig on a planet the fewer gems you’ll get with each dig.</p>,,,,,,,,,,,,,,,,,,,,,,,
quiz_q_5_ask,58,354038,0.0-21.0-1.0,"""event"",""trial"",""time""
""fullscreenenter"",""1"",""3794""
","
","
","""event"",""trial"",""time""
""fullscreenenter"",""1"",""3794""
","
",,2472.6,run_exp/static/audio/clip_23_q5_ask.m4a,,,,,,,1,,,,,,,,,,,,,,,,,,
quiz_q_5_fb_correct,59,359045,0.0-22.0-0.0,"""event"",""trial"",""time""
""fullscreenenter"",""1"",""3794""
","
","
","""event"",""trial"",""time""
""fullscreenenter"",""1"",""3794""
","
",,null,run_exp/static/audio/clip_24_q5_correct.m4a,null,<p> That’s correct. The alien tells you nothing about how much treasure is on the planet.</p>,,,,,,,,,,,,,,,,,,,,,,,
quiz_incorrect,60,364604,0.0-23.0-0.0,"""event"",""trial"",""time""
""fullscreenenter"",""1"",""3794""
","
","
","""event"",""trial"",""time""
""fullscreenenter"",""1"",""3794""
","
",,null,run_exp/static/audio/clip_27_incorrect_quiz.m4a,null,,,,,,,,,,,,,,,,,,,,,,,,
quiz_incorrect_continue,61,366342,0.0-23.0-1.0,"""event"",""trial"",""time""
""fullscreenenter"",""1"",""3794""
","
","
","""event"",""trial"",""time""
""fullscreenenter"",""1"",""3794""
","
",,1736,"<p>Oops, you missed some questions.</p><p>Now that you’ve heard the correct answers. Try the quiz again!</p>",,,,,,,0,,,,,,,,,,,,,,,,,,
quiz_q_1_ask,62,367985,0.0-23.0-2.0,"""event"",""trial"",""time""
""fullscreenenter"",""1"",""3794""
","
","
","""event"",""trial"",""time""
""fullscreenenter"",""1"",""3794""
","
",,1641.9,run_exp/static/audio/clip_11_q1_ask.m4a,,,,,,,2,,,,,,,,,,,,,,,,,,
quiz_q_1_fb_correct,63,371845,0.0-24.0-0.0,"""event"",""trial"",""time""
""fullscreenenter"",""1"",""3794""
","
","
","""event"",""trial"",""time""
""fullscreenenter"",""1"",""3794""
","
",,null,run_exp/static/audio/clip_12_q1_correct.m4a,null,<p>That’s correct. You win extra money by collecting more gems.</p>,,,,,,,,,,,,,,,,,,,,,,,
quiz_q_2_ask,64,373093,0.0-24.0-1.0,"""event"",""trial"",""time""
""fullscreenenter"",""1"",""3794""
","
","
","""event"",""trial"",""time""
""fullscreenenter"",""1"",""3794""
","
",,1246.3,run_exp/static/audio/clip_14_q2_ask.m4a,,,,,,,1,,,,,,,,,,,,,,,,,,
quiz_q_2_fb_correct,65,377105,0.0-25.0-0.0,"""event"",""trial"",""time""
""fullscreenenter"",""1"",""3794""
","
","
","""event"",""trial"",""time""
""fullscreenenter"",""1"",""3794""
","
",,null,run_exp/static/audio/clip_15_q2_correct.m4a,null,<p>That’s correct. The experiment is 20 minutes no matter what.</p>,,,,,,,,,,,,,,,,,,,,,,,
quiz_q_3_ask,66,378091,0.0-25.0-1.0,"""event"",""trial"",""time""
""fullscreenenter"",""1"",""3794""
","
","
","""event"",""trial"",""time""
""fullscreenenter"",""1"",""3794""
","
",,985.1,run_exp/static/audio/clip_17_q3_ask.m4a,,,,,,,1,,,,,,,,,,,,,,,,,,
quiz_q_3_fb_correct,67,382085,0.0-26.0-0.0,"""event"",""trial"",""time""
""fullscreenenter"",""1"",""3794""
","
","
","""event"",""trial"",""time""
""fullscreenenter"",""1"",""3794""
","
",,null,run_exp/static/audio/clip_18_q3_correct.m4a,null,<p> That’s correct. You press the letter L to travel to a new planet.</p>,,,,,,,,,,,,,,,,,,,,,,,
quiz_q_4_ask,68,383661,0.0-26.0-1.0,"""event"",""trial"",""time""
""fullscreenenter"",""1"",""3794""
","
","
","""event"",""trial"",""time""
""fullscreenenter"",""1"",""3794""
","
",,1574.7,run_exp/static/audio/clip_20_q4_ask.m4a,,,,,,,0,,,,,,,,,,,,,,,,,,
quiz_q_4_fb_correct,69,388985,0.0-27.0-0.0,"""event"",""trial"",""time""
""fullscreenenter"",""1"",""3794""
","
","
","""event"",""trial"",""time""
""fullscreenenter"",""1"",""3794""
","
",,null,run_exp/static/audio/clip_21_q4_correct.m4a,null,<p> That’s correct. The more you dig on a planet the fewer gems you’ll get with each dig. </p>,,,,,,,,,,,,,,,,,,,,,,,
quiz_q_5_ask,70,390983,0.0-27.0-1.0,"""event"",""trial"",""time""
""fullscreenenter"",""1"",""3794""
","
","
","""event"",""trial"",""time""
""fullscreenenter"",""1"",""3794""
","
",,1996.9,run_exp/static/audio/clip_23_q5_ask.m4a,,,,,,,1,,,,,,,,,,,,,,,,,,
quiz_q_5_fb_correct,71,396006,0.0-28.0-0.0,"""event"",""trial"",""time""
""fullscreenenter"",""1"",""3794""
","
","
","""event"",""trial"",""time""
""fullscreenenter"",""1"",""3794""
","
",,null,run_exp/static/audio/clip_24_q5_correct.m4a,null,<p> That’s correct. The alien tells you nothing about how much treasure is on the planet.</p>,,,,,,,,,,,,,,,,,,,,,,,
quiz_correct,72,399486,0.0-29.0-0.0,"""event"",""trial"",""time""
""fullscreenenter"",""1"",""3794""
","
","
","""event"",""trial"",""time""
""fullscreenenter"",""1"",""3794""
","
",,null,run_exp/static/audio/clip_26_correct_quiz.m4a,null,,,,,,,,,,,,,,,,,,,,,,,,
quiz_correct_continue,73,403816,0.0-29.0-1.0,"""event"",""trial"",""time""
""fullscreenenter"",""1"",""3794""
","
","
","""event"",""trial"",""time""
""fullscreenenter"",""1"",""3794""
","
",,4329.3,<p>Good job! You're now ready to move on to the real game!</p>,,,,,,,0,,,,,,,,,,,,,,,,,,
audio-keyboard-response,74,413947,0.0-29.0-2.0,"""event"",""trial"",""time""
""fullscreenenter"",""1"",""3794""
","
","
","""event"",""trial"",""time""
""fullscreenenter"",""1"",""3794""
","
",,null,run_exp/static/audio/clip_28_real_game.m4a,null,,,,,,,,,,,,,,,,,,,,,,,,
instruc_begin_exp_contine,75,415321,0.0-29.0-3.0,"""event"",""trial"",""time""
""fullscreenenter"",""1"",""3794""
","
","
","""event"",""trial"",""time""
""fullscreenenter"",""1"",""3794""
","
",,1372.6,"<p>Now that you know how  to dig for space treasure and travel to new planets,you can start exploring! </p><p>Do you want to go over the instructions again or get started with the real game?</p>",,,,,,,1,,,,,,1,,,,,,,,,,,,
alien_welcome,76,420333,0.0-30.0-0.0,"""event"",""trial"",""time""
""fullscreenenter"",""1"",""3794""
","
","
","""event"",""trial"",""time""
""fullscreenenter"",""1"",""3794""
","
",,null,run_exp/static/images/task_images/aliens/old_aliens/planet/alien_planet-41.jpg,null,,,,,,,,,,,,,41,"41,55,46,66,73,47,34,39,36,18,8,52,35,24,15,69,13,50,37,61,31,74,11,40,12,60,65,57,10,29",,,,,,,,,,
land,77,420838,0.0-30.0-1.0,"""event"",""trial"",""time""
""fullscreenenter"",""1"",""3794""
","
","
","""event"",""trial"",""time""
""fullscreenenter"",""1"",""3794""
","
",,null,run_exp/static/images/task_images/land.jpg,null,,,,,,,101,,,1,,,,,,,,,,,,,,
dig,78,422853,0.0-30.0-2.0,"""event"",""trial"",""time""
""fullscreenenter"",""1"",""3794""
","
","
","""event"",""trial"",""time""
""fullscreenenter"",""1"",""3794""
","
",,,,,,,,,,,,"[{""stimulus"":""run_exp/static/images/task_images/dig.jpg"",""time"":0.30000000074505806},{""stimulus"":""run_exp/static/images/task_images/land.jpg"",""time"":672.5},{""stimulus"":""run_exp/static/images/task_images/dig.jpg"",""time"":1342.699999999255}]",[],1,,,,,,,,,,,,,,
harvest,79,423856,0.0-30.0-3.0,"""event"",""trial"",""time""
""fullscreenenter"",""1"",""3794""
","
","
","""event"",""trial"",""time""
""fullscreenenter"",""1"",""3794""
","
",,null,run_exp/static/images/task_images/gems/101.jpg,null,,,,,,,28,,,1,,,,,101,0.272557719,0.277227723,,,,,,,
decision,80,423978,0.0-30.0-4.0,"""event"",""trial"",""time""
""fullscreenenter"",""1"",""3794""
","
","
","""event"",""trial"",""time""
""fullscreenenter"",""1"",""3794""
","
",,120.6,run_exp/static/images/task_images/land.jpg,65,,,,,,,28,,,1,,,,,,,,8656,1,0,FALSE,,,
dig,81,426870,0.0-31.0-0.0,"""event"",""trial"",""time""
""fullscreenenter"",""1"",""3794""
","
","
","""event"",""trial"",""time""
""fullscreenenter"",""1"",""3794""
","
",,,,,,,,,,,,"[{""stimulus"":""run_exp/static/images/task_images/dig.jpg"",""time"":0.20000000298023224},{""stimulus"":""run_exp/static/images/task_images/land.jpg"",""time"":960.8000000007451},{""stimulus"":""run_exp/static/images/task_images/dig.jpg"",""time"":1928.7000000029802}]",[],1,,,,,,,,,,,,,,
harvest,82,427875,0.0-31.0-1.0,"""event"",""trial"",""time""
""fullscreenenter"",""1"",""3794""
","
","
","""event"",""trial"",""time""
""fullscreenenter"",""1"",""3794""
","
",,null,run_exp/static/images/task_images/gems/28.jpg,null,,,,,,,6,,,1,,,,,28,0.20746872,0.214285714,,,,,,,
decision,83,427906,0.0-31.0-2.0,"""event"",""trial"",""time""
""fullscreenenter"",""1"",""3794""
","
","
","""event"",""trial"",""time""
""fullscreenenter"",""1"",""3794""
","
",,29.9,run_exp/static/images/task_images/land.jpg,65,,,,,,,6,,,1,,,,,,,,12585,1,1,FALSE,,,
dig,84,430880,0.0-32.0-0.0,"""event"",""trial"",""time""
""fullscreenenter"",""1"",""3794""
","
","
","""event"",""trial"",""time""
""fullscreenenter"",""1"",""3794""
","
",,,,,,,,,,,,"[{""stimulus"":""run_exp/static/images/task_images/dig.jpg"",""time"":0.19999999925494194},{""stimulus"":""run_exp/static/images/task_images/land.jpg"",""time"":1005.1000000014901},{""stimulus"":""run_exp/static/images/task_images/dig.jpg"",""time"":1993}]",[],1,,,,,,,,,,,,,,
harvest,85,431895,0.0-32.0-1.0,"""event"",""trial"",""time""
""fullscreenenter"",""1"",""3794""
","
","
","""event"",""trial"",""time""
""fullscreenenter"",""1"",""3794""
","
",,null,run_exp/static/images/task_images/gems/6.jpg,null,,,,,,,1,,,1,,,,,6,0.112669903,0.166666667,,,,,,,
decision,86,432347,0.0-32.0-2.0,"""event"",""trial"",""time""
""fullscreenenter"",""1"",""3794""
","
","
","""event"",""trial"",""time""
""fullscreenenter"",""1"",""3794""
","
",,450.2,run_exp/static/images/task_images/land.jpg,76,,,,,,,1,,,1,,,,,,,,17025,1,2,TRUE,,,
travel,87,441912,0.0-33.0-0.0,"""event"",""trial"",""time""
""fullscreenenter"",""1"",""3794""
","
","
","""event"",""trial"",""time""
""fullscreenenter"",""1"",""3794""
","
",,,,,,,,,,,,"[{""stimulus"":""run_exp/static/images/task_images/rocket-01.jpg"",""time"":0.20000000298023224},{""stimulus"":""run_exp/static/images/task_images/rocket-02.jpg"",""time"":1077.4000000022352},{""stimulus"":""run_exp/static/images/task_images/rocket-03.jpg"",""time"":2135.7000000029802},{""stimulus"":""run_exp/static/images/task_images/rocket-04.jpg"",""time"":3188.5},{""stimulus"":""run_exp/static/images/task_images/rocket-05.jpg"",""time"":4257.10000000149},{""stimulus"":""run_exp/static/images/task_images/rocket-06.jpg"",""time"":5310.5},{""stimulus"":""run_exp/static/images/task_images/rocket-07.jpg"",""time"":6370.5},{""stimulus"":""run_exp/static/images/task_images/rocket-08.jpg"",""time"":7436.20000000298},{""stimulus"":""run_exp/static/images/task_images/rocket-09.jpg"",""time"":8488.900000002235}]",[],1,,,,,,,,,,,,,,
alien_welcome,88,446913,0.0-33.0-1.0,"""event"",""trial"",""time""
""fullscreenenter"",""1"",""3794""
","
","
","""event"",""trial"",""time""
""fullscreenenter"",""1"",""3794""
","
",,null,run_exp/static/images/task_images/aliens/old_aliens/planet/alien_planet-55.jpg,null,,,,,,,,,,,,,55,"41,55,46,66,73,47,34,39,36,18,8,52,35,24,15,69,13,50,37,61,31,74,11,40,12,60,65,57,10,29",,,,,,,,,,
land,89,447416,0.0-33.0-2.0,"""event"",""trial"",""time""
""fullscreenenter"",""1"",""3794""
","
","
","""event"",""trial"",""time""
""fullscreenenter"",""1"",""3794""
","
",,null,run_exp/static/images/task_images/land.jpg,null,,,,,,,98,,,2,,,,,,,,,,,,,,
dig,90,449432,0.0-33.0-3.0,"""event"",""trial"",""time""
""fullscreenenter"",""1"",""3794""
","
","
","""event"",""trial"",""time""
""fullscreenenter"",""1"",""3794""
","
",,,,,,,,,,,,"[{""stimulus"":""run_exp/static/images/task_images/dig.jpg"",""time"":0.20000000298023224},{""stimulus"":""run_exp/static/images/task_images/land.jpg"",""time"":680.2000000029802},{""stimulus"":""run_exp/static/images/task_images/dig.jpg"",""time"":1349.9000000022352}]",[],2,,,,,,,,,,,,,,
harvest,91,450448,0.0-33.0-4.0,"""event"",""trial"",""time""
""fullscreenenter"",""1"",""3794""
","
","
","""event"",""trial"",""time""
""fullscreenenter"",""1"",""3794""
","
",,null,run_exp/static/images/task_images/gems/98.jpg,null,,,,,,,16,,,2,,,,,98,0.16375916,0.163265306,,,,,,,
decision,92,451003,0.0-33.0-5.0,"""event"",""trial"",""time""
""fullscreenenter"",""1"",""3794""
","
","
","""event"",""trial"",""time""
""fullscreenenter"",""1"",""3794""
","
",,554.4,run_exp/static/images/task_images/land.jpg,65,,,,,,,16,,,2,,,,,,,,35681,1,0,FALSE,,,
dig,93,453453,0.0-34.0-0.0,"""event"",""trial"",""time""
""fullscreenenter"",""1"",""3794""
","
","
","""event"",""trial"",""time""
""fullscreenenter"",""1"",""3794""
","
",,,,,,,,,,,,"[{""stimulus"":""run_exp/static/images/task_images/dig.jpg"",""time"":0.10000000149011612},{""stimulus"":""run_exp/static/images/task_images/land.jpg"",""time"":822.5},{""stimulus"":""run_exp/static/images/task_images/dig.jpg"",""time"":1639.1000000014901}]",[],2,,,,,,,,,,,,,,
harvest,94,454468,0.0-34.0-1.0,"""event"",""trial"",""time""
""fullscreenenter"",""1"",""3794""
","
","
","""event"",""trial"",""time""
""fullscreenenter"",""1"",""3794""
","
",,null,run_exp/static/images/task_images/gems/16.jpg,null,,,,,,,5,,,2,,,,,16,0.282174301,0.3125,,,,,,,
decision,95,455612,0.0-34.0-2.0,"""event"",""trial"",""time""
""fullscreenenter"",""1"",""3794""
","
","
","""event"",""trial"",""time""
""fullscreenenter"",""1"",""3794""
","
",,1142.7,run_exp/static/images/task_images/land.jpg,65,,,,,,,5,,,2,,,,,,,,40290,1,1,FALSE,,,
dig,96,457475,0.0-35.0-0.0,"""event"",""trial"",""time""
""fullscreenenter"",""1"",""3794""
","
","
","""event"",""trial"",""time""
""fullscreenenter"",""1"",""3794""
","
",,,,,,,,,,,,"[{""stimulus"":""run_exp/static/images/task_images/dig.jpg"",""time"":0.19999999925494194},{""stimulus"":""run_exp/static/images/task_images/land.jpg"",""time"":632.6000000014901},{""stimulus"":""run_exp/static/images/task_images/dig.jpg"",""time"":1254.199999999255}]",[],2,,,,,,,,,,,,,,
harvest,97,458485,0.0-35.0-1.0,"""event"",""trial"",""time""
""fullscreenenter"",""1"",""3794""
","
","
","""event"",""trial"",""time""
""fullscreenenter"",""1"",""3794""
","
",,null,run_exp/static/images/task_images/gems/5.jpg,null,,,,,,,1,,,2,,,,,5,0.142123578,0.2,,,,,,,
decision,98,458988,0.0-35.0-2.0,"""event"",""trial"",""time""
""fullscreenenter"",""1"",""3794""
","
","
","""event"",""trial"",""time""
""fullscreenenter"",""1"",""3794""
","
",,501.5,run_exp/static/images/task_images/land.jpg,76,,,,,,,1,,,2,,,,,,,,43666,1,2,TRUE,,,
travel,99,468490,0.0-36.0-0.0,"""event"",""trial"",""time""
""fullscreenenter"",""1"",""3794""
","
","
","""event"",""trial"",""time""
""fullscreenenter"",""1"",""3794""
","
",,,,,,,,,,,,"[{""stimulus"":""run_exp/static/images/task_images/rocket-01.jpg"",""time"":0},{""stimulus"":""run_exp/static/images/task_images/rocket-02.jpg"",""time"":1068.300000000745},{""stimulus"":""run_exp/static/images/task_images/rocket-03.jpg"",""time"":2114.39999999851},{""stimulus"":""run_exp/static/images/task_images/rocket-04.jpg"",""time"":3176.5},{""stimulus"":""run_exp/static/images/task_images/rocket-05.jpg"",""time"":4224.800000000745},{""stimulus"":""run_exp/static/images/task_images/rocket-06.jpg"",""time"":5287.60000000149},{""stimulus"":""run_exp/static/images/task_images/rocket-07.jpg"",""time"":6341.699999999255},{""stimulus"":""run_exp/static/images/task_images/rocket-08.jpg"",""time"":7398.39999999851},{""stimulus"":""run_exp/static/images/task_images/rocket-09.jpg"",""time"":8443.39999999851}]",[],2,,,,,,,,,,,,,,
alien_welcome,100,473494,0.0-36.0-1.0,"""event"",""trial"",""time""
""fullscreenenter"",""1"",""3794""
","
","
","""event"",""trial"",""time""
""fullscreenenter"",""1"",""3794""
","
",,null,run_exp/static/images/task_images/aliens/old_aliens/planet/alien_planet-46.jpg,null,,,,,,,,,,,,,46,"41,55,46,66,73,47,34,39,36,18,8,52,35,24,15,69,13,50,37,61,31,74,11,40,12,60,65,57,10,29",,,,,,,,,,
land,101,474003,0.0-36.0-2.0,"""event"",""trial"",""time""
""fullscreenenter"",""1"",""3794""
","
","
","""event"",""trial"",""time""
""fullscreenenter"",""1"",""3794""
","
",,null,run_exp/static/images/task_images/land.jpg,null,,,,,,,102,,,3,,,,,,,,,,,,,,
dig,102,476011,0.0-36.0-3.0,"""event"",""trial"",""time""
""fullscreenenter"",""1"",""3794""
","
","
","""event"",""trial"",""time""
""fullscreenenter"",""1"",""3794""
","
",,,,,,,,,,,,"[{""stimulus"":""run_exp/static/images/task_images/dig.jpg"",""time"":0.19999999925494194},{""stimulus"":""run_exp/static/images/task_images/land.jpg"",""time"":673.6000000014901},{""stimulus"":""run_exp/static/images/task_images/dig.jpg"",""time"":1335.6000000014901}]",[],3,,,,,,,,,,,,,,
harvest,103,477022,0.0-36.0-4.0,"""event"",""trial"",""time""
""fullscreenenter"",""1"",""3794""
","
","
","""event"",""trial"",""time""
""fullscreenenter"",""1"",""3794""
","
",,null,run_exp/static/images/task_images/gems/102.jpg,null,,,,,,,55,,,3,,,,,102,0.540848362,0.539215686,,,,,,,
decision,104,477212,0.0-36.0-5.0,"""event"",""trial"",""time""
""fullscreenenter"",""1"",""3794""
","
","
","""event"",""trial"",""time""
""fullscreenenter"",""1"",""3794""
","
",,188.8,run_exp/static/images/task_images/land.jpg,65,,,,,,,55,,,3,,,,,,,,61890,1,0,FALSE,,,
dig,105,480035,0.0-37.0-0.0,"""event"",""trial"",""time""
""fullscreenenter"",""1"",""3794""
","
","
","""event"",""trial"",""time""
""fullscreenenter"",""1"",""3794""
","
",,,,,,,,,,,,"[{""stimulus"":""run_exp/static/images/task_images/dig.jpg"",""time"":0.10000000149011612},{""stimulus"":""run_exp/static/images/task_images/land.jpg"",""time"":950.7000000029802},{""stimulus"":""run_exp/static/images/task_images/dig.jpg"",""time"":1883.5}]",[],3,,,,,,,,,,,,,,
harvest,106,481043,0.0-37.0-1.0,"""event"",""trial"",""time""
""fullscreenenter"",""1"",""3794""
","
","
","""event"",""trial"",""time""
""fullscreenenter"",""1"",""3794""
","
",,null,run_exp/static/images/task_images/gems/55.jpg,null,,,,,,,29,,,3,,,,,55,0.528742557,0.527272727,,,,,,,
decision,107,481084,0.0-37.0-2.0,"""event"",""trial"",""time""
""fullscreenenter"",""1"",""3794""
","
","
","""event"",""trial"",""time""
""fullscreenenter"",""1"",""3794""
","
",,39.6,run_exp/static/images/task_images/land.jpg,65,,,,,,,29,,,3,,,,,,,,65762,1,1,FALSE,,,
dig,108,484058,0.0-38.0-0.0,"""event"",""trial"",""time""
""fullscreenenter"",""1"",""3794""
","
","
","""event"",""trial"",""time""
""fullscreenenter"",""1"",""3794""
","
",,,,,,,,,,,,"[{""stimulus"":""run_exp/static/images/task_images/dig.jpg"",""time"":0.10000000149011612},{""stimulus"":""run_exp/static/images/task_images/land.jpg"",""time"":990.6999999992549},{""stimulus"":""run_exp/static/images/task_images/dig.jpg"",""time"":1973.5}]",[],3,,,,,,,,,,,,,,
harvest,109,485070,0.0-38.0-1.0,"""event"",""trial"",""time""
""fullscreenenter"",""1"",""3794""
","
","
","""event"",""trial"",""time""
""fullscreenenter"",""1"",""3794""
","
",,null,run_exp/static/images/task_images/gems/29.jpg,null,,,,,,,17,,,3,,,,,29,0.596129393,0.586206897,,,,,,,
decision,110,485276,0.0-38.0-2.0,"""event"",""trial"",""time""
""fullscreenenter"",""1"",""3794""
","
","
","""event"",""trial"",""time""
""fullscreenenter"",""1"",""3794""
","
",,204.8,run_exp/static/images/task_images/land.jpg,65,,,,,,,17,,,3,,,,,,,,69954,1,2,FALSE,,,
dig,111,488086,0.0-39.0-0.0,"""event"",""trial"",""time""
""fullscreenenter"",""1"",""3794""
","
","
","""event"",""trial"",""time""
""fullscreenenter"",""1"",""3794""
","
",,,,,,,,,,,,"[{""stimulus"":""run_exp/static/images/task_images/dig.jpg"",""time"":0.19999999925494194},{""stimulus"":""run_exp/static/images/task_images/land.jpg"",""time"":932.0999999977648},{""stimulus"":""run_exp/static/images/task_images/dig.jpg"",""time"":1870.199999999255}]",[],3,,,,,,,,,,,,,,
harvest,112,489100,0.0-39.0-1.0,"""event"",""trial"",""time""
""fullscreenenter"",""1"",""3794""
","
","
","""event"",""trial"",""time""
""fullscreenenter"",""1"",""3794""
","
",,null,run_exp/static/images/task_images/gems/17.jpg,null,,,,,,,8,,,3,,,,,17,0.487018099,0.470588235,,,,,,,
decision,113,489172,0.0-39.0-2.0,"""event"",""trial"",""time""
""fullscreenenter"",""1"",""3794""
","
","
","""event"",""trial"",""time""
""fullscreenenter"",""1"",""3794""
","
",,71.6,run_exp/static/images/task_images/land.jpg,65,,,,,,,8,,,3,,,,,,,,73851,1,3,FALSE,,,
dig,114,492103,0.0-40.0-0.0,"""event"",""trial"",""time""
""fullscreenenter"",""1"",""3794""
","
","
","""event"",""trial"",""time""
""fullscreenenter"",""1"",""3794""
","
",,,,,,,,,,,,"[{""stimulus"":""run_exp/static/images/task_images/dig.jpg"",""time"":0.19999999925494194},{""stimulus"":""run_exp/static/images/task_images/land.jpg"",""time"":982.5},{""stimulus"":""run_exp/static/images/task_images/dig.jpg"",""time"":1959.5}]",[],3,,,,,,,,,,,,,,
harvest,115,493118,0.0-40.0-1.0,"""event"",""trial"",""time""
""fullscreenenter"",""1"",""3794""
","
","
","""event"",""trial"",""time""
""fullscreenenter"",""1"",""3794""
","
",,null,run_exp/static/images/task_images/gems/8.jpg,null,,,,,,,3,,,3,,,,,8,0.419394404,0.375,,,,,,,
decision,116,493261,0.0-40.0-2.0,"""event"",""trial"",""time""
""fullscreenenter"",""1"",""3794""
","
","
","""event"",""trial"",""time""
""fullscreenenter"",""1"",""3794""
","
",,141.9,run_exp/static/images/task_images/land.jpg,65,,,,,,,3,,,3,,,,,,,,77939,1,4,FALSE,,,
dig,117,496134,0.0-41.0-0.0,"""event"",""trial"",""time""
""fullscreenenter"",""1"",""3794""
","
","
","""event"",""trial"",""time""
""fullscreenenter"",""1"",""3794""
","
",,,,,,,,,,,,"[{""stimulus"":""run_exp/static/images/task_images/dig.jpg"",""time"":0.10000000149011612},{""stimulus"":""run_exp/static/images/task_images/land.jpg"",""time"":968.4000000022352},{""stimulus"":""run_exp/static/images/task_images/dig.jpg"",""time"":1916}]",[],3,,,,,,,,,,,,,,
harvest,118,497149,0.0-41.0-1.0,"""event"",""trial"",""time""
""fullscreenenter"",""1"",""3794""
","
","
","""event"",""trial"",""time""
""fullscreenenter"",""1"",""3794""
","
",,null,run_exp/static/images/task_images/gems/3.jpg,null,,,,,,,1,,,3,,,,,3,0.464175911,0.333333333,,,,,,,
decision,119,497653,0.0-41.0-2.0,"""event"",""trial"",""time""
""fullscreenenter"",""1"",""3794""
","
","
","""event"",""trial"",""time""
""fullscreenenter"",""1"",""3794""
","
",,502.6,run_exp/static/images/task_images/land.jpg,65,,,,,,,1,,,3,,,,,,,,82331,1,5,FALSE,,,
dig,120,500160,0.0-42.0-0.0,"""event"",""trial"",""time""
""fullscreenenter"",""1"",""3794""
","
","
","""event"",""trial"",""time""
""fullscreenenter"",""1"",""3794""
","
",,,,,,,,,,,,"[{""stimulus"":""run_exp/static/images/task_images/dig.jpg"",""time"":0.19999999925494194},{""stimulus"":""run_exp/static/images/task_images/land.jpg"",""time"":839.0999999977648},{""stimulus"":""run_exp/static/images/task_images/dig.jpg"",""time"":1671}]",[],3,,,,,,,,,,,,,,
harvest,121,501174,0.0-42.0-1.0,"""event"",""trial"",""time""
""fullscreenenter"",""1"",""3794""
","
","
","""event"",""trial"",""time""
""fullscreenenter"",""1"",""3794""
","
",,null,run_exp/static/images/task_images/gems/1.jpg,null,,,,,,,0,,,3,,,,,1,0.492016301,0,,,,,,,
decision,122,501365,0.0-42.0-2.0,"""event"",""trial"",""time""
""fullscreenenter"",""1"",""3794""
","
","
","""event"",""trial"",""time""
""fullscreenenter"",""1"",""3794""
","
",,189.6,run_exp/static/images/task_images/land.jpg,76,,,,,,,0,,,3,,,,,,,,86043,1,6,TRUE,,,
travel,123,511181,0.0-43.0-0.0,"""event"",""trial"",""time""
""fullscreenenter"",""1"",""3794""
","
","
","""event"",""trial"",""time""
""fullscreenenter"",""1"",""3794""
","
",,,,,,,,,,,,"[{""stimulus"":""run_exp/static/images/task_images/rocket-01.jpg"",""time"":0.10000000149011612},{""stimulus"":""run_exp/static/images/task_images/rocket-02.jpg"",""time"":1092.300000000745},{""stimulus"":""run_exp/static/images/task_images/rocket-03.jpg"",""time"":2185.2000000029802},{""stimulus"":""run_exp/static/images/task_images/rocket-04.jpg"",""time"":3273.800000000745},{""stimulus"":""run_exp/static/images/task_images/rocket-05.jpg"",""time"":4372.20000000298},{""stimulus"":""run_exp/static/images/task_images/rocket-06.jpg"",""time"":5453.300000000745},{""stimulus"":""run_exp/static/images/task_images/rocket-07.jpg"",""time"":6553.900000002235},{""stimulus"":""run_exp/static/images/task_images/rocket-08.jpg"",""time"":7632.5},{""stimulus"":""run_exp/static/images/task_images/rocket-09.jpg"",""time"":8733.20000000298}]",[],3,,,,,,,,,,,,,,
alien_welcome,124,516195,0.0-43.0-1.0,"""event"",""trial"",""time""
""fullscreenenter"",""1"",""3794""
","
","
","""event"",""trial"",""time""
""fullscreenenter"",""1"",""3794""
","
",,null,run_exp/static/images/task_images/aliens/old_aliens/planet/alien_planet-66.jpg,null,,,,,,,,,,,,,66,"41,55,46,66,73,47,34,39,36,18,8,52,35,24,15,69,13,50,37,61,31,74,11,40,12,60,65,57,10,29",,,,,,,,,,
land,125,516698,0.0-43.0-2.0,"""event"",""trial"",""time""
""fullscreenenter"",""1"",""3794""
","
","
","""event"",""trial"",""time""
""fullscreenenter"",""1"",""3794""
","
",,null,run_exp/static/images/task_images/land.jpg,null,,,,,,,98,,,4,,,,,,,,,,,,,,
dig,126,518703,0.0-43.0-3.0,"""event"",""trial"",""time""
""fullscreenenter"",""1"",""3794""
","
","
","""event"",""trial"",""time""
""fullscreenenter"",""1"",""3794""
","
",,,,,,,,,,,,"[{""stimulus"":""run_exp/static/images/task_images/dig.jpg"",""time"":0.19999999925494194},{""stimulus"":""run_exp/static/images/task_images/land.jpg"",""time"":671.4000000022352},{""stimulus"":""run_exp/static/images/task_images/dig.jpg"",""time"":1343.699999999255}]",[],4,,,,,,,,,,,,,,
harvest,127,519717,0.0-43.0-4.0,"""event"",""trial"",""time""
""fullscreenenter"",""1"",""3794""
","
","
","""event"",""trial"",""time""
""fullscreenenter"",""1"",""3794""
","
",,null,run_exp/static/images/task_images/gems/98.jpg,null,,,,,,,52,,,4,,,,,98,0.530847905,0.530612245,,,,,,,
decision,128,520101,0.0-43.0-5.0,"""event"",""trial"",""time""
""fullscreenenter"",""1"",""3794""
","
","
","""event"",""trial"",""time""
""fullscreenenter"",""1"",""3794""
","
",,383.1,run_exp/static/images/task_images/land.jpg,65,,,,,,,52,,,4,,,,,,,,104779,1,0,FALSE,,,
dig,129,522728,0.0-44.0-0.0,"""event"",""trial"",""time""
""fullscreenenter"",""1"",""3794""
","
","
","""event"",""trial"",""time""
""fullscreenenter"",""1"",""3794""
","
",,,,,,,,,,,,"[{""stimulus"":""run_exp/static/images/task_images/dig.jpg"",""time"":0.10000000149011612},{""stimulus"":""run_exp/static/images/task_images/land.jpg"",""time"":880.3000000007451},{""stimulus"":""run_exp/static/images/task_images/dig.jpg"",""time"":1755}]",[],4,,,,,,,,,,,,,,
harvest,130,523742,0.0-44.0-1.0,"""event"",""trial"",""time""
""fullscreenenter"",""1"",""3794""
","
","
","""event"",""trial"",""time""
""fullscreenenter"",""1"",""3794""
","
",,null,run_exp/static/images/task_images/gems/52.jpg,null,,,,,,,30,,,4,,,,,52,0.571594083,0.576923077,,,,,,,
decision,131,524014,0.0-44.0-2.0,"""event"",""trial"",""time""
""fullscreenenter"",""1"",""3794""
","
","
","""event"",""trial"",""time""
""fullscreenenter"",""1"",""3794""
","
",,270.7,run_exp/static/images/task_images/land.jpg,65,,,,,,,30,,,4,,,,,,,,108692,1,1,FALSE,,,
dig,132,526747,0.0-45.0-0.0,"""event"",""trial"",""time""
""fullscreenenter"",""1"",""3794""
","
","
","""event"",""trial"",""time""
""fullscreenenter"",""1"",""3794""
","
",,,,,,,,,,,,"[{""stimulus"":""run_exp/static/images/task_images/dig.jpg"",""time"":0},{""stimulus"":""run_exp/static/images/task_images/land.jpg"",""time"":919.6999999992549},{""stimulus"":""run_exp/static/images/task_images/dig.jpg"",""time"":1825.6000000014901}]",[],4,,,,,,,,,,,,,,
harvest,133,527750,0.0-45.0-1.0,"""event"",""trial"",""time""
""fullscreenenter"",""1"",""3794""
","
","
","""event"",""trial"",""time""
""fullscreenenter"",""1"",""3794""
","
",,null,run_exp/static/images/task_images/gems/30.jpg,null,,,,,,,16,,,4,,,,,30,0.523039497,0.533333333,,,,,,,
decision,134,528374,0.0-45.0-2.0,"""event"",""trial"",""time""
""fullscreenenter"",""1"",""3794""
","
","
","""event"",""trial"",""time""
""fullscreenenter"",""1"",""3794""
","
",,622.2,run_exp/static/images/task_images/land.jpg,65,,,,,,,16,,,4,,,,,,,,113052,1,2,FALSE,,,
dig,135,530766,0.0-46.0-0.0,"""event"",""trial"",""time""
""fullscreenenter"",""1"",""3794""
","
","
","""event"",""trial"",""time""
""fullscreenenter"",""1"",""3794""
","
",,,,,,,,,,,,"[{""stimulus"":""run_exp/static/images/task_images/dig.jpg"",""time"":0.19999999925494194},{""stimulus"":""run_exp/static/images/task_images/land.jpg"",""time"":798},{""stimulus"":""run_exp/static/images/task_images/dig.jpg"",""time"":1597.8999999985099}]",[],4,,,,,,,,,,,,,,
harvest,136,531780,0.0-46.0-1.0,"""event"",""trial"",""time""
""fullscreenenter"",""1"",""3794""
","
","
","""event"",""trial"",""time""
""fullscreenenter"",""1"",""3794""
","
",,null,run_exp/static/images/task_images/gems/16.jpg,null,,,,,,,8,,,4,,,,,16,0.47891458,0.5,,,,,,,
decision,137,531870,0.0-46.0-2.0,"""event"",""trial"",""time""
""fullscreenenter"",""1"",""3794""
","
","
","""event"",""trial"",""time""
""fullscreenenter"",""1"",""3794""
","
",,88.3,run_exp/static/images/task_images/land.jpg,65,,,,,,,8,,,4,,,,,,,,116548,1,3,FALSE,,,
dig,138,534793,0.0-47.0-0.0,"""event"",""trial"",""time""
""fullscreenenter"",""1"",""3794""
","
","
","""event"",""trial"",""time""
""fullscreenenter"",""1"",""3794""
","
",,,,,,,,,,,,"[{""stimulus"":""run_exp/static/images/task_images/dig.jpg"",""time"":0.10000000149011612},{""stimulus"":""run_exp/static/images/task_images/land.jpg"",""time"":981.3000000007451},{""stimulus"":""run_exp/static/images/task_images/dig.jpg"",""time"":1952.4000000022352}]",[],4,,,,,,,,,,,,,,
harvest,139,535805,0.0-47.0-1.0,"""event"",""trial"",""time""
""fullscreenenter"",""1"",""3794""
","
","
","""event"",""trial"",""time""
""fullscreenenter"",""1"",""3794""
","
",,null,run_exp/static/images/task_images/gems/8.jpg,null,,,,,,,4,,,4,,,,,8,0.505141292,0.5,,,,,,,
decision,140,535918,0.0-47.0-2.0,"""event"",""trial"",""time""
""fullscreenenter"",""1"",""3794""
","
","
","""event"",""trial"",""time""
""fullscreenenter"",""1"",""3794""
","
",,112.3,run_exp/static/images/task_images/land.jpg,65,,,,,,,4,,,4,,,,,,,,120596,1,4,FALSE,,,
dig,141,538807,0.0-48.0-0.0,"""event"",""trial"",""time""
""fullscreenenter"",""1"",""3794""
","
","
","""event"",""trial"",""time""
""fullscreenenter"",""1"",""3794""
","
",,,,,,,,,,,,"[{""stimulus"":""run_exp/static/images/task_images/dig.jpg"",""time"":0.09999999776482582},{""stimulus"":""run_exp/static/images/task_images/land.jpg"",""time"":970},{""stimulus"":""run_exp/static/images/task_images/dig.jpg"",""time"":1937.3999999985099}]",[],4,,,,,,,,,,,,,,
harvest,142,539811,0.0-48.0-1.0,"""event"",""trial"",""time""
""fullscreenenter"",""1"",""3794""
","
","
","""event"",""trial"",""time""
""fullscreenenter"",""1"",""3794""
","
",,null,run_exp/static/images/task_images/gems/4.jpg,null,,,,,,,2,,,4,,,,,4,0.499602987,0.5,,,,,,,
decision,143,539830,0.0-48.0-2.0,"""event"",""trial"",""time""
""fullscreenenter"",""1"",""3794""
","
","
","""event"",""trial"",""time""
""fullscreenenter"",""1"",""3794""
","
",,17.7,run_exp/static/images/task_images/land.jpg,65,,,,,,,2,,,4,,,,,,,,124508,1,5,FALSE,,,
dig,144,542822,0.0-49.0-0.0,"""event"",""trial"",""time""
""fullscreenenter"",""1"",""3794""
","
","
","""event"",""trial"",""time""
""fullscreenenter"",""1"",""3794""
","
",,,,,,,,,,,,"[{""stimulus"":""run_exp/static/images/task_images/dig.jpg"",""time"":0.19999999925494194},{""stimulus"":""run_exp/static/images/task_images/land.jpg"",""time"":998.5},{""stimulus"":""run_exp/static/images/task_images/dig.jpg"",""time"":1995.300000000745}]",[],4,,,,,,,,,,,,,,
harvest,145,543825,0.0-49.0-1.0,"""event"",""trial"",""time""
""fullscreenenter"",""1"",""3794""
","
","
","""event"",""trial"",""time""
""fullscreenenter"",""1"",""3794""
","
",,null,run_exp/static/images/task_images/gems/2.jpg,null,,,,,,,1,,,4,,,,,2,0.487710262,0.5,,,,,,,
decision,146,544054,0.0-49.0-2.0,"""event"",""trial"",""time""
""fullscreenenter"",""1"",""3794""
","
","
","""event"",""trial"",""time""
""fullscreenenter"",""1"",""3794""
","
",,228.1,run_exp/static/images/task_images/land.jpg,76,,,,,,,1,,,4,,,,,,,,128732,1,6,TRUE,,,
travel,147,553822,0.0-50.0-0.0,"""event"",""trial"",""time""
""fullscreenenter"",""1"",""3794""
","
","
","""event"",""trial"",""time""
""fullscreenenter"",""1"",""3794""
","
",,,,,,,,,,,,"[{""stimulus"":""run_exp/static/images/task_images/rocket-01.jpg"",""time"":0.09999999776482582},{""stimulus"":""run_exp/static/images/task_images/rocket-02.jpg"",""time"":1095.5999999977648},{""stimulus"":""run_exp/static/images/task_images/rocket-03.jpg"",""time"":2173.5},{""stimulus"":""run_exp/static/images/task_images/rocket-04.jpg"",""time"":3271.199999999255},{""stimulus"":""run_exp/static/images/task_images/rocket-05.jpg"",""time"":4344.099999997765},{""stimulus"":""run_exp/static/images/task_images/rocket-06.jpg"",""time"":5439},{""stimulus"":""run_exp/static/images/task_images/rocket-07.jpg"",""time"":6515.599999997765},{""stimulus"":""run_exp/static/images/task_images/rocket-08.jpg"",""time"":7609},{""stimulus"":""run_exp/static/images/task_images/rocket-09.jpg"",""time"":8688.699999999255}]",[],4,,,,,,,,,,,,,,
alien_welcome,148,558832,0.0-50.0-1.0,"""event"",""trial"",""time""
""fullscreenenter"",""1"",""3794""
","
","
","""event"",""trial"",""time""
""fullscreenenter"",""1"",""3794""
","
",,null,run_exp/static/images/task_images/aliens/old_aliens/planet/alien_planet-73.jpg,null,,,,,,,,,,,,,73,"41,55,46,66,73,47,34,39,36,18,8,52,35,24,15,69,13,50,37,61,31,74,11,40,12,60,65,57,10,29",,,,,,,,,,
land,149,559347,0.0-50.0-2.0,"""event"",""trial"",""time""
""fullscreenenter"",""1"",""3794""
","
","
","""event"",""trial"",""time""
""fullscreenenter"",""1"",""3794""
","
",,null,run_exp/static/images/task_images/land.jpg,null,,,,,,,108,,,5,,,,,,,,,,,,,,
dig,150,561359,0.0-50.0-3.0,"""event"",""trial"",""time""
""fullscreenenter"",""1"",""3794""
","
","
","""event"",""trial"",""time""
""fullscreenenter"",""1"",""3794""
","
",,,,,,,,,,,,"[{""stimulus"":""run_exp/static/images/task_images/dig.jpg"",""time"":0.19999999925494194},{""stimulus"":""run_exp/static/images/task_images/land.jpg"",""time"":671.6999999992549},{""stimulus"":""run_exp/static/images/task_images/dig.jpg"",""time"":1348.2999999970198}]",[],5,,,,,,,,,,,,,,
harvest,151,562376,0.0-50.0-4.0,"""event"",""trial"",""time""
""fullscreenenter"",""1"",""3794""
","
","
","""event"",""trial"",""time""
""fullscreenenter"",""1"",""3794""
","
",,null,run_exp/static/images/task_images/gems/108.jpg,null,,,,,,,63,,,5,,,,,108,0.581286737,0.583333333,,,,,,,
decision,152,562479,0.0-50.0-5.0,"""event"",""trial"",""time""
""fullscreenenter"",""1"",""3794""
","
","
","""event"",""trial"",""time""
""fullscreenenter"",""1"",""3794""
","
",,101.5,run_exp/static/images/task_images/land.jpg,65,,,,,,,63,,,5,,,,,,,,147157,1,0,FALSE,,,
dig,153,565384,0.0-51.0-0.0,"""event"",""trial"",""time""
""fullscreenenter"",""1"",""3794""
","
","
","""event"",""trial"",""time""
""fullscreenenter"",""1"",""3794""
","
",,,,,,,,,,,,"[{""stimulus"":""run_exp/static/images/task_images/dig.jpg"",""time"":0.10000000149011612},{""stimulus"":""run_exp/static/images/task_images/land.jpg"",""time"":981.3999999985099},{""stimulus"":""run_exp/static/images/task_images/dig.jpg"",""time"":1942.6000000014901}]",[],5,,,,,,,,,,,,,,
harvest,154,566390,0.0-51.0-1.0,"""event"",""trial"",""time""
""fullscreenenter"",""1"",""3794""
","
","
","""event"",""trial"",""time""
""fullscreenenter"",""1"",""3794""
","
",,null,run_exp/static/images/task_images/gems/63.jpg,null,,,,,,,30,,,5,,,,,63,0.483807238,0.476190476,,,,,,,
decision,155,566879,0.0-51.0-2.0,"""event"",""trial"",""time""
""fullscreenenter"",""1"",""3794""
","
","
","""event"",""trial"",""time""
""fullscreenenter"",""1"",""3794""
","
",,487.8,run_exp/static/images/task_images/land.jpg,65,,,,,,,30,,,5,,,,,,,,151557,1,1,FALSE,,,
dig,156,569403,0.0-52.0-0.0,"""event"",""trial"",""time""
""fullscreenenter"",""1"",""3794""
","
","
","""event"",""trial"",""time""
""fullscreenenter"",""1"",""3794""
","
",,,,,,,,,,,,"[{""stimulus"":""run_exp/static/images/task_images/dig.jpg"",""time"":0.10000000149011612},{""stimulus"":""run_exp/static/images/task_images/land.jpg"",""time"":841.5},{""stimulus"":""run_exp/static/images/task_images/dig.jpg"",""time"":1680.1000000014901}]",[],5,,,,,,,,,,,,,,
harvest,157,570412,0.0-52.0-1.0,"""event"",""trial"",""time""
""fullscreenenter"",""1"",""3794""
","
","
","""event"",""trial"",""time""
""fullscreenenter"",""1"",""3794""
","
",,null,run_exp/static/images/task_images/gems/30.jpg,null,,,,,,,15,,,5,,,,,30,0.505367356,0.5,,,,,,,
decision,158,570726,0.0-52.0-2.0,"""event"",""trial"",""time""
""fullscreenenter"",""1"",""3794""
","
","
","""event"",""trial"",""time""
""fullscreenenter"",""1"",""3794""
","
",,313.5,run_exp/static/images/task_images/land.jpg,65,,,,,,,15,,,5,,,,,,,,155404,1,2,FALSE,,,
dig,159,573425,0.0-53.0-0.0,"""event"",""trial"",""time""
""fullscreenenter"",""1"",""3794""
","
","
","""event"",""trial"",""time""
""fullscreenenter"",""1"",""3794""
","
",,,,,,,,,,,,"[{""stimulus"":""run_exp/static/images/task_images/dig.jpg"",""time"":0.19999999925494194},{""stimulus"":""run_exp/static/images/task_images/land.jpg"",""time"":902.5},{""stimulus"":""run_exp/static/images/task_images/dig.jpg"",""time"":1804.9000000022352}]",[],5,,,,,,,,,,,,,,
harvest,160,574438,0.0-53.0-1.0,"""event"",""trial"",""time""
""fullscreenenter"",""1"",""3794""
","
","
","""event"",""trial"",""time""
""fullscreenenter"",""1"",""3794""
","
",,null,run_exp/static/images/task_images/gems/15.jpg,null,,,,,,,8,,,5,,,,,15,0.54566629,0.533333333,,,,,,,
decision,161,574623,0.0-53.0-2.0,"""event"",""trial"",""time""
""fullscreenenter"",""1"",""3794""
","
","
","""event"",""trial"",""time""
""fullscreenenter"",""1"",""3794""
","
",,184.6,run_exp/static/images/task_images/land.jpg,65,,,,,,,8,,,5,,,,,,,,159301,1,3,FALSE,,,
dig,162,577451,0.0-54.0-0.0,"""event"",""trial"",""time""
""fullscreenenter"",""1"",""3794""
","
","
","""event"",""trial"",""time""
""fullscreenenter"",""1"",""3794""
","
",,,,,,,,,,,,"[{""stimulus"":""run_exp/static/images/task_images/dig.jpg"",""time"":0.09999999776482582},{""stimulus"":""run_exp/static/images/task_images/land.jpg"",""time"":940.6999999992549},{""stimulus"":""run_exp/static/images/task_images/dig.jpg"",""time"":1891.5999999977648}]",[],5,,,,,,,,,,,,,,
harvest,163,578462,0.0-54.0-1.0,"""event"",""trial"",""time""
""fullscreenenter"",""1"",""3794""
","
","
","""event"",""trial"",""time""
""fullscreenenter"",""1"",""3794""
","
",,null,run_exp/static/images/task_images/gems/8.jpg,null,,,,,,,4,,,5,,,,,8,0.445058563,0.5,,,,,,,
decision,164,579511,0.0-54.0-2.0,"""event"",""trial"",""time""
""fullscreenenter"",""1"",""3794""
","
","
","""event"",""trial"",""time""
""fullscreenenter"",""1"",""3794""
","
",,1048,run_exp/static/images/task_images/land.jpg,65,,,,,,,4,,,5,,,,,,,,164189,1,4,FALSE,,,
dig,165,581478,0.0-55.0-0.0,"""event"",""trial"",""time""
""fullscreenenter"",""1"",""3794""
","
","
","""event"",""trial"",""time""
""fullscreenenter"",""1"",""3794""
","
",,,,,,,,,,,,"[{""stimulus"":""run_exp/static/images/task_images/dig.jpg"",""time"":0.19999999925494194},{""stimulus"":""run_exp/static/images/task_images/land.jpg"",""time"":658.0999999977648},{""stimulus"":""run_exp/static/images/task_images/dig.jpg"",""time"":1305.0999999977648}]",[],5,,,,,,,,,,,,,,
harvest,166,582482,0.0-55.0-1.0,"""event"",""trial"",""time""
""fullscreenenter"",""1"",""3794""
","
","
","""event"",""trial"",""time""
""fullscreenenter"",""1"",""3794""
","
",,null,run_exp/static/images/task_images/gems/4.jpg,null,,,,,,,2,,,5,,,,,4,0.48754285,0.5,,,,,,,
decision,167,582767,0.0-55.0-2.0,"""event"",""trial"",""time""
""fullscreenenter"",""1"",""3794""
","
","
","""event"",""trial"",""time""
""fullscreenenter"",""1"",""3794""
","
",,284,run_exp/static/images/task_images/land.jpg,65,,,,,,,2,,,5,,,,,,,,167445,1,5,FALSE,,,
dig,168,585486,0.0-56.0-0.0,"""event"",""trial"",""time""
""fullscreenenter"",""1"",""3794""
","
","
","""event"",""trial"",""time""
""fullscreenenter"",""1"",""3794""
","
",,,,,,,,,,,,"[{""stimulus"":""run_exp/static/images/task_images/dig.jpg"",""time"":0.09999999776482582},{""stimulus"":""run_exp/static/images/task_images/land.jpg"",""time"":911.3999999985099},{""stimulus"":""run_exp/static/images/task_images/dig.jpg"",""time"":1812.3999999985099}]",[],5,,,,,,,,,,,,,,
harvest,169,586488,0.0-56.0-1.0,"""event"",""trial"",""time""
""fullscreenenter"",""1"",""3794""
","
","
","""event"",""trial"",""time""
""fullscreenenter"",""1"",""3794""
","
",,null,run_exp/static/images/task_images/gems/2.jpg,null,,,,,,,1,,,5,,,,,2,0.518811569,0.5,,,,,,,
decision,170,586616,0.0-56.0-2.0,"""event"",""trial"",""time""
""fullscreenenter"",""1"",""3794""
","
","
","""event"",""trial"",""time""
""fullscreenenter"",""1"",""3794""
","
",,127.5,run_exp/static/images/task_images/land.jpg,76,,,,,,,1,,,5,,,,,,,,171294,1,6,TRUE,,,
travel,171,596491,0.0-57.0-0.0,"""event"",""trial"",""time""
""fullscreenenter"",""1"",""3794""
","
","
","""event"",""trial"",""time""
""fullscreenenter"",""1"",""3794""
","
",,,,,,,,,,,,"[{""stimulus"":""run_exp/static/images/task_images/rocket-01.jpg"",""time"":0.10000000149011612},{""stimulus"":""run_exp/static/images/task_images/rocket-02.jpg"",""time"":1109.1000000014901},{""stimulus"":""run_exp/static/images/task_images/rocket-03.jpg"",""time"":2193.800000000745},{""stimulus"":""run_exp/static/images/task_images/rocket-04.jpg"",""time"":3294.10000000149},{""stimulus"":""run_exp/static/images/task_images/rocket-05.jpg"",""time"":4394.800000000745},{""stimulus"":""run_exp/static/images/task_images/rocket-06.jpg"",""time"":5487.199999999255},{""stimulus"":""run_exp/static/images/task_images/rocket-07.jpg"",""time"":6590.199999999255},{""stimulus"":""run_exp/static/images/task_images/rocket-08.jpg"",""time"":7687},{""stimulus"":""run_exp/static/images/task_images/rocket-09.jpg"",""time"":8782.5}]",[],5,,,,,,,,,,,,,,
alien_welcome,172,601502,0.0-57.0-1.0,"""event"",""trial"",""time""
""fullscreenenter"",""1"",""3794""
","
","
","""event"",""trial"",""time""
""fullscreenenter"",""1"",""3794""
","
",,null,run_exp/static/images/task_images/aliens/old_aliens/planet/alien_planet-47.jpg,null,,,,,,,,,,,,,47,"41,55,46,66,73,47,34,39,36,18,8,52,35,24,15,69,13,50,37,61,31,74,11,40,12,60,65,57,10,29",,,,,,,,,,
land,173,602010,0.0-57.0-2.0,"""event"",""trial"",""time""
""fullscreenenter"",""1"",""3794""
","
","
","""event"",""trial"",""time""
""fullscreenenter"",""1"",""3794""
","
",,null,run_exp/static/images/task_images/land.jpg,null,,,,,,,94,,,6,,,,,,,,,,,,,,
dig,174,604022,0.0-57.0-3.0,"""event"",""trial"",""time""
""fullscreenenter"",""1"",""3794""
","
","
","""event"",""trial"",""time""
""fullscreenenter"",""1"",""3794""
","
",,,,,,,,,,,,"[{""stimulus"":""run_exp/static/images/task_images/dig.jpg"",""time"":0.20000000298023224},{""stimulus"":""run_exp/static/images/task_images/land.jpg"",""time"":673.9000000022352},{""stimulus"":""run_exp/static/images/task_images/dig.jpg"",""time"":1340.4000000022352}]",[],6,,,,,,,,,,,,,,
harvest,175,605035,0.0-57.0-4.0,"""event"",""trial"",""time""
""fullscreenenter"",""1"",""3794""
","
","
","""event"",""trial"",""time""
""fullscreenenter"",""1"",""3794""
","
",,null,run_exp/static/images/task_images/gems/94.jpg,null,,,,,,,81,,,6,,,,,94,0.866786424,0.861702128,,,,,,,
decision,176,605241,0.0-57.0-5.0,"""event"",""trial"",""time""
""fullscreenenter"",""1"",""3794""
","
","
","""event"",""trial"",""time""
""fullscreenenter"",""1"",""3794""
","
",,204.8,run_exp/static/images/task_images/land.jpg,65,,,,,,,81,,,6,,,,,,,,189919,1,0,FALSE,,,
dig,177,608041,0.0-58.0-0.0,"""event"",""trial"",""time""
""fullscreenenter"",""1"",""3794""
","
","
","""event"",""trial"",""time""
""fullscreenenter"",""1"",""3794""
","
",,,,,,,,,,,,"[{""stimulus"":""run_exp/static/images/task_images/dig.jpg"",""time"":0.10000000149011612},{""stimulus"":""run_exp/static/images/task_images/land.jpg"",""time"":932.2000000029802},{""stimulus"":""run_exp/static/images/task_images/dig.jpg"",""time"":1864.7000000029802}]",[],6,,,,,,,,,,,,,,
harvest,178,609052,0.0-58.0-1.0,"""event"",""trial"",""time""
""fullscreenenter"",""1"",""3794""
","
","
","""event"",""trial"",""time""
""fullscreenenter"",""1"",""3794""
","
",,null,run_exp/static/images/task_images/gems/81.jpg,null,,,,,,,63,,,6,,,,,81,0.781729508,0.777777778,,,,,,,
decision,179,609112,0.0-58.0-2.0,"""event"",""trial"",""time""
""fullscreenenter"",""1"",""3794""
","
","
","""event"",""trial"",""time""
""fullscreenenter"",""1"",""3794""
","
",,58.3,run_exp/static/images/task_images/land.jpg,65,,,,,,,63,,,6,,,,,,,,193790,1,1,FALSE,,,
dig,180,612065,0.0-59.0-0.0,"""event"",""trial"",""time""
""fullscreenenter"",""1"",""3794""
","
","
","""event"",""trial"",""time""
""fullscreenenter"",""1"",""3794""
","
",,,,,,,,,,,,"[{""stimulus"":""run_exp/static/images/task_images/dig.jpg"",""time"":0.10000000149011612},{""stimulus"":""run_exp/static/images/task_images/land.jpg"",""time"":984.1999999992549},{""stimulus"":""run_exp/static/images/task_images/dig.jpg"",""time"":1968.800000000745}]",[],6,,,,,,,,,,,,,,
harvest,181,613068,0.0-59.0-1.0,"""event"",""trial"",""time""
""fullscreenenter"",""1"",""3794""
","
","
","""event"",""trial"",""time""
""fullscreenenter"",""1"",""3794""
","
",,null,run_exp/static/images/task_images/gems/63.jpg,null,,,,,,,54,,,6,,,,,63,0.853730787,0.857142857,,,,,,,
decision,182,613176,0.0-59.0-2.0,"""event"",""trial"",""time""
""fullscreenenter"",""1"",""3794""
","
","
","""event"",""trial"",""time""
""fullscreenenter"",""1"",""3794""
","
",,106.9,run_exp/static/images/task_images/land.jpg,65,,,,,,,54,,,6,,,,,,,,197855,1,2,FALSE,,,
dig,183,616081,0.0-60.0-0.0,"""event"",""trial"",""time""
""fullscreenenter"",""1"",""3794""
","
","
","""event"",""trial"",""time""
""fullscreenenter"",""1"",""3794""
","
",,,,,,,,,,,,"[{""stimulus"":""run_exp/static/images/task_images/dig.jpg"",""time"":0.10000000149011612},{""stimulus"":""run_exp/static/images/task_images/land.jpg"",""time"":967.3000000007451},{""stimulus"":""run_exp/static/images/task_images/dig.jpg"",""time"":1938.300000000745}]",[],6,,,,,,,,,,,,,,
harvest,184,617095,0.0-60.0-1.0,"""event"",""trial"",""time""
""fullscreenenter"",""1"",""3794""
","
","
","""event"",""trial"",""time""
""fullscreenenter"",""1"",""3794""
","
",,null,run_exp/static/images/task_images/gems/54.jpg,null,,,,,,,42,,,6,,,,,54,0.776775164,0.777777778,,,,,,,
decision,185,617585,0.0-60.0-2.0,"""event"",""trial"",""time""
""fullscreenenter"",""1"",""3794""
","
","
","""event"",""trial"",""time""
""fullscreenenter"",""1"",""3794""
","
",,488.8,run_exp/static/images/task_images/land.jpg,65,,,,,,,42,,,6,,,,,,,,202263,1,3,FALSE,,,
dig,186,620110,0.0-61.0-0.0,"""event"",""trial"",""time""
""fullscreenenter"",""1"",""3794""
","
","
","""event"",""trial"",""time""
""fullscreenenter"",""1"",""3794""
","
",,,,,,,,,,,,"[{""stimulus"":""run_exp/static/images/task_images/dig.jpg"",""time"":0.10000000149011612},{""stimulus"":""run_exp/static/images/task_images/land.jpg"",""time"":838.6999999992549},{""stimulus"":""run_exp/static/images/task_images/dig.jpg"",""time"":1680.699999999255}]",[],6,,,,,,,,,,,,,,
harvest,187,621126,0.0-61.0-1.0,"""event"",""trial"",""time""
""fullscreenenter"",""1"",""3794""
","
","
","""event"",""trial"",""time""
""fullscreenenter"",""1"",""3794""
","
",,null,run_exp/static/images/task_images/gems/42.jpg,null,,,,,,,32,,,6,,,,,42,0.770731514,0.761904762,,,,,,,
decision,188,621347,0.0-61.0-2.0,"""event"",""trial"",""time""
""fullscreenenter"",""1"",""3794""
","
","
","""event"",""trial"",""time""
""fullscreenenter"",""1"",""3794""
","
",,220.2,run_exp/static/images/task_images/land.jpg,65,,,,,,,32,,,6,,,,,,,,206025,1,4,FALSE,,,
dig,189,624135,0.0-62.0-0.0,"""event"",""trial"",""time""
""fullscreenenter"",""1"",""3794""
","
","
","""event"",""trial"",""time""
""fullscreenenter"",""1"",""3794""
","
",,,,,,,,,,,,"[{""stimulus"":""run_exp/static/images/task_images/dig.jpg"",""time"":0.10000000149011612},{""stimulus"":""run_exp/static/images/task_images/land.jpg"",""time"":928.3000000007451},{""stimulus"":""run_exp/static/images/task_images/dig.jpg"",""time"":1860.1000000014901}]",[],6,,,,,,,,,,,,,,
harvest,190,625152,0.0-62.0-1.0,"""event"",""trial"",""time""
""fullscreenenter"",""1"",""3794""
","
","
","""event"",""trial"",""time""
""fullscreenenter"",""1"",""3794""
","
",,null,run_exp/static/images/task_images/gems/32.jpg,null,,,,,,,27,,,6,,,,,32,0.856106487,0.84375,,,,,,,
decision,191,625385,0.0-62.0-2.0,"""event"",""trial"",""time""
""fullscreenenter"",""1"",""3794""
","
","
","""event"",""trial"",""time""
""fullscreenenter"",""1"",""3794""
","
",,231.5,run_exp/static/images/task_images/land.jpg,65,,,,,,,27,,,6,,,,,,,,210063,1,5,FALSE,,,
dig,192,628166,0.0-63.0-0.0,"""event"",""trial"",""time""
""fullscreenenter"",""1"",""3794""
","
","
","""event"",""trial"",""time""
""fullscreenenter"",""1"",""3794""
","
",,,,,,,,,,,,"[{""stimulus"":""run_exp/static/images/task_images/dig.jpg"",""time"":0.10000000149011612},{""stimulus"":""run_exp/static/images/task_images/land.jpg"",""time"":937.1999999992549},{""stimulus"":""run_exp/static/images/task_images/dig.jpg"",""time"":1854.800000000745}]",[],6,,,,,,,,,,,,,,
harvest,193,629182,0.0-63.0-1.0,"""event"",""trial"",""time""
""fullscreenenter"",""1"",""3794""
","
","
","""event"",""trial"",""time""
""fullscreenenter"",""1"",""3794""
","
",,null,run_exp/static/images/task_images/gems/27.jpg,null,,,,,,,24,,,6,,,,,27,0.872803278,0.888888889,,,,,,,
decision,194,629521,0.0-63.0-2.0,"""event"",""trial"",""time""
""fullscreenenter"",""1"",""3794""
","
","
","""event"",""trial"",""time""
""fullscreenenter"",""1"",""3794""
","
",,338.5,run_exp/static/images/task_images/land.jpg,65,,,,,,,24,,,6,,,,,,,,214199,1,6,FALSE,,,
dig,195,632198,0.0-64.0-0.0,"""event"",""trial"",""time""
""fullscreenenter"",""1"",""3794""
","
","
","""event"",""trial"",""time""
""fullscreenenter"",""1"",""3794""
","
",,,,,,,,,,,,"[{""stimulus"":""run_exp/static/images/task_images/dig.jpg"",""time"":0.10000000149011612},{""stimulus"":""run_exp/static/images/task_images/land.jpg"",""time"":894},{""stimulus"":""run_exp/static/images/task_images/dig.jpg"",""time"":1787.699999999255}]",[],6,,,,,,,,,,,,,,
harvest,196,633202,0.0-64.0-1.0,"""event"",""trial"",""time""
""fullscreenenter"",""1"",""3794""
","
","
","""event"",""trial"",""time""
""fullscreenenter"",""1"",""3794""
","
",,null,run_exp/static/images/task_images/gems/24.jpg,null,,,,,,,19,,,6,,,,,24,0.784230807,0.791666667,,,,,,,
decision,197,633601,0.0-64.0-2.0,"""event"",""trial"",""time""
""fullscreenenter"",""1"",""3794""
","
","
","""event"",""trial"",""time""
""fullscreenenter"",""1"",""3794""
","
",,398.8,run_exp/static/images/task_images/land.jpg,65,,,,,,,19,,,6,,,,,,,,218280,1,7,FALSE,,,
dig,198,636213,0.0-65.0-0.0,"""event"",""trial"",""time""
""fullscreenenter"",""1"",""3794""
","
","
","""event"",""trial"",""time""
""fullscreenenter"",""1"",""3794""
","
",,,,,,,,,,,,"[{""stimulus"":""run_exp/static/images/task_images/dig.jpg"",""time"":0.19999999925494194},{""stimulus"":""run_exp/static/images/task_images/land.jpg"",""time"":872.8999999985099},{""stimulus"":""run_exp/static/images/task_images/dig.jpg"",""time"":1738.199999999255}]",[],6,,,,,,,,,,,,,,
harvest,199,637226,0.0-65.0-1.0,"""event"",""trial"",""time""
""fullscreenenter"",""1"",""3794""
","
","
","""event"",""trial"",""time""
""fullscreenenter"",""1"",""3794""
","
",,null,run_exp/static/images/task_images/gems/19.jpg,null,,,,,,,14,,,6,,,,,19,0.733658366,0.736842105,,,,,,,
decision,200,637402,0.0-65.0-2.0,"""event"",""trial"",""time""
""fullscreenenter"",""1"",""3794""
","
","
","""event"",""trial"",""time""
""fullscreenenter"",""1"",""3794""
","
",,174.4,run_exp/static/images/task_images/land.jpg,65,,,,,,,14,,,6,,,,,,,,222080,1,8,FALSE,,,
dig,201,640236,0.0-66.0-0.0,"""event"",""trial"",""time""
""fullscreenenter"",""1"",""3794""
","
","
","""event"",""trial"",""time""
""fullscreenenter"",""1"",""3794""
","
",,,,,,,,,,,,"[{""stimulus"":""run_exp/static/images/task_images/dig.jpg"",""time"":0.10000000149011612},{""stimulus"":""run_exp/static/images/task_images/land.jpg"",""time"":952.7000000029802},{""stimulus"":""run_exp/static/images/task_images/dig.jpg"",""time"":1883.1000000014901}]",[],6,,,,,,,,,,,,,,
harvest,202,641238,0.0-66.0-1.0,"""event"",""trial"",""time""
""fullscreenenter"",""1"",""3794""
","
","
","""event"",""trial"",""time""
""fullscreenenter"",""1"",""3794""
","
",,null,run_exp/static/images/task_images/gems/14.jpg,null,,,,,,,11,,,6,,,,,14,0.787028736,0.785714286,,,,,,,
decision,203,641433,0.0-66.0-2.0,"""event"",""trial"",""time""
""fullscreenenter"",""1"",""3794""
","
","
","""event"",""trial"",""time""
""fullscreenenter"",""1"",""3794""
","
",,193.8,run_exp/static/images/task_images/land.jpg,65,,,,,,,11,,,6,,,,,,,,226111,1,9,FALSE,,,
dig,204,644242,0.0-67.0-0.0,"""event"",""trial"",""time""
""fullscreenenter"",""1"",""3794""
","
","
","""event"",""trial"",""time""
""fullscreenenter"",""1"",""3794""
","
",,,,,,,,,,,,"[{""stimulus"":""run_exp/static/images/task_images/dig.jpg"",""time"":0},{""stimulus"":""run_exp/static/images/task_images/land.jpg"",""time"":946.8000000007451},{""stimulus"":""run_exp/static/images/task_images/dig.jpg"",""time"":1878.800000000745}]",[],6,,,,,,,,,,,,,,
harvest,205,645254,0.0-67.0-1.0,"""event"",""trial"",""time""
""fullscreenenter"",""1"",""3794""
","
","
","""event"",""trial"",""time""
""fullscreenenter"",""1"",""3794""
","
",,null,run_exp/static/images/task_images/gems/11.jpg,null,,,,,,,9,,,6,,,,,11,0.779229905,0.818181818,,,,,,,
decision,206,646641,0.0-67.0-2.0,"""event"",""trial"",""time""
""fullscreenenter"",""1"",""3794""
","
","
","""event"",""trial"",""time""
""fullscreenenter"",""1"",""3794""
","
",,1386.4,run_exp/static/images/task_images/land.jpg,65,,,,,,,9,,,6,,,,,,,,231319,1,10,FALSE,,,
dig,207,648257,0.0-68.0-0.0,"""event"",""trial"",""time""
""fullscreenenter"",""1"",""3794""
","
","
","""event"",""trial"",""time""
""fullscreenenter"",""1"",""3794""
","
",,,,,,,,,,,,"[{""stimulus"":""run_exp/static/images/task_images/dig.jpg"",""time"":0.10000000149011612},{""stimulus"":""run_exp/static/images/task_images/land.jpg"",""time"":549.1999999992549},{""stimulus"":""run_exp/static/images/task_images/dig.jpg"",""time"":1079.300000000745}]",[],6,,,,,,,,,,,,,,
harvest,208,649270,0.0-68.0-1.0,"""event"",""trial"",""time""
""fullscreenenter"",""1"",""3794""
","
","
","""event"",""trial"",""time""
""fullscreenenter"",""1"",""3794""
","
",,null,run_exp/static/images/task_images/gems/9.jpg,null,,,,,,,7,,,6,,,,,9,0.800221985,0.777777778,,,,,,,
decision,209,649442,0.0-68.0-2.0,"""event"",""trial"",""time""
""fullscreenenter"",""1"",""3794""
","
","
","""event"",""trial"",""time""
""fullscreenenter"",""1"",""3794""
","
",,170.3,run_exp/static/images/task_images/land.jpg,65,,,,,,,7,,,6,,,,,,,,234120,1,11,FALSE,,,
dig,210,652289,0.0-69.0-0.0,"""event"",""trial"",""time""
""fullscreenenter"",""1"",""3794""
","
","
","""event"",""trial"",""time""
""fullscreenenter"",""1"",""3794""
","
",,,,,,,,,,,,"[{""stimulus"":""run_exp/static/images/task_images/dig.jpg"",""time"":0.10000000149011612},{""stimulus"":""run_exp/static/images/task_images/land.jpg"",""time"":946.1999999992549},{""stimulus"":""run_exp/static/images/task_images/dig.jpg"",""time"":1896.6000000014901}]",[],6,,,,,,,,,,,,,,
harvest,211,653304,0.0-69.0-1.0,"""event"",""trial"",""time""
""fullscreenenter"",""1"",""3794""
","
","
","""event"",""trial"",""time""
""fullscreenenter"",""1"",""3794""
","
",,null,run_exp/static/images/task_images/gems/7.jpg,null,,,,,,,5,,,6,,,,,7,0.765453995,0.714285714,,,,,,,
decision,212,656318,0.0-69.0-2.0,"""event"",""trial"",""time""
""fullscreenenter"",""1"",""3794""
","
","
","""event"",""trial"",""time""
""fullscreenenter"",""1"",""3794""
","
",,null,run_exp/static/images/task_images/land.jpg,null,,,,,,,5,,,6,,,,,,,,240996,1,12,FALSE,,,
time_out,213,658336,0.0-70.0-0.0,"""event"",""trial"",""time""
""fullscreenenter"",""1"",""3794""
","
","
","""event"",""trial"",""time""
""fullscreenenter"",""1"",""3794""
","
",,null,run_exp/static/images/task_images/time_out.jpg,null,,,,,,,5,,,,,,,,,,,,,,,,,
decision,214,659066,0.0-70.0-1.0,"""event"",""trial"",""time""
""fullscreenenter"",""1"",""3794""
","
","
","""event"",""trial"",""time""
""fullscreenenter"",""1"",""3794""
","
",,729,run_exp/static/images/task_images/land.jpg,65,,,,,,,5,,,6,,,,,,,,243744,1,12,FALSE,,,
dig,215,661352,0.0-71.0-0.0,"""event"",""trial"",""time""
""fullscreenenter"",""1"",""3794""
","
","
","""event"",""trial"",""time""
""fullscreenenter"",""1"",""3794""
","
",,,,,,,,,,,,"[{""stimulus"":""run_exp/static/images/task_images/dig.jpg"",""time"":0.30000000074505806},{""stimulus"":""run_exp/static/images/task_images/land.jpg"",""time"":762.6999999992549},{""stimulus"":""run_exp/static/images/task_images/dig.jpg"",""time"":1526.9000000022352}]",[],6,,,,,,,,,,,,,,
harvest,216,662361,0.0-71.0-1.0,"""event"",""trial"",""time""
""fullscreenenter"",""1"",""3794""
","
","
","""event"",""trial"",""time""
""fullscreenenter"",""1"",""3794""
","
",,null,run_exp/static/images/task_images/gems/5.jpg,null,,,,,,,4,,,6,,,,,5,0.808539474,0.8,,,,,,,
decision,217,662393,0.0-71.0-2.0,"""event"",""trial"",""time""
""fullscreenenter"",""1"",""3794""
""blur"",""218"",""665275""
""focus"",""218"",""665289""
","""event"",""trial"",""time""
""blur"",""218"",""665275""
","""event"",""trial"",""time""
""focus"",""218"",""665289""
","""event"",""trial"",""time""
""fullscreenenter"",""1"",""3794""
","
",,31.7,run_exp/static/images/task_images/land.jpg,65,,,,,,,4,,,6,,,,,,,,247071,1,13,FALSE,,,
dig,218,665378,0.0-72.0-0.0,"""event"",""trial"",""time""
""fullscreenenter"",""1"",""3794""
""blur"",""218"",""665275""
""focus"",""218"",""665289""
","""event"",""trial"",""time""
""blur"",""218"",""665275""
","""event"",""trial"",""time""
""focus"",""218"",""665289""
","""event"",""trial"",""time""
""fullscreenenter"",""1"",""3794""
","
",,,,,,,,,,,,"[{""stimulus"":""run_exp/static/images/task_images/dig.jpg"",""time"":0.10000000149011612},{""stimulus"":""run_exp/static/images/task_images/land.jpg"",""time"":989.7000000029802},{""stimulus"":""run_exp/static/images/task_images/dig.jpg"",""time"":1985}]",[],6,,,,,,,,,,,,,,
harvest,219,666387,0.0-72.0-1.0,"""event"",""trial"",""time""
""fullscreenenter"",""1"",""3794""
""blur"",""218"",""665275""
""focus"",""218"",""665289""
","""event"",""trial"",""time""
""blur"",""218"",""665275""
","""event"",""trial"",""time""
""focus"",""218"",""665289""
","""event"",""trial"",""time""
""fullscreenenter"",""1"",""3794""
","
",,null,run_exp/static/images/task_images/gems/4.jpg,null,,,,,,,3,,,6,,,,,4,0.76793832,0.75,,,,,,,
decision,220,667010,0.0-72.0-2.0,"""event"",""trial"",""time""
""fullscreenenter"",""1"",""3794""
""blur"",""218"",""665275""
""focus"",""218"",""665289""
","""event"",""trial"",""time""
""blur"",""218"",""665275""
","""event"",""trial"",""time""
""focus"",""218"",""665289""
","""event"",""trial"",""time""
""fullscreenenter"",""1"",""3794""
","
",,623.1,run_exp/static/images/task_images/land.jpg,65,,,,,,,3,,,6,,,,,,,,251689,1,14,FALSE,,,
dig,221,669396,0.0-73.0-0.0,"""event"",""trial"",""time""
""fullscreenenter"",""1"",""3794""
""blur"",""218"",""665275""
""focus"",""218"",""665289""
","""event"",""trial"",""time""
""blur"",""218"",""665275""
","""event"",""trial"",""time""
""focus"",""218"",""665289""
","""event"",""trial"",""time""
""fullscreenenter"",""1"",""3794""
","
",,,,,,,,,,,,"[{""stimulus"":""run_exp/static/images/task_images/dig.jpg"",""time"":0.10000000149011612},{""stimulus"":""run_exp/static/images/task_images/land.jpg"",""time"":795.1000000014901},{""stimulus"":""run_exp/static/images/task_images/dig.jpg"",""time"":1590.4000000022352}]",[],6,,,,,,,,,,,,,,
harvest,222,670402,0.0-73.0-1.0,"""event"",""trial"",""time""
""fullscreenenter"",""1"",""3794""
""blur"",""218"",""665275""
""focus"",""218"",""665289""
","""event"",""trial"",""time""
""blur"",""218"",""665275""
","""event"",""trial"",""time""
""focus"",""218"",""665289""
","""event"",""trial"",""time""
""fullscreenenter"",""1"",""3794""
","
",,null,run_exp/static/images/task_images/gems/3.jpg,null,,,,,,,2,,,6,,,,,3,0.617420406,0.666666667,,,,,,,
decision,223,670474,0.0-73.0-2.0,"""event"",""trial"",""time""
""fullscreenenter"",""1"",""3794""
""blur"",""218"",""665275""
""focus"",""218"",""665289""
","""event"",""trial"",""time""
""blur"",""218"",""665275""
","""event"",""trial"",""time""
""focus"",""218"",""665289""
","""event"",""trial"",""time""
""fullscreenenter"",""1"",""3794""
","
",,70.9,run_exp/static/images/task_images/land.jpg,65,,,,,,,2,,,6,,,,,,,,255152,1,15,FALSE,,,
dig,224,673421,0.0-74.0-0.0,"""event"",""trial"",""time""
""fullscreenenter"",""1"",""3794""
""blur"",""218"",""665275""
""focus"",""218"",""665289""
","""event"",""trial"",""time""
""blur"",""218"",""665275""
","""event"",""trial"",""time""
""focus"",""218"",""665289""
","""event"",""trial"",""time""
""fullscreenenter"",""1"",""3794""
","
",,,,,,,,,,,,"[{""stimulus"":""run_exp/static/images/task_images/dig.jpg"",""time"":0.10000000149011612},{""stimulus"":""run_exp/static/images/task_images/land.jpg"",""time"":983.3000000007451},{""stimulus"":""run_exp/static/images/task_images/dig.jpg"",""time"":1955.8999999985099}]",[],6,,,,,,,,,,,,,,
harvest,225,674435,0.0-74.0-1.0,"""event"",""trial"",""time""
""fullscreenenter"",""1"",""3794""
""blur"",""218"",""665275""
""focus"",""218"",""665289""
","""event"",""trial"",""time""
""blur"",""218"",""665275""
","""event"",""trial"",""time""
""focus"",""218"",""665289""
","""event"",""trial"",""time""
""fullscreenenter"",""1"",""3794""
","
",,null,run_exp/static/images/task_images/gems/2.jpg,null,,,,,,,1,,,6,,,,,2,0.618118036,0.5,,,,,,,
decision,226,674586,0.0-74.0-2.0,"""event"",""trial"",""time""
""fullscreenenter"",""1"",""3794""
""blur"",""218"",""665275""
""focus"",""218"",""665289""
","""event"",""trial"",""time""
""blur"",""218"",""665275""
","""event"",""trial"",""time""
""focus"",""218"",""665289""
","""event"",""trial"",""time""
""fullscreenenter"",""1"",""3794""
","
",,150.6,run_exp/static/images/task_images/land.jpg,76,,,,,,,1,,,6,,,,,,,,259265,1,16,TRUE,,,
travel,227,684448,0.0-75.0-0.0,"""event"",""trial"",""time""
""fullscreenenter"",""1"",""3794""
""blur"",""218"",""665275""
""focus"",""218"",""665289""
","""event"",""trial"",""time""
""blur"",""218"",""665275""
","""event"",""trial"",""time""
""focus"",""218"",""665289""
","""event"",""trial"",""time""
""fullscreenenter"",""1"",""3794""
","
",,,,,,,,,,,,"[{""stimulus"":""run_exp/static/images/task_images/rocket-01.jpg"",""time"":0.10000000149011612},{""stimulus"":""run_exp/static/images/task_images/rocket-02.jpg"",""time"":1101.1000000014901},{""stimulus"":""run_exp/static/images/task_images/rocket-03.jpg"",""time"":2190.60000000149},{""stimulus"":""run_exp/static/images/task_images/rocket-04.jpg"",""time"":3296},{""stimulus"":""run_exp/static/images/task_images/rocket-05.jpg"",""time"":4386.699999999255},{""stimulus"":""run_exp/static/images/task_images/rocket-06.jpg"",""time"":5485.900000002235},{""stimulus"":""run_exp/static/images/task_images/rocket-07.jpg"",""time"":6567},{""stimulus"":""run_exp/static/images/task_images/rocket-08.jpg"",""time"":7666.5},{""stimulus"":""run_exp/static/images/task_images/rocket-09.jpg"",""time"":8759.400000002235}]",[],6,,,,,,,,,,,,,,
alien_welcome,228,689462,0.0-75.0-1.0,"""event"",""trial"",""time""
""fullscreenenter"",""1"",""3794""
""blur"",""218"",""665275""
""focus"",""218"",""665289""
","""event"",""trial"",""time""
""blur"",""218"",""665275""
","""event"",""trial"",""time""
""focus"",""218"",""665289""
","""event"",""trial"",""time""
""fullscreenenter"",""1"",""3794""
","
",,null,run_exp/static/images/task_images/aliens/old_aliens/planet/alien_planet-34.jpg,null,,,,,,,,,,,,,34,"41,55,46,66,73,47,34,39,36,18,8,52,35,24,15,69,13,50,37,61,31,74,11,40,12,60,65,57,10,29",,,,,,,,,,
land,229,689976,0.0-75.0-2.0,"""event"",""trial"",""time""
""fullscreenenter"",""1"",""3794""
""blur"",""218"",""665275""
""focus"",""218"",""665289""
","""event"",""trial"",""time""
""blur"",""218"",""665275""
","""event"",""trial"",""time""
""focus"",""218"",""665289""
","""event"",""trial"",""time""
""fullscreenenter"",""1"",""3794""
","
",,null,run_exp/static/images/task_images/land.jpg,null,,,,,,,105,,,7,,,,,,,,,,,,,,
dig,230,691993,0.0-75.0-3.0,"""event"",""trial"",""time""
""fullscreenenter"",""1"",""3794""
""blur"",""218"",""665275""
""focus"",""218"",""665289""
","""event"",""trial"",""time""
""blur"",""218"",""665275""
","""event"",""trial"",""time""
""focus"",""218"",""665289""
","""event"",""trial"",""time""
""fullscreenenter"",""1"",""3794""
","
",,,,,,,,,,,,"[{""stimulus"":""run_exp/static/images/task_images/dig.jpg"",""time"":0.09999999776482582},{""stimulus"":""run_exp/static/images/task_images/land.jpg"",""time"":674.3999999985099},{""stimulus"":""run_exp/static/images/task_images/dig.jpg"",""time"":1335.3999999985099}]",[],7,,,,,,,,,,,,,,
harvest,231,693000,0.0-75.0-4.0,"""event"",""trial"",""time""
""fullscreenenter"",""1"",""3794""
""blur"",""218"",""665275""
""focus"",""218"",""665289""
","""event"",""trial"",""time""
""blur"",""218"",""665275""
","""event"",""trial"",""time""
""focus"",""218"",""665289""
","""event"",""trial"",""time""
""fullscreenenter"",""1"",""3794""
","
",,null,run_exp/static/images/task_images/gems/105.jpg,null,,,,,,,80,,,7,,,,,105,0.765963392,0.761904762,,,,,,,
decision,232,693597,0.0-75.0-5.0,"""event"",""trial"",""time""
""fullscreenenter"",""1"",""3794""
""blur"",""218"",""665275""
""focus"",""218"",""665289""
","""event"",""trial"",""time""
""blur"",""218"",""665275""
","""event"",""trial"",""time""
""focus"",""218"",""665289""
","""event"",""trial"",""time""
""fullscreenenter"",""1"",""3794""
","
",,595.7,run_exp/static/images/task_images/land.jpg,65,,,,,,,80,,,7,,,,,,,,278275,1,0,FALSE,,,
dig,233,696012,0.0-76.0-0.0,"""event"",""trial"",""time""
""fullscreenenter"",""1"",""3794""
""blur"",""218"",""665275""
""focus"",""218"",""665289""
","""event"",""trial"",""time""
""blur"",""218"",""665275""
","""event"",""trial"",""time""
""focus"",""218"",""665289""
","""event"",""trial"",""time""
""fullscreenenter"",""1"",""3794""
","
",,,,,,,,,,,,"[{""stimulus"":""run_exp/static/images/task_images/dig.jpg"",""time"":0.09999999776482582},{""stimulus"":""run_exp/static/images/task_images/land.jpg"",""time"":802.8000000007451},{""stimulus"":""run_exp/static/images/task_images/dig.jpg"",""time"":1612.800000000745}]",[],7,,,,,,,,,,,,,,
harvest,234,697025,0.0-76.0-1.0,"""event"",""trial"",""time""
""fullscreenenter"",""1"",""3794""
""blur"",""218"",""665275""
""focus"",""218"",""665289""
","""event"",""trial"",""time""
""blur"",""218"",""665275""
","""event"",""trial"",""time""
""focus"",""218"",""665289""
","""event"",""trial"",""time""
""fullscreenenter"",""1"",""3794""
","
",,null,run_exp/static/images/task_images/gems/80.jpg,null,,,,,,,62,,,7,,,,,80,0.775153968,0.775,,,,,,,
decision,235,697715,0.0-76.0-2.0,"""event"",""trial"",""time""
""fullscreenenter"",""1"",""3794""
""blur"",""218"",""665275""
""focus"",""218"",""665289""
","""event"",""trial"",""time""
""blur"",""218"",""665275""
","""event"",""trial"",""time""
""focus"",""218"",""665289""
","""event"",""trial"",""time""
""fullscreenenter"",""1"",""3794""
","
",,688.9,run_exp/static/images/task_images/land.jpg,65,,,,,,,62,,,7,,,,,,,,282393,1,1,FALSE,,,
dig,236,700042,0.0-77.0-0.0,"""event"",""trial"",""time""
""fullscreenenter"",""1"",""3794""
""blur"",""218"",""665275""
""focus"",""218"",""665289""
","""event"",""trial"",""time""
""blur"",""218"",""665275""
","""event"",""trial"",""time""
""focus"",""218"",""665289""
","""event"",""trial"",""time""
""fullscreenenter"",""1"",""3794""
","
",,,,,,,,,,,,"[{""stimulus"":""run_exp/static/images/task_images/dig.jpg"",""time"":0.19999999925494194},{""stimulus"":""run_exp/static/images/task_images/land.jpg"",""time"":771.1999999992549},{""stimulus"":""run_exp/static/images/task_images/dig.jpg"",""time"":1547.699999999255}]",[],7,,,,,,,,,,,,,,
harvest,237,701044,0.0-77.0-1.0,"""event"",""trial"",""time""
""fullscreenenter"",""1"",""3794""
""blur"",""218"",""665275""
""focus"",""218"",""665289""
","""event"",""trial"",""time""
""blur"",""218"",""665275""
","""event"",""trial"",""time""
""focus"",""218"",""665289""
","""event"",""trial"",""time""
""fullscreenenter"",""1"",""3794""
","
",,null,run_exp/static/images/task_images/gems/62.jpg,null,,,,,,,49,,,7,,,,,62,0.793927511,0.790322581,,,,,,,
decision,238,701940,0.0-77.0-2.0,"""event"",""trial"",""time""
""fullscreenenter"",""1"",""3794""
""blur"",""218"",""665275""
""focus"",""218"",""665289""
","""event"",""trial"",""time""
""blur"",""218"",""665275""
","""event"",""trial"",""time""
""focus"",""218"",""665289""
","""event"",""trial"",""time""
""fullscreenenter"",""1"",""3794""
","
",,894.4,run_exp/static/images/task_images/land.jpg,65,,,,,,,49,,,7,,,,,,,,286618,1,2,FALSE,,,
dig,239,704049,0.0-78.0-0.0,"""event"",""trial"",""time""
""fullscreenenter"",""1"",""3794""
""blur"",""218"",""665275""
""focus"",""218"",""665289""
","""event"",""trial"",""time""
""blur"",""218"",""665275""
","""event"",""trial"",""time""
""focus"",""218"",""665289""
","""event"",""trial"",""time""
""fullscreenenter"",""1"",""3794""
","
",,,,,,,,,,,,"[{""stimulus"":""run_exp/static/images/task_images/dig.jpg"",""time"":0.10000000149011612},{""stimulus"":""run_exp/static/images/task_images/land.jpg"",""time"":705.6000000014901},{""stimulus"":""run_exp/static/images/task_images/dig.jpg"",""time"":1408.699999999255}]",[],7,,,,,,,,,,,,,,
harvest,240,705064,0.0-78.0-1.0,"""event"",""trial"",""time""
""fullscreenenter"",""1"",""3794""
""blur"",""218"",""665275""
""focus"",""218"",""665289""
","""event"",""trial"",""time""
""blur"",""218"",""665275""
","""event"",""trial"",""time""
""focus"",""218"",""665289""
","""event"",""trial"",""time""
""fullscreenenter"",""1"",""3794""
","
",,null,run_exp/static/images/task_images/gems/49.jpg,null,,,,,,,39,,,7,,,,,49,0.806099647,0.795918367,,,,,,,
decision,241,705436,0.0-78.0-2.0,"""event"",""trial"",""time""
""fullscreenenter"",""1"",""3794""
""blur"",""218"",""665275""
""focus"",""218"",""665289""
","""event"",""trial"",""time""
""blur"",""218"",""665275""
","""event"",""trial"",""time""
""focus"",""218"",""665289""
","""event"",""trial"",""time""
""fullscreenenter"",""1"",""3794""
","
",,371,run_exp/static/images/task_images/land.jpg,65,,,,,,,39,,,7,,,,,,,,290114,1,3,FALSE,,,
dig,242,708071,0.0-79.0-0.0,"""event"",""trial"",""time""
""fullscreenenter"",""1"",""3794""
""blur"",""218"",""665275""
""focus"",""218"",""665289""
","""event"",""trial"",""time""
""blur"",""218"",""665275""
","""event"",""trial"",""time""
""focus"",""218"",""665289""
","""event"",""trial"",""time""
""fullscreenenter"",""1"",""3794""
","
