trial_type,trial_index,time_elapsed,internal_node_id,interactions,blur_events,focus_events,fullscreenenter_events,fullscreenexit_events,success,rt,stimulus,key_press,prompt,subject_id,participant_id,age,gender,button_pressed,next_reward,animation_sequence,responses,planet,curr_prac_trial,n_prac_rounds,alien,aliens,reward_received,decay_rate_actual,decay_rate_exp,time_in_block,block_num,prt,last_trial_on_planet,button_html,bonus,num_failures
pavlovia,0,3,0.0-0.0,"""event"",""trial"",""time""
""fullscreenenter"",""1"",""3687""
","
","
","""event"",""trial"",""time""
""fullscreenenter"",""1"",""3687""
","
",,,,,,,,,,,,,,,,,,,,,,,,,,,,
fullscreen,1,4681,0.0-1.0,"""event"",""trial"",""time""
""fullscreenenter"",""1"",""3687""
","
","
","""event"",""trial"",""time""
""fullscreenenter"",""1"",""3687""
","
",TRUE,,,,,,,,,,,,,,,,,,,,,,,,,,,
instruc_welcome,2,14444,0.0-2.0,"""event"",""trial"",""time""
""fullscreenenter"",""1"",""3687""
","
","
","""event"",""trial"",""time""
""fullscreenenter"",""1"",""3687""
","
",,null,run_exp/static/audio/clip_1_welcome.m4a,null,"<p>Howdy! In this experiment, you’ll be an explorer traveling through space to collect space treasure.</p><p>Your mission is to collect as much treasure as possible.</p><br><br><p><img src='run_exp/static/images/task_images/opening_img-01.jpg' height='300' width='auto'></p>",8974,237,8.9,Female,,,,,,,,,,,,,,,,,,,
audio-keyboard-response,3,31094,0.0-3.0,"""event"",""trial"",""time""
""fullscreenenter"",""1"",""3687""
","
","
","""event"",""trial"",""time""
""fullscreenenter"",""1"",""3687""
","
",,null,run_exp/static/audio/clip_2_move.m4a,null,,,,,,,,,,,,,,,,,,,,,,,,
welcome_dec,4,32363,0.0-4.0,"""event"",""trial"",""time""
""fullscreenenter"",""1"",""3687""
","
","
","""event"",""trial"",""time""
""fullscreenenter"",""1"",""3687""
","
",,1247.2,"<p>Howdy! In this experiment, you’ll be an explorer traveling through space to collect space treasure.</p><p>Your mission is to collect as much treasure as possible.</p><br><br><p><img src='run_exp/static/images/task_images/opening_img-01.jpg' height='300' width='auto'></p>",,,,,,,1,,,,,,,,,,,,,,,,,,
html-keyboard-response,5,35649,0.0-5.0,"""event"",""trial"",""time""
""fullscreenenter"",""1"",""3687""
","
","
","""event"",""trial"",""time""
""fullscreenenter"",""1"",""3687""
","
",,3285.2,"<p>Howdy! In this experiment, you’ll be an explorer traveling through space to collect space treasure.</p><p>Your mission is to collect as much treasure as possible.</p><br><br><p><img src='run_exp/static/images/task_images/opening_img-01.jpg' height='300' width='auto'></p><button class=""jspsych-html-btn-unchosen""><img src=""run_exp/static/images/task_images/planet-01.jpg"" height=""50""></button><button class=""jspsych-html-btn-chosen""><img src=""run_exp/static/images/task_images/planet-02.jpg"" height=""50""></button><p><b>[press the space bar to lock in your answer]<b><br></p>",32,,,,,,,,,,,,,,,,,,,,,,,,
instruc_goal,6,45722,0.0-6.0-0.0,"""event"",""trial"",""time""
""fullscreenenter"",""1"",""3687""
","
","
","""event"",""trial"",""time""
""fullscreenenter"",""1"",""3687""
","
",,null,run_exp/static/audio/clip_3_goal.m4a,null,"<p> As a space explorer, you’ll visit different planets to dig for space treasure, these pink gems.</p> <p> The more treasure you dig up, the more bonus money you’ll win! </p><br><br><p><img src='run_exp/static/images/task_images/pink_gem.jpg' height='300' width='auto'></p>",,,,,,,,,,,,,,,,,,,,,,,
instruc_goal,7,55002,0.0-6.0-1.0,"""event"",""trial"",""time""
""fullscreenenter"",""1"",""3687""
","
","
","""event"",""trial"",""time""
""fullscreenenter"",""1"",""3687""
","
",,9277.9,"<p> As a space explorer, you’ll visit different planets to dig for space treasure, these pink gems.</p> <p> The more treasure you dig up, the more bonus money you’ll win! </p><br><br><p><img src='run_exp/static/images/task_images/pink_gem.jpg' height='300' width='auto'></p>",,,,,,,1,,,,,,,,,,,,,,,,,,
html-keyboard-response,8,55849,0.0-6.0-2.0,"""event"",""trial"",""time""
""fullscreenenter"",""1"",""3687""
","
","
","""event"",""trial"",""time""
""fullscreenenter"",""1"",""3687""
","
",,844.4,"<p> As a space explorer, you’ll visit different planets to dig for space treasure, these pink gems.</p> <p> The more treasure you dig up, the more bonus money you’ll win! </p><br><br><p><img src='run_exp/static/images/task_images/pink_gem.jpg' height='300' width='auto'></p><button class=""jspsych-html-btn-unchosen""><img src=""run_exp/static/images/task_images/planet-01.jpg"" height=""50""></button><button class=""jspsych-html-btn-chosen""><img src=""run_exp/static/images/task_images/planet-02.jpg"" height=""50""></button><p><b>[press the space bar to lock in your answer]<b><br></p>",32,,,,,,,,,,,,,,,,,,,,,,,,
instruc_dig,9,71865,0.0-7.0-0.0,"""event"",""trial"",""time""
""fullscreenenter"",""1"",""3687""
","
","
","""event"",""trial"",""time""
""fullscreenenter"",""1"",""3687""
","
",,null,run_exp/static/audio/clip_4_dig.m4a,null,,,,,,,100,,,,,,,,,,,,,,,,,
instruc_dig_try,10,72381,0.0-7.0-1.0,"""event"",""trial"",""time""
""fullscreenenter"",""1"",""3687""
","
","
","""event"",""trial"",""time""
""fullscreenenter"",""1"",""3687""
","
",,515.7,"<p> When you’ve arrived at a new planet, you will dig once. </p> <p>Then, you get to decide if you want to stay on the planet and dig again or travel to a new planet and dig there.</p> <p> To stay and dig, press the letter <strong>‘A’</strong> on your keyboard. Try pressing it now! </p><p><img src='run_exp/static/images/task_images/land.jpg'  height='700' width='auto'></p>",65,"<p> When you’ve arrived at a new planet, you will dig once. </p> <p>Then, you get to decide if you want to stay on the planet and dig again or travel to a new planet and dig there.</p> <p> To stay and dig, press the letter <strong>‘A’</strong> on your keyboard. Try pressing it now! </p><p><img src='run_exp/static/images/task_images/land.jpg'  height='700' width='auto'></p>",,,,,,100,,,,,,,,,,,,,,,,,
dig_prac,11,74394,0.0-7.0-2.0,"""event"",""trial"",""time""
""fullscreenenter"",""1"",""3687""
","
","
","""event"",""trial"",""time""
""fullscreenenter"",""1"",""3687""
","
",,,,,,,,,,,,"[{""stimulus"":""run_exp/static/images/task_images/dig.jpg"",""time"":0.4000000059604645},{""stimulus"":""run_exp/static/images/task_images/land.jpg"",""time"":673.2000000178814},{""stimulus"":""run_exp/static/images/task_images/dig.jpg"",""time"":1347.300000011921}]",[],,,,,,,,,,,,,,,
instruc_travel,12,110620,0.0-7.0-3.0,"""event"",""trial"",""time""
""fullscreenenter"",""1"",""3687""
","
","
","""event"",""trial"",""time""
""fullscreenenter"",""1"",""3687""
","
",,null,run_exp/static/audio/clip_5_travel.m4a,null,"<p>Every time you dig up gems, there are less gems on the planet, so the more you dig on a planet the fewer gems you’ll get with each dig.</p><p>When gems are running low, you may want to travel to a new planet. </p> <p>  Planets are very far apart in this galaxy, so it will take some time to travel between them. </p> <br><p>There are lots and lots of planets for you to visit, so you won’t be able to return to any planets you’ve seen before. </p><br><p>To leave this planet and travel to a new one, press the letter <strong>‘L’</strong> on your keyboard. Try pressing it now! </p><p><img src='run_exp/static/images/task_images/rocket-01.jpg'  height='600' width='auto'></p>",,,,,,,,,,,,,,,,,,,,,,,
instruc_travel_try,13,113081,0.0-7.0-4.0,"""event"",""trial"",""time""
""fullscreenenter"",""1"",""3687""
","
","
","""event"",""trial"",""time""
""fullscreenenter"",""1"",""3687""
","
",,2450.8,"<p>Every time you dig up gems, there are less gems on the planet, so the more you dig on a planet the fewer gems you’ll get with each dig.</p><p>When gems are running low, you may want to travel to a new planet. </p> <p>  Planets are very far apart in this galaxy, so it will take some time to travel between them. </p> <br><p>There are lots and lots of planets for you to visit, so you won’t be able to return to any planets you’ve seen before. </p><br><p>To leave this planet and travel to a new one, press the letter <strong>‘L’</strong> on your keyboard. Try pressing it now! </p><p><img src='run_exp/static/images/task_images/rocket-01.jpg'  height='600' width='auto'></p>",76,"<p>Every time you dig up gems, there are less gems on the planet, so the more you dig on a planet the fewer gems you’ll get with each dig.</p><p>When gems are running low, you may want to travel to a new planet. </p> <p>  Planets are very far apart in this galaxy, so it will take some time to travel between them. </p> <br><p>There are lots and lots of planets for you to visit, so you won’t be able to return to any planets you’ve seen before. </p><br><p>To leave this planet and travel to a new one, press the letter <strong>‘L’</strong> on your keyboard. Try pressing it now! </p><p><img src='run_exp/static/images/task_images/rocket-01.jpg'  height='600' width='auto'></p>",,,,,,,,,,,,,,,,,,,,,,,
travel_prac,14,123087,0.0-7.0-5.0,"""event"",""trial"",""time""
""fullscreenenter"",""1"",""3687""
","
","
","""event"",""trial"",""time""
""fullscreenenter"",""1"",""3687""
","
",,,,,,,,,,,,"[{""stimulus"":""run_exp/static/images/task_images/rocket-01.jpg"",""time"":0.29999998211860657},{""stimulus"":""run_exp/static/images/task_images/rocket-02.jpg"",""time"":1113.5},{""stimulus"":""run_exp/static/images/task_images/rocket-03.jpg"",""time"":2226.399999976158},{""stimulus"":""run_exp/static/images/task_images/rocket-04.jpg"",""time"":3336.399999976158},{""stimulus"":""run_exp/static/images/task_images/rocket-05.jpg"",""time"":4450.899999976158},{""stimulus"":""run_exp/static/images/task_images/rocket-06.jpg"",""time"":5560.399999976158},{""stimulus"":""run_exp/static/images/task_images/rocket-07.jpg"",""time"":6673.5},{""stimulus"":""run_exp/static/images/task_images/rocket-08.jpg"",""time"":7785.299999982119},{""stimulus"":""run_exp/static/images/task_images/rocket-09.jpg"",""time"":8898.899999976158}]",[],0,,,,,,,,,,,,,,
instruc_alien_greet,15,150304,0.0-7.0-6.0,"""event"",""trial"",""time""
""fullscreenenter"",""1"",""3687""
","
","
","""event"",""trial"",""time""
""fullscreenenter"",""1"",""3687""
","
",,null,run_exp/static/audio/clip_6_alien.m4a,null,"<p>When you arrive at a new planet, the alien who owns the treasure mine on that planet will greet you!</p><p>The better an alien takes care of their mine the easier it is to dig for gems. Some aliens take better care of their mine than others. So, you won’t get exactly the same amount of gems on each planet.</p><p>What the alien looks like does not tell you anything about how many gems there are on the planet.</p><br><p><img src=""run_exp/static/images/task_images/aliens/instructions_aliens/planet/alien_planet-1.jpg""  height=""600"" width=""auto""></p>",,,,,,,,,,,,,,,,,,,,,,,
instruc_alien_greet,16,164998,0.0-7.0-7.0,"""event"",""trial"",""time""
""fullscreenenter"",""1"",""3687""
","
","
","""event"",""trial"",""time""
""fullscreenenter"",""1"",""3687""
","
",,14692.7,"<p>When you arrive at a new planet, the alien who owns the treasure mine on that planet will greet you!</p><p>The better an alien takes care of their mine the easier it is to dig for gems. Some aliens take better care of their mine than others. So, you won’t get exactly the same amount of gems on each planet.</p><p>What the alien looks like does not tell you anything about how many gems there are on the planet.</p><br><p><img src=""run_exp/static/images/task_images/aliens/instructions_aliens/planet/alien_planet-1.jpg""  height=""600"" width=""auto""></p>",,,,,,,1,,,,,,,,,,,,,,,,,,
html-keyboard-response,17,168648,0.0-7.0-8.0,"""event"",""trial"",""time""
""fullscreenenter"",""1"",""3687""
","
","
","""event"",""trial"",""time""
""fullscreenenter"",""1"",""3687""
","
",,3648.2,"<p>When you arrive at a new planet, the alien who owns the treasure mine on that planet will greet you!</p><p>The better an alien takes care of their mine the easier it is to dig for gems. Some aliens take better care of their mine than others. So, you won’t get exactly the same amount of gems on each planet.</p><p>What the alien looks like does not tell you anything about how many gems there are on the planet.</p><br><p><img src=""run_exp/static/images/task_images/aliens/instructions_aliens/planet/alien_planet-1.jpg""  height=""600"" width=""auto""></p><button class=""jspsych-html-btn-unchosen""><img src=""run_exp/static/images/task_images/planet-01.jpg"" height=""50""></button><button class=""jspsych-html-btn-chosen""><img src=""run_exp/static/images/task_images/planet-02.jpg"" height=""50""></button><p><b>[press the space bar to lock in your answer]<b><br></p>",32,,,,,,,,,,,,,,,,,,,,,,,,
time_out,18,179730,0.0-8.0-0.0,"""event"",""trial"",""time""
""fullscreenenter"",""1"",""3687""
","
","
","""event"",""trial"",""time""
""fullscreenenter"",""1"",""3687""
","
",,null,run_exp/static/audio/clip_7_timeout.m4a,null,"<p>If you don't make your choice fast enough, you’ll have to wait a few seconds before you can make another one.</p><p>You can’t dig for more gems or travel to new planets. You just have to sit and wait.</p><br><p><img src='run_exp/static/images/task_images/time_out.jpg'  height='600' width='auto'></p>",,,,,,,,,,,,,,,,,,,,,,,
time_out,19,182918,0.0-8.0-1.0,"""event"",""trial"",""time""
""fullscreenenter"",""1"",""3687""
","
","
","""event"",""trial"",""time""
""fullscreenenter"",""1"",""3687""
","
",,3187.2,"<p>If you don't make your choice fast enough, you’ll have to wait a few seconds before you can make another one.</p><p>You can’t dig for more gems or travel to new planets. You just have to sit and wait.</p><br><p><img src='run_exp/static/images/task_images/time_out.jpg'  height='600' width='auto'></p>",,,,,,,1,,,,,,,,,,,,,,,,,,
html-keyboard-response,20,184151,0.0-8.0-2.0,"""event"",""trial"",""time""
""fullscreenenter"",""1"",""3687""
","
","
","""event"",""trial"",""time""
""fullscreenenter"",""1"",""3687""
","
",,1230.8,"<p>If you don't make your choice fast enough, you’ll have to wait a few seconds before you can make another one.</p><p>You can’t dig for more gems or travel to new planets. You just have to sit and wait.</p><br><p><img src='run_exp/static/images/task_images/time_out.jpg'  height='600' width='auto'></p><button class=""jspsych-html-btn-unchosen""><img src=""run_exp/static/images/task_images/planet-01.jpg"" height=""50""></button><button class=""jspsych-html-btn-chosen""><img src=""run_exp/static/images/task_images/planet-02.jpg"" height=""50""></button><p><b>[press the space bar to lock in your answer]<b><br></p>",32,,,,,,,,,,,,,,,,,,,,,,,,
instruc_break,21,199839,0.0-9.0-0.0,"""event"",""trial"",""time""
""fullscreenenter"",""1"",""3687""
","
","
","""event"",""trial"",""time""
""fullscreenenter"",""1"",""3687""
","
",,null,run_exp/static/audio/clip_8_break.m4a,null,"<p> After digging and traveling for a while, you’ll be able to take a break at home base. </p><p>The game will last 20 minutes no matter what.</p><p>You will visit home base every 5 minutes, so, you will visit home base three times during the game.</p><br><p><img src='run_exp/static/images/task_images/home_base.jpg' height='600' width='auto'></p>",,,,,,,,,,,,,,,,,,,,,,,
instruc_break,22,202002,0.0-9.0-1.0,"""event"",""trial"",""time""
""fullscreenenter"",""1"",""3687""
","
","
","""event"",""trial"",""time""
""fullscreenenter"",""1"",""3687""
","
",,2161.7,"<p> After digging and traveling for a while, you’ll be able to take a break at home base. </p><p>The game will last 20 minutes no matter what.</p><p>You will visit home base every 5 minutes, so, you will visit home base three times during the game.</p><br><p><img src='run_exp/static/images/task_images/home_base.jpg' height='600' width='auto'></p>",,,,,,,1,,,,,,,,,,,,,,,,,,
html-keyboard-response,23,202737,0.0-9.0-2.0,"""event"",""trial"",""time""
""fullscreenenter"",""1"",""3687""
","
","
","""event"",""trial"",""time""
""fullscreenenter"",""1"",""3687""
","
",,733.8,"<p> After digging and traveling for a while, you’ll be able to take a break at home base. </p><p>The game will last 20 minutes no matter what.</p><p>You will visit home base every 5 minutes, so, you will visit home base three times during the game.</p><br><p><img src='run_exp/static/images/task_images/home_base.jpg' height='600' width='auto'></p><button class=""jspsych-html-btn-unchosen""><img src=""run_exp/static/images/task_images/planet-01.jpg"" height=""50""></button><button class=""jspsych-html-btn-chosen""><img src=""run_exp/static/images/task_images/planet-02.jpg"" height=""50""></button><p><b>[press the space bar to lock in your answer]<b><br></p>",32,,,,,,,,,,,,,,,,,,,,,,,,
instruc_prac_game,24,212866,0.0-10.0-0.0,"""event"",""trial"",""time""
""fullscreenenter"",""1"",""3687""
","
","
","""event"",""trial"",""time""
""fullscreenenter"",""1"",""3687""
","
",,null,run_exp/static/audio/clip_9_practice.m4a,null,"<p> Are you ready to play a practice game? </p> <p>In this practice game, you'll be digging up barrels of gems. But, in the real game, you'll be digging up the gems themselves. </p>",,,,,,,,,,,,,,,,,,,,,,,
html-button-response,25,215899,0.0-10.0-1.0,"""event"",""trial"",""time""
""fullscreenenter"",""1"",""3687""
","
","
","""event"",""trial"",""time""
""fullscreenenter"",""1"",""3687""
","
",,3031.7,"<p> Are you ready to play a practice game? </p> <p>In this practice game, you'll be digging up barrels of gems. But, in the real game, you'll be digging up the gems themselves. </p>",,,,,,,0,,,,,,,,,,,,,,,,,,
alien_welcome_prac,26,220914,0.0-11.0-0.0,"""event"",""trial"",""time""
""fullscreenenter"",""1"",""3687""
","
","
","""event"",""trial"",""time""
""fullscreenenter"",""1"",""3687""
","
",,null,run_exp/static/images/task_images/aliens/practice_aliens/planet/alien_planet-5.jpg,null,,,,,,,,,,,,,,,,,,,,,,,,
land_prac,27,221416,0.0-11.0-1.0,"""event"",""trial"",""time""
""fullscreenenter"",""1"",""3687""
","
","
","""event"",""trial"",""time""
""fullscreenenter"",""1"",""3687""
","
",,null,run_exp/static/images/task_images/land.jpg,null,,,,,,,98,,,0,,,,,,,,,,,,,,
dig_prac,28,223421,0.0-11.0-2.0,"""event"",""trial"",""time""
""fullscreenenter"",""1"",""3687""
","
","
","""event"",""trial"",""time""
""fullscreenenter"",""1"",""3687""
","
",,,,,,,,,,,,"[{""stimulus"":""run_exp/static/images/task_images/dig.jpg"",""time"":0.30000001192092896},{""stimulus"":""run_exp/static/images/task_images/land.jpg"",""time"":671.5},{""stimulus"":""run_exp/static/images/task_images/dig.jpg"",""time"":1340.199999988079}]",[],,,,,,,,,,,,,,,
harvest_prac,29,224430,0.0-11.0-3.0,"""event"",""trial"",""time""
""fullscreenenter"",""1"",""3687""
","
","
","""event"",""trial"",""time""
""fullscreenenter"",""1"",""3687""
","
",,null,run_exp/static/images/task_images/barrel_text.jpg,null,,,,,,,,,,,,,,,,,,,,,,,,
decision_prac,30,225425,0.0-11.0-4.0,"""event"",""trial"",""time""
""fullscreenenter"",""1"",""3687""
","
","
","""event"",""trial"",""time""
""fullscreenenter"",""1"",""3687""
","
",,994.1,run_exp/static/images/task_images/land.jpg,65,,,,,,,,,,,1,,,,,,,,,,,,,
dig_prac,31,227431,0.0-12.0-0.0,"""event"",""trial"",""time""
""fullscreenenter"",""1"",""3687""
","
","
","""event"",""trial"",""time""
""fullscreenenter"",""1"",""3687""
","
",,,,,,,,,,,,"[{""stimulus"":""run_exp/static/images/task_images/dig.jpg"",""time"":0.19999998807907104},{""stimulus"":""run_exp/static/images/task_images/land.jpg"",""time"":676.0999999940395},{""stimulus"":""run_exp/static/images/task_images/dig.jpg"",""time"":1338.7999999821186}]",[],,,,,,,,,,,,,,,
harvest_prac,32,228439,0.0-12.0-1.0,"""event"",""trial"",""time""
""fullscreenenter"",""1"",""3687""
","
","
","""event"",""trial"",""time""
""fullscreenenter"",""1"",""3687""
","
",,null,run_exp/static/images/task_images/barrel_text.jpg,null,,,,,,,,,,,,,,,,,,,,,,,,
decision_prac,33,230361,0.0-12.0-2.0,"""event"",""trial"",""time""
""fullscreenenter"",""1"",""3687""
","
","
","""event"",""trial"",""time""
""fullscreenenter"",""1"",""3687""
","
",,1920.8,run_exp/static/images/task_images/land.jpg,65,,,,,,,,,,,2,,,,,,,,,,,,,
dig_prac,34,232367,0.0-13.0-0.0,"""event"",""trial"",""time""
""fullscreenenter"",""1"",""3687""
","
","
","""event"",""trial"",""time""
""fullscreenenter"",""1"",""3687""
","
",,,,,,,,,,,,"[{""stimulus"":""run_exp/static/images/task_images/dig.jpg"",""time"":0.09999999403953552},{""stimulus"":""run_exp/static/images/task_images/land.jpg"",""time"":675.6999999880791},{""stimulus"":""run_exp/static/images/task_images/dig.jpg"",""time"":1334.7999999821186}]",[],,,,,,,,,,,,,,,
harvest_prac,35,233375,0.0-13.0-1.0,"""event"",""trial"",""time""
""fullscreenenter"",""1"",""3687""
","
","
","""event"",""trial"",""time""
""fullscreenenter"",""1"",""3687""
","
",,null,run_exp/static/images/task_images/barrel_text.jpg,null,,,,,,,,,,,,,,,,,,,,,,,,
decision_prac,36,236382,0.0-13.0-2.0,"""event"",""trial"",""time""
""fullscreenenter"",""1"",""3687""
","
","
","""event"",""trial"",""time""
""fullscreenenter"",""1"",""3687""
","
",,null,run_exp/static/images/task_images/land.jpg,null,,,,,,,,,,,3,,,,,,,,,,,,,
time_out,37,238391,0.0-14.0-0.0,"""event"",""trial"",""time""
""fullscreenenter"",""1"",""3687""
","
","
","""event"",""trial"",""time""
""fullscreenenter"",""1"",""3687""
","
",,null,run_exp/static/images/task_images/time_out.jpg,null,,,,,,,,,,,,,,,,,,,,,,,,
decision_prac,38,241402,0.0-14.0-1.0,"""event"",""trial"",""time""
""fullscreenenter"",""1"",""3687""
","
","
","""event"",""trial"",""time""
""fullscreenenter"",""1"",""3687""
","
",,null,run_exp/static/images/task_images/land.jpg,null,,,,,,,,,,,4,,,,,,,,,,,,,
time_out,39,243407,0.0-15.0-0.0,"""event"",""trial"",""time""
""fullscreenenter"",""1"",""3687""
","
","
","""event"",""trial"",""time""
""fullscreenenter"",""1"",""3687""
","
",,null,run_exp/static/images/task_images/time_out.jpg,null,,,,,,,,,,,,,,,,,,,,,,,,
decision_prac,40,246414,0.0-15.0-1.0,"""event"",""trial"",""time""
""fullscreenenter"",""1"",""3687""
","
","
","""event"",""trial"",""time""
""fullscreenenter"",""1"",""3687""
","
",,null,run_exp/static/images/task_images/land.jpg,null,,,,,,,,,,,,1,,,,,,,,,,,,
quiz_instruc,41,255624,0.0-16.0-0.0,"""event"",""trial"",""time""
""fullscreenenter"",""1"",""3687""
","
","
","""event"",""trial"",""time""
""fullscreenenter"",""1"",""3687""
","
",,9206.6,run_exp/static/audio/clip_10_quiz.m4a,,,,,,,0,,,,,,,,,,,,,,,,,,
instruc_repeat,42,298410,0.0-16.0-1.0,"""event"",""trial"",""time""
""fullscreenenter"",""1"",""3687""
","
","
","""event"",""trial"",""time""
""fullscreenenter"",""1"",""3687""
","
",,null,"<p> Are you ready to play a practice game? </p> <p>In this practice game, you'll be digging up barrels of gems. But, in the real game, you'll be digging up the gems themselves. </p>",null,"<p>In this game, your goal is to collect as many gems as you can. That’s how you will win bonus money. </p> <p>The entire game will last 20 minutes no matter how many gems you collect or how many planets you visit. </p><p>To stay on a planet and dig again, press the letter A on your keyboard. To leave for a new planet, press the letter L.</p><p>The more you dig on a planet, the fewer gems you’ll get with each dig which is why you might consider leaving for a new planet. </p><p>When you arrive at a new planet, you’ll be greeted by an alien. What the alien looks like does not tell you anything about how much treasure is on the planet. </p>",,,,,,,,,,,,,,,,,,,,,,,
instruc_repeat_continue,43,299855,0.0-16.0-2.0,"""event"",""trial"",""time""
""fullscreenenter"",""1"",""3687""
","
","
","""event"",""trial"",""time""
""fullscreenenter"",""1"",""3687""
","
",,1444.1,"<p> Are you ready to play a practice game? </p> <p>In this practice game, you'll be digging up barrels of gems. But, in the real game, you'll be digging up the gems themselves. </p>",,,,,,,0,,,,,,,,,,,,,,,,,,
quiz_q_1_ask,44,307816,0.0-16.0-3.0,"""event"",""trial"",""time""
""fullscreenenter"",""1"",""3687""
","
","
","""event"",""trial"",""time""
""fullscreenenter"",""1"",""3687""
","
",,7959.1,run_exp/static/audio/clip_11_q1_ask.m4a,,,,,,,2,,,,,,,,,,,,,,,,,,
quiz_q_1_fb_correct,45,311692,0.0-17.0-0.0,"""event"",""trial"",""time""
""fullscreenenter"",""1"",""3687""
","
","
","""event"",""trial"",""time""
""fullscreenenter"",""1"",""3687""
","
",,null,run_exp/static/audio/clip_12_q1_correct.m4a,null,<p>That’s correct. You win extra money by collecting more gems.</p>,,,,,,,,,,,,,,,,,,,,,,,
quiz_q_2_ask,46,318110,0.0-17.0-1.0,"""event"",""trial"",""time""
""fullscreenenter"",""1"",""3687""
","
","
","""event"",""trial"",""time""
""fullscreenenter"",""1"",""3687""
","
",,6416.5,run_exp/static/audio/clip_14_q2_ask.m4a,,,,,,,1,,,,,,,,,,,,,,,,,,
quiz_q_2_fb_correct,47,322095,0.0-18.0-0.0,"""event"",""trial"",""time""
""fullscreenenter"",""1"",""3687""
","
","
","""event"",""trial"",""time""
""fullscreenenter"",""1"",""3687""
","
",,null,run_exp/static/audio/clip_15_q2_correct.m4a,null,<p>That’s correct. The experiment is 20 minutes no matter what.</p>,,,,,,,,,,,,,,,,,,,,,,,
quiz_q_3_ask,48,325574,0.0-18.0-1.0,"""event"",""trial"",""time""
""fullscreenenter"",""1"",""3687""
","
","
","""event"",""trial"",""time""
""fullscreenenter"",""1"",""3687""
","
",,3477.6,run_exp/static/audio/clip_17_q3_ask.m4a,,,,,,,1,,,,,,,,,,,,,,,,,,
quiz_q_3_fb_correct,49,329572,0.0-19.0-0.0,"""event"",""trial"",""time""
""fullscreenenter"",""1"",""3687""
","
","
","""event"",""trial"",""time""
""fullscreenenter"",""1"",""3687""
","
",,null,run_exp/static/audio/clip_18_q3_correct.m4a,null,<p> That’s correct. You press the letter L to travel to a new planet.</p>,,,,,,,,,,,,,,,,,,,,,,,
quiz_q_4_ask,50,345077,0.0-19.0-1.0,"""event"",""trial"",""time""
""fullscreenenter"",""1"",""3687""
","
","
","""event"",""trial"",""time""
""fullscreenenter"",""1"",""3687""
","
",,15503.2,run_exp/static/audio/clip_20_q4_ask.m4a,,,,,,,0,,,,,,,,,,,,,,,,,,
quiz_q_4_fb_correct,51,350424,0.0-20.0-0.0,"""event"",""trial"",""time""
""fullscreenenter"",""1"",""3687""
","
","
","""event"",""trial"",""time""
""fullscreenenter"",""1"",""3687""
","
",,null,run_exp/static/audio/clip_21_q4_correct.m4a,null,<p> That’s correct. The more you dig on a planet the fewer gems you’ll get with each dig. </p>,,,,,,,,,,,,,,,,,,,,,,,
quiz_q_5_ask,52,354941,0.0-20.0-1.0,"""event"",""trial"",""time""
""fullscreenenter"",""1"",""3687""
","
","
","""event"",""trial"",""time""
""fullscreenenter"",""1"",""3687""
","
",,4515.2,run_exp/static/audio/clip_23_q5_ask.m4a,,,,,,,1,,,,,,,,,,,,,,,,,,
quiz_q_5_fb_correct,53,359944,0.0-21.0-0.0,"""event"",""trial"",""time""
""fullscreenenter"",""1"",""3687""
","
","
","""event"",""trial"",""time""
""fullscreenenter"",""1"",""3687""
","
",,null,run_exp/static/audio/clip_24_q5_correct.m4a,null,<p> That’s correct. The alien tells you nothing about how much treasure is on the planet.</p>,,,,,,,,,,,,,,,,,,,,,,,
quiz_correct,54,363404,0.0-22.0-0.0,"""event"",""trial"",""time""
""fullscreenenter"",""1"",""3687""
","
","
","""event"",""trial"",""time""
""fullscreenenter"",""1"",""3687""
","
",,null,run_exp/static/audio/clip_26_correct_quiz.m4a,null,,,,,,,,,,,,,,,,,,,,,,,,
quiz_correct_continue,55,364567,0.0-22.0-1.0,"""event"",""trial"",""time""
""fullscreenenter"",""1"",""3687""
","
","
","""event"",""trial"",""time""
""fullscreenenter"",""1"",""3687""
","
",,1161.6,<p>Good job! You're now ready to move on to the real game!</p>,,,,,,,0,,,,,,,,,,,,,,,,,,
audio-keyboard-response,56,374713,0.0-22.0-2.0,"""event"",""trial"",""time""
""fullscreenenter"",""1"",""3687""
","
","
","""event"",""trial"",""time""
""fullscreenenter"",""1"",""3687""
","
",,null,run_exp/static/audio/clip_28_real_game.m4a,null,,,,,,,,,,,,,,,,,,,,,,,,
instruc_begin_exp_contine,57,376439,0.0-22.0-3.0,"""event"",""trial"",""time""
""fullscreenenter"",""1"",""3687""
","
","
","""event"",""trial"",""time""
""fullscreenenter"",""1"",""3687""
","
",,1725,"<p>Now that you know how  to dig for space treasure and travel to new planets,you can start exploring! </p><p>Do you want to go over the instructions again or get started with the real game?</p>",,,,,,,1,,,,,,1,,,,,,,,,,,,
alien_welcome,58,381452,0.0-23.0-0.0,"""event"",""trial"",""time""
""fullscreenenter"",""1"",""3687""
","
","
","""event"",""trial"",""time""
""fullscreenenter"",""1"",""3687""
","
",,null,run_exp/static/images/task_images/aliens/old_aliens/planet/alien_planet-23.jpg,null,,,,,,,,,,,,,23,"23,62,38,51,28,66,43,76,69,61,34,21,4,57,13,17,75,71,58,16,80,74,44,77,10,2",,,,,,,,,,
land,59,381957,0.0-23.0-1.0,"""event"",""trial"",""time""
""fullscreenenter"",""1"",""3687""
","
","
","""event"",""trial"",""time""
""fullscreenenter"",""1"",""3687""
","
",,null,run_exp/static/images/task_images/land.jpg,null,,,,,,,104,,,1,,,,,,,,,,,,,,
dig,60,383966,0.0-23.0-2.0,"""event"",""trial"",""time""
""fullscreenenter"",""1"",""3687""
","
","
","""event"",""trial"",""time""
""fullscreenenter"",""1"",""3687""
","
",,,,,,,,,,,,"[{""stimulus"":""run_exp/static/images/task_images/dig.jpg"",""time"":0.19999998807907104},{""stimulus"":""run_exp/static/images/task_images/land.jpg"",""time"":676.6999999880791},{""stimulus"":""run_exp/static/images/task_images/dig.jpg"",""time"":1336.5}]",[],1,,,,,,,,,,,,,,
harvest,61,384969,0.0-23.0-3.0,"""event"",""trial"",""time""
""fullscreenenter"",""1"",""3687""
","
","
","""event"",""trial"",""time""
""fullscreenenter"",""1"",""3687""
","
",,null,run_exp/static/images/task_images/gems/104.jpg,null,,,,,,,18,,,1,,,,,104,0.177722026,0.173076923,,,,,,,
decision,62,385575,0.0-23.0-4.0,"""event"",""trial"",""time""
""fullscreenenter"",""1"",""3687""
","
","
","""event"",""trial"",""time""
""fullscreenenter"",""1"",""3687""
","
",,604.3,run_exp/static/images/task_images/land.jpg,65,,,,,,,18,,,1,,,,,,,,9135,1,0,FALSE,,,
dig,63,387981,0.0-24.0-0.0,"""event"",""trial"",""time""
""fullscreenenter"",""1"",""3687""
","
","
","""event"",""trial"",""time""
""fullscreenenter"",""1"",""3687""
","
",,,,,,,,,,,,"[{""stimulus"":""run_exp/static/images/task_images/dig.jpg"",""time"":0.20000001788139343},{""stimulus"":""run_exp/static/images/task_images/land.jpg"",""time"":801.5999999940395},{""stimulus"":""run_exp/static/images/task_images/dig.jpg"",""time"":1603.9000000059605}]",[],1,,,,,,,,,,,,,,
harvest,64,388988,0.0-24.0-1.0,"""event"",""trial"",""time""
""fullscreenenter"",""1"",""3687""
","
","
","""event"",""trial"",""time""
""fullscreenenter"",""1"",""3687""
","
",,null,run_exp/static/images/task_images/gems/18.jpg,null,,,,,,,4,,,1,,,,,18,0.196427504,0.222222222,,,,,,,
decision,65,389713,0.0-24.0-2.0,"""event"",""trial"",""time""
""fullscreenenter"",""1"",""3687""
","
","
","""event"",""trial"",""time""
""fullscreenenter"",""1"",""3687""
","
",,724.3,run_exp/static/images/task_images/land.jpg,65,,,,,,,4,,,1,,,,,,,,13272,1,1,FALSE,,,
dig,66,391995,0.0-25.0-0.0,"""event"",""trial"",""time""
""fullscreenenter"",""1"",""3687""
","
","
","""event"",""trial"",""time""
""fullscreenenter"",""1"",""3687""
","
",,,,,,,,,,,,"[{""stimulus"":""run_exp/static/images/task_images/dig.jpg"",""time"":0.30000001192092896},{""stimulus"":""run_exp/static/images/task_images/land.jpg"",""time"":761.8000000119209},{""stimulus"":""run_exp/static/images/task_images/dig.jpg"",""time"":1522}]",[],1,,,,,,,,,,,,,,
harvest,67,393003,0.0-25.0-1.0,"""event"",""trial"",""time""
""fullscreenenter"",""1"",""3687""
","
","
","""event"",""trial"",""time""
""fullscreenenter"",""1"",""3687""
","
",,null,run_exp/static/images/task_images/gems/4.jpg,null,,,,,,,1,,,1,,,,,4,0.199120796,0.25,,,,,,,
decision,68,394295,0.0-25.0-2.0,"""event"",""trial"",""time""
""fullscreenenter"",""1"",""3687""
","
","
","""event"",""trial"",""time""
""fullscreenenter"",""1"",""3687""
","
",,1291,run_exp/static/images/task_images/land.jpg,76,,,,,,,1,,,1,,,,,,,,17854,1,2,TRUE,,,
travel,69,403007,0.0-26.0-0.0,"""event"",""trial"",""time""
""fullscreenenter"",""1"",""3687""
","
","
","""event"",""trial"",""time""
""fullscreenenter"",""1"",""3687""
","
",,,,,,,,,,,,"[{""stimulus"":""run_exp/static/images/task_images/rocket-01.jpg"",""time"":0.19999998807907104},{""stimulus"":""run_exp/static/images/task_images/rocket-02.jpg"",""time"":971.2999999821186},{""stimulus"":""run_exp/static/images/task_images/rocket-03.jpg"",""time"":1937.199999988079},{""stimulus"":""run_exp/static/images/task_images/rocket-04.jpg"",""time"":2906.699999988079},{""stimulus"":""run_exp/static/images/task_images/rocket-05.jpg"",""time"":3875.5999999940395},{""stimulus"":""run_exp/static/images/task_images/rocket-06.jpg"",""time"":4841.5},{""stimulus"":""run_exp/static/images/task_images/rocket-07.jpg"",""time"":5809.799999982119},{""stimulus"":""run_exp/static/images/task_images/rocket-08.jpg"",""time"":6777.699999988079},{""stimulus"":""run_exp/static/images/task_images/rocket-09.jpg"",""time"":7738.5999999940395}]",[],1,,,,,,,,,,,,,,
alien_welcome,70,408011,0.0-26.0-1.0,"""event"",""trial"",""time""
""fullscreenenter"",""1"",""3687""
","
","
","""event"",""trial"",""time""
""fullscreenenter"",""1"",""3687""
","
",,null,run_exp/static/images/task_images/aliens/old_aliens/planet/alien_planet-62.jpg,null,,,,,,,,,,,,,62,"23,62,38,51,28,66,43,76,69,61,34,21,4,57,13,17,75,71,58,16,80,74,44,77,10,2",,,,,,,,,,
land,71,408515,0.0-26.0-2.0,"""event"",""trial"",""time""
""fullscreenenter"",""1"",""3687""
","
","
","""event"",""trial"",""time""
""fullscreenenter"",""1"",""3687""
","
",,null,run_exp/static/images/task_images/land.jpg,null,,,,,,,107,,,2,,,,,,,,,,,,,,
dig,72,410523,0.0-26.0-3.0,"""event"",""trial"",""time""
""fullscreenenter"",""1"",""3687""
","
","
","""event"",""trial"",""time""
""fullscreenenter"",""1"",""3687""
","
",,,,,,,,,,,,"[{""stimulus"":""run_exp/static/images/task_images/dig.jpg"",""time"":0.19999998807907104},{""stimulus"":""run_exp/static/images/task_images/land.jpg"",""time"":671.6999999880791},{""stimulus"":""run_exp/static/images/task_images/dig.jpg"",""time"":1337.5}]",[],2,,,,,,,,,,,,,,
harvest,73,411531,0.0-26.0-4.0,"""event"",""trial"",""time""
""fullscreenenter"",""1"",""3687""
","
","
","""event"",""trial"",""time""
""fullscreenenter"",""1"",""3687""
","
",,null,run_exp/static/images/task_images/gems/107.jpg,null,,,,,,,18,,,2,,,,,107,0.167511197,0.168224299,,,,,,,
decision,74,411984,0.0-26.0-5.0,"""event"",""trial"",""time""
""fullscreenenter"",""1"",""3687""
","
","
","""event"",""trial"",""time""
""fullscreenenter"",""1"",""3687""
","
",,452.5,run_exp/static/images/task_images/land.jpg,65,,,,,,,18,,,2,,,,,,,,35544,1,0,FALSE,,,
dig,75,414540,0.0-27.0-0.0,"""event"",""trial"",""time""
""fullscreenenter"",""1"",""3687""
","
","
","""event"",""trial"",""time""
""fullscreenenter"",""1"",""3687""
","
",,,,,,,,,,,,"[{""stimulus"":""run_exp/static/images/task_images/dig.jpg"",""time"":0.09999999403953552},{""stimulus"":""run_exp/static/images/task_images/land.jpg"",""time"":857.3000000119209},{""stimulus"":""run_exp/static/images/task_images/dig.jpg"",""time"":1704.5}]",[],2,,,,,,,,,,,,,,
harvest,76,415547,0.0-27.0-1.0,"""event"",""trial"",""time""
""fullscreenenter"",""1"",""3687""
","
","
","""event"",""trial"",""time""
""fullscreenenter"",""1"",""3687""
","
",,null,run_exp/static/images/task_images/gems/18.jpg,null,,,,,,,3,,,2,,,,,18,0.191458924,0.166666667,,,,,,,
decision,77,416121,0.0-27.0-2.0,"""event"",""trial"",""time""
""fullscreenenter"",""1"",""3687""
","
","
","""event"",""trial"",""time""
""fullscreenenter"",""1"",""3687""
","
",,572.6,run_exp/static/images/task_images/land.jpg,65,,,,,,,3,,,2,,,,,,,,39680,1,1,FALSE,,,
dig,78,418553,0.0-28.0-0.0,"""event"",""trial"",""time""
""fullscreenenter"",""1"",""3687""
","
","
","""event"",""trial"",""time""
""fullscreenenter"",""1"",""3687""
","
",,,,,,,,,,,,"[{""stimulus"":""run_exp/static/images/task_images/dig.jpg"",""time"":0.20000001788139343},{""stimulus"":""run_exp/static/images/task_images/land.jpg"",""time"":811.9000000059605},{""stimulus"":""run_exp/static/images/task_images/dig.jpg"",""time"":1627.800000011921}]",[],2,,,,,,,,,,,,,,
harvest,79,419556,0.0-28.0-1.0,"""event"",""trial"",""time""
""fullscreenenter"",""1"",""3687""
","
","
","""event"",""trial"",""time""
""fullscreenenter"",""1"",""3687""
","
",,null,run_exp/static/images/task_images/gems/3.jpg,null,,,,,,,1,,,2,,,,,3,0.220784276,0.333333333,,,,,,,
decision,80,422568,0.0-28.0-2.0,"""event"",""trial"",""time""
""fullscreenenter"",""1"",""3687""
","
","
","""event"",""trial"",""time""
""fullscreenenter"",""1"",""3687""
","
",,null,run_exp/static/images/task_images/land.jpg,null,,,,,,,1,,,2,,,,,,,,46127,1,2,FALSE,,,
time_out,81,424575,0.0-29.0-0.0,"""event"",""trial"",""time""
""fullscreenenter"",""1"",""3687""
","
","
","""event"",""trial"",""time""
""fullscreenenter"",""1"",""3687""
","
",,null,run_exp/static/images/task_images/time_out.jpg,null,,,,,,,1,,,,,,,,,,,,,,,,,
decision,82,424880,0.0-29.0-1.0,"""event"",""trial"",""time""
""fullscreenenter"",""1"",""3687""
","
","
","""event"",""trial"",""time""
""fullscreenenter"",""1"",""3687""
","
",,303.7,run_exp/static/images/task_images/land.jpg,76,,,,,,,1,,,2,,,,,,,,48439,1,2,TRUE,,,
travel,83,434585,0.0-30.0-0.0,"""event"",""trial"",""time""
""fullscreenenter"",""1"",""3687""
","
","
","""event"",""trial"",""time""
""fullscreenenter"",""1"",""3687""
","
",,,,,,,,,,,,"[{""stimulus"":""run_exp/static/images/task_images/rocket-01.jpg"",""time"":0.19999998807907104},{""stimulus"":""run_exp/static/images/task_images/rocket-02.jpg"",""time"":1083.5},{""stimulus"":""run_exp/static/images/task_images/rocket-03.jpg"",""time"":2165.5999999940395},{""stimulus"":""run_exp/static/images/task_images/rocket-04.jpg"",""time"":3233.199999988079},{""stimulus"":""run_exp/static/images/task_images/rocket-05.jpg"",""time"":4314.199999988079},{""stimulus"":""run_exp/static/images/task_images/rocket-06.jpg"",""time"":5394.5999999940395},{""stimulus"":""run_exp/static/images/task_images/rocket-07.jpg"",""time"":6464.5999999940395},{""stimulus"":""run_exp/static/images/task_images/rocket-08.jpg"",""time"":7547.300000011921},{""stimulus"":""run_exp/static/images/task_images/rocket-09.jpg"",""time"":8616.800000011921}]",[],2,,,,,,,,,,,,,,
alien_welcome,84,439588,0.0-30.0-1.0,"""event"",""trial"",""time""
""fullscreenenter"",""1"",""3687""
","
","
","""event"",""trial"",""time""
""fullscreenenter"",""1"",""3687""
","
",,null,run_exp/static/images/task_images/aliens/old_aliens/planet/alien_planet-38.jpg,null,,,,,,,,,,,,,38,"23,62,38,51,28,66,43,76,69,61,34,21,4,57,13,17,75,71,58,16,80,74,44,77,10,2",,,,,,,,,,
land,85,440097,0.0-30.0-2.0,"""event"",""trial"",""time""
""fullscreenenter"",""1"",""3687""
","
","
","""event"",""trial"",""time""
""fullscreenenter"",""1"",""3687""
","
",,null,run_exp/static/images/task_images/land.jpg,null,,,,,,,101,,,3,,,,,,,,,,,,,,
dig,86,442100,0.0-30.0-3.0,"""event"",""trial"",""time""
""fullscreenenter"",""1"",""3687""
","
","
","""event"",""trial"",""time""
""fullscreenenter"",""1"",""3687""
","
",,,,,,,,,,,,"[{""stimulus"":""run_exp/static/images/task_images/dig.jpg"",""time"":0.30000001192092896},{""stimulus"":""run_exp/static/images/task_images/land.jpg"",""time"":668.3000000119209},{""stimulus"":""run_exp/static/images/task_images/dig.jpg"",""time"":1338.300000011921}]",[],3,,,,,,,,,,,,,,
harvest,87,443108,0.0-30.0-4.0,"""event"",""trial"",""time""
""fullscreenenter"",""1"",""3687""
","
","
","""event"",""trial"",""time""
""fullscreenenter"",""1"",""3687""
","
",,null,run_exp/static/images/task_images/gems/101.jpg,null,,,,,,,53,,,3,,,,,101,0.525676815,0.524752475,,,,,,,
decision,88,445953,0.0-30.0-5.0,"""event"",""trial"",""time""
""fullscreenenter"",""1"",""3687""
","
","
","""event"",""trial"",""time""
""fullscreenenter"",""1"",""3687""
","
",,2843.9,run_exp/static/images/task_images/land.jpg,65,,,,,,,53,,,3,,,,,,,,69512,1,0,FALSE,,,
dig,89,446116,0.0-31.0-0.0,"""event"",""trial"",""time""
""fullscreenenter"",""1"",""3687""
","
","
","""event"",""trial"",""time""
""fullscreenenter"",""1"",""3687""
","
",,,,,,,,,,,,"[{""stimulus"":""run_exp/static/images/task_images/dig.jpg"",""time"":0.5},{""stimulus"":""run_exp/static/images/task_images/land.jpg"",""time"":57.5},{""stimulus"":""run_exp/static/images/task_images/dig.jpg"",""time"":113.90000000596046}]",[],3,,,,,,,,,,,,,,
harvest,90,447123,0.0-31.0-1.0,"""event"",""trial"",""time""
""fullscreenenter"",""1"",""3687""
","
","
","""event"",""trial"",""time""
""fullscreenenter"",""1"",""3687""
","
",,null,run_exp/static/images/task_images/gems/53.jpg,null,,,,,,,32,,,3,,,,,53,0.607620623,0.603773585,,,,,,,
decision,91,447665,0.0-31.0-2.0,"""event"",""trial"",""time""
""fullscreenenter"",""1"",""3687""
","
","
","""event"",""trial"",""time""
""fullscreenenter"",""1"",""3687""
","
",,541.8,run_exp/static/images/task_images/land.jpg,65,,,,,,,32,,,3,,,,,,,,71224,1,1,FALSE,,,
dig,92,450127,0.0-32.0-0.0,"""event"",""trial"",""time""
""fullscreenenter"",""1"",""3687""
","
","
","""event"",""trial"",""time""
""fullscreenenter"",""1"",""3687""
","
",,,,,,,,,,,,"[{""stimulus"":""run_exp/static/images/task_images/dig.jpg"",""time"":0.20000001788139343},{""stimulus"":""run_exp/static/images/task_images/land.jpg"",""time"":819.8000000119209},{""stimulus"":""run_exp/static/images/task_images/dig.jpg"",""time"":1640.2000000178814}]",[],3,,,,,,,,,,,,,,
harvest,93,451132,0.0-32.0-1.0,"""event"",""trial"",""time""
""fullscreenenter"",""1"",""3687""
","
","
","""event"",""trial"",""time""
""fullscreenenter"",""1"",""3687""
","
",,null,run_exp/static/images/task_images/gems/32.jpg,null,,,,,,,19,,,3,,,,,32,0.585734177,0.59375,,,,,,,
decision,94,451969,0.0-32.0-2.0,"""event"",""trial"",""time""
""fullscreenenter"",""1"",""3687""
","
","
","""event"",""trial"",""time""
""fullscreenenter"",""1"",""3687""
","
",,836,run_exp/static/images/task_images/land.jpg,65,,,,,,,19,,,3,,,,,,,,75528,1,2,FALSE,,,
dig,95,454141,0.0-33.0-0.0,"""event"",""trial"",""time""
""fullscreenenter"",""1"",""3687""
","
","
","""event"",""trial"",""time""
""fullscreenenter"",""1"",""3687""
","
",,,,,,,,,,,,"[{""stimulus"":""run_exp/static/images/task_images/dig.jpg"",""time"":0.09999999403953552},{""stimulus"":""run_exp/static/images/task_images/land.jpg"",""time"":727.3999999761581},{""stimulus"":""run_exp/static/images/task_images/dig.jpg"",""time"":1447.5}]",[],3,,,,,,,,,,,,,,
harvest,96,455149,0.0-33.0-1.0,"""event"",""trial"",""time""
""fullscreenenter"",""1"",""3687""
","
","
","""event"",""trial"",""time""
""fullscreenenter"",""1"",""3687""
","
",,null,run_exp/static/images/task_images/gems/19.jpg,null,,,,,,,7,,,3,,,,,19,0.391017336,0.368421053,,,,,,,
decision,97,458157,0.0-33.0-2.0,"""event"",""trial"",""time""
""fullscreenenter"",""1"",""3687""
","
","
","""event"",""trial"",""time""
""fullscreenenter"",""1"",""3687""
","
",,null,run_exp/static/images/task_images/land.jpg,null,,,,,,,7,,,3,,,,,,,,81716,1,3,FALSE,,,
time_out,98,460165,0.0-34.0-0.0,"""event"",""trial"",""time""
""fullscreenenter"",""1"",""3687""
","
","
","""event"",""trial"",""time""
""fullscreenenter"",""1"",""3687""
","
",,null,run_exp/static/images/task_images/time_out.jpg,null,,,,,,,7,,,,,,,,,,,,,,,,,
decision,99,460333,0.0-34.0-1.0,"""event"",""trial"",""time""
""fullscreenenter"",""1"",""3687""
","
","
","""event"",""trial"",""time""
""fullscreenenter"",""1"",""3687""
","
",,167.1,run_exp/static/images/task_images/land.jpg,76,,,,,,,7,,,3,,,,,,,,83892,1,3,TRUE,,,
travel,100,470168,0.0-35.0-0.0,"""event"",""trial"",""time""
""fullscreenenter"",""1"",""3687""
","
","
","""event"",""trial"",""time""
""fullscreenenter"",""1"",""3687""
","
",,,,,,,,,,,,"[{""stimulus"":""run_exp/static/images/task_images/rocket-01.jpg"",""time"":0.09999999403953552},{""stimulus"":""run_exp/static/images/task_images/rocket-02.jpg"",""time"":1093.699999988079},{""stimulus"":""run_exp/static/images/task_images/rocket-03.jpg"",""time"":2193.7999999821186},{""stimulus"":""run_exp/static/images/task_images/rocket-04.jpg"",""time"":3277.7999999821186},{""stimulus"":""run_exp/static/images/task_images/rocket-05.jpg"",""time"":4373.9000000059605},{""stimulus"":""run_exp/static/images/task_images/rocket-06.jpg"",""time"":5464.199999988079},{""stimulus"":""run_exp/static/images/task_images/rocket-07.jpg"",""time"":6562.299999982119},{""stimulus"":""run_exp/static/images/task_images/rocket-08.jpg"",""time"":7646.5},{""stimulus"":""run_exp/static/images/task_images/rocket-09.jpg"",""time"":8743.90000000596}]",[],3,,,,,,,,,,,,,,
alien_welcome,101,475175,0.0-35.0-1.0,"""event"",""trial"",""time""
""fullscreenenter"",""1"",""3687""
","
","
","""event"",""trial"",""time""
""fullscreenenter"",""1"",""3687""
","
",,null,run_exp/static/images/task_images/aliens/old_aliens/planet/alien_planet-51.jpg,null,,,,,,,,,,,,,51,"23,62,38,51,28,66,43,76,69,61,34,21,4,57,13,17,75,71,58,16,80,74,44,77,10,2",,,,,,,,,,
land,102,475679,0.0-35.0-2.0,"""event"",""trial"",""time""
""fullscreenenter"",""1"",""3687""
","
","
","""event"",""trial"",""time""
""fullscreenenter"",""1"",""3687""
","
",,null,run_exp/static/images/task_images/land.jpg,null,,,,,,,107,,,4,,,,,,,,,,,,,,
dig,103,477688,0.0-35.0-3.0,"""event"",""trial"",""time""
""fullscreenenter"",""1"",""3687""
","
","
","""event"",""trial"",""time""
""fullscreenenter"",""1"",""3687""
","
",,,,,,,,,,,,"[{""stimulus"":""run_exp/static/images/task_images/dig.jpg"",""time"":0.30000001192092896},{""stimulus"":""run_exp/static/images/task_images/land.jpg"",""time"":672.3000000119209},{""stimulus"":""run_exp/static/images/task_images/dig.jpg"",""time"":1338.4000000059605}]",[],4,,,,,,,,,,,,,,
harvest,104,478698,0.0-35.0-4.0,"""event"",""trial"",""time""
""fullscreenenter"",""1"",""3687""
","
","
","""event"",""trial"",""time""
""fullscreenenter"",""1"",""3687""
","
",,null,run_exp/static/images/task_images/gems/107.jpg,null,,,,,,,50,,,4,,,,,107,0.467075139,0.46728972,,,,,,,
decision,105,478829,0.0-35.0-5.0,"""event"",""trial"",""time""
""fullscreenenter"",""1"",""3687""
","
","
","""event"",""trial"",""time""
""fullscreenenter"",""1"",""3687""
","
",,130.7,run_exp/static/images/task_images/land.jpg,65,,,,,,,50,,,4,,,,,,,,102389,1,0,FALSE,,,
dig,106,481707,0.0-36.0-0.0,"""event"",""trial"",""time""
""fullscreenenter"",""1"",""3687""
","
","
","""event"",""trial"",""time""
""fullscreenenter"",""1"",""3687""
","
",,,,,,,,,,,,"[{""stimulus"":""run_exp/static/images/task_images/dig.jpg"",""time"":0.19999998807907104},{""stimulus"":""run_exp/static/images/task_images/land.jpg"",""time"":962},{""stimulus"":""run_exp/static/images/task_images/dig.jpg"",""time"":1924.699999988079}]",[],4,,,,,,,,,,,,,,
harvest,107,482713,0.0-36.0-1.0,"""event"",""trial"",""time""
""fullscreenenter"",""1"",""3687""
","
","
","""event"",""trial"",""time""
""fullscreenenter"",""1"",""3687""
","
",,null,run_exp/static/images/task_images/gems/50.jpg,null,,,,,,,23,,,4,,,,,50,0.460501964,0.46,,,,,,,
decision,108,483175,0.0-36.0-2.0,"""event"",""trial"",""time""
""fullscreenenter"",""1"",""3687""
","
","
","""event"",""trial"",""time""
""fullscreenenter"",""1"",""3687""
","
",,460.8,run_exp/static/images/task_images/land.jpg,65,,,,,,,23,,,4,,,,,,,,106734,1,1,FALSE,,,
dig,109,485722,0.0-37.0-0.0,"""event"",""trial"",""time""
""fullscreenenter"",""1"",""3687""
","
","
","""event"",""trial"",""time""
""fullscreenenter"",""1"",""3687""
","
",,,,,,,,,,,,"[{""stimulus"":""run_exp/static/images/task_images/dig.jpg"",""time"":0.19999998807907104},{""stimulus"":""run_exp/static/images/task_images/land.jpg"",""time"":849.5},{""stimulus"":""run_exp/static/images/task_images/dig.jpg"",""time"":1696.5}]",[],4,,,,,,,,,,,,,,
harvest,110,486735,0.0-37.0-1.0,"""event"",""trial"",""time""
""fullscreenenter"",""1"",""3687""
","
","
","""event"",""trial"",""time""
""fullscreenenter"",""1"",""3687""
","
",,null,run_exp/static/images/task_images/gems/23.jpg,null,,,,,,,12,,,4,,,,,23,0.533296139,0.52173913,,,,,,,
decision,111,487287,0.0-37.0-2.0,"""event"",""trial"",""time""
""fullscreenenter"",""1"",""3687""
","
","
","""event"",""trial"",""time""
""fullscreenenter"",""1"",""3687""
","
",,551.3,run_exp/static/images/task_images/land.jpg,65,,,,,,,12,,,4,,,,,,,,110846,1,2,FALSE,,,
dig,112,489743,0.0-38.0-0.0,"""event"",""trial"",""time""
""fullscreenenter"",""1"",""3687""
","
","
","""event"",""trial"",""time""
""fullscreenenter"",""1"",""3687""
","
",,,,,,,,,,,,"[{""stimulus"":""run_exp/static/images/task_images/dig.jpg"",""time"":0.19999998807907104},{""stimulus"":""run_exp/static/images/task_images/land.jpg"",""time"":818.8999999761581},{""stimulus"":""run_exp/static/images/task_images/dig.jpg"",""time"":1634.5}]",[],4,,,,,,,,,,,,,,
harvest,113,490752,0.0-38.0-1.0,"""event"",""trial"",""time""
""fullscreenenter"",""1"",""3687""
","
","
","""event"",""trial"",""time""
""fullscreenenter"",""1"",""3687""
","
",,null,run_exp/static/images/task_images/gems/12.jpg,null,,,,,,,6,,,4,,,,,12,0.523171225,0.5,,,,,,,
decision,114,491280,0.0-38.0-2.0,"""event"",""trial"",""time""
""fullscreenenter"",""1"",""3687""
","
","
","""event"",""trial"",""time""
""fullscreenenter"",""1"",""3687""
","
",,527.2,run_exp/static/images/task_images/land.jpg,65,,,,,,,6,,,4,,,,,,,,114839,1,3,FALSE,,,
dig,115,493758,0.0-39.0-0.0,"""event"",""trial"",""time""
""fullscreenenter"",""1"",""3687""
","
","
","""event"",""trial"",""time""
""fullscreenenter"",""1"",""3687""
","
",,,,,,,,,,,,"[{""stimulus"":""run_exp/static/images/task_images/dig.jpg"",""time"":0.20000001788139343},{""stimulus"":""run_exp/static/images/task_images/land.jpg"",""time"":830.3000000119209},{""stimulus"":""run_exp/static/images/task_images/dig.jpg"",""time"":1653.6000000238419}]",[],4,,,,,,,,,,,,,,
harvest,116,494764,0.0-39.0-1.0,"""event"",""trial"",""time""
""fullscreenenter"",""1"",""3687""
","
","
","""event"",""trial"",""time""
""fullscreenenter"",""1"",""3687""
","
",,null,run_exp/static/images/task_images/gems/6.jpg,null,,,,,,,3,,,4,,,,,6,0.480908812,0.5,,,,,,,
decision,117,495344,0.0-39.0-2.0,"""event"",""trial"",""time""
""fullscreenenter"",""1"",""3687""
","
","
","""event"",""trial"",""time""
""fullscreenenter"",""1"",""3687""
","
",,579,run_exp/static/images/task_images/land.jpg,65,,,,,,,3,,,4,,,,,,,,118903,1,4,FALSE,,,
dig,118,497773,0.0-40.0-0.0,"""event"",""trial"",""time""
""fullscreenenter"",""1"",""3687""
","
","
","""event"",""trial"",""time""
""fullscreenenter"",""1"",""3687""
","
",,,,,,,,,,,,"[{""stimulus"":""run_exp/static/images/task_images/dig.jpg"",""time"":0.19999998807907104},{""stimulus"":""run_exp/static/images/task_images/land.jpg"",""time"":813.6999999880791},{""stimulus"":""run_exp/static/images/task_images/dig.jpg"",""time"":1618}]",[],4,,,,,,,,,,,,,,
harvest,119,498781,0.0-40.0-1.0,"""event"",""trial"",""time""
""fullscreenenter"",""1"",""3687""
","
","
","""event"",""trial"",""time""
""fullscreenenter"",""1"",""3687""
","
",,null,run_exp/static/images/task_images/gems/3.jpg,null,,,,,,,1,,,4,,,,,3,0.490285474,0.333333333,,,,,,,
decision,120,499969,0.0-40.0-2.0,"""event"",""trial"",""time""
""fullscreenenter"",""1"",""3687""
","
","
","""event"",""trial"",""time""
""fullscreenenter"",""1"",""3687""
","
",,1187.5,run_exp/static/images/task_images/land.jpg,76,,,,,,,1,,,4,,,,,,,,123529,1,5,TRUE,,,
travel,121,508790,0.0-41.0-0.0,"""event"",""trial"",""time""
""fullscreenenter"",""1"",""3687""
","
","
","""event"",""trial"",""time""
""fullscreenenter"",""1"",""3687""
","
",,,,,,,,,,,,"[{""stimulus"":""run_exp/static/images/task_images/rocket-01.jpg"",""time"":0.10000002384185791},{""stimulus"":""run_exp/static/images/task_images/rocket-02.jpg"",""time"":989.7000000178814},{""stimulus"":""run_exp/static/images/task_images/rocket-03.jpg"",""time"":1965},{""stimulus"":""run_exp/static/images/task_images/rocket-04.jpg"",""time"":2941.800000011921},{""stimulus"":""run_exp/static/images/task_images/rocket-05.jpg"",""time"":3921.800000011921},{""stimulus"":""run_exp/static/images/task_images/rocket-06.jpg"",""time"":4897.300000011921},{""stimulus"":""run_exp/static/images/task_images/rocket-07.jpg"",""time"":5883.5},{""stimulus"":""run_exp/static/images/task_images/rocket-08.jpg"",""time"":6857.200000017881},{""stimulus"":""run_exp/static/images/task_images/rocket-09.jpg"",""time"":7845.800000011921}]",[],4,,,,,,,,,,,,,,
alien_welcome,122,513801,0.0-41.0-1.0,"""event"",""trial"",""time""
""fullscreenenter"",""1"",""3687""
","
","
","""event"",""trial"",""time""
""fullscreenenter"",""1"",""3687""
","
",,null,run_exp/static/images/task_images/aliens/old_aliens/planet/alien_planet-28.jpg,null,,,,,,,,,,,,,28,"23,62,38,51,28,66,43,76,69,61,34,21,4,57,13,17,75,71,58,16,80,74,44,77,10,2",,,,,,,,,,
land,123,514315,0.0-41.0-2.0,"""event"",""trial"",""time""
""fullscreenenter"",""1"",""3687""
","
","
","""event"",""trial"",""time""
""fullscreenenter"",""1"",""3687""
","
",,null,run_exp/static/images/task_images/land.jpg,null,,,,,,,96,,,5,,,,,,,,,,,,,,
dig,124,516320,0.0-41.0-3.0,"""event"",""trial"",""time""
""fullscreenenter"",""1"",""3687""
","
","
","""event"",""trial"",""time""
""fullscreenenter"",""1"",""3687""
","
",,,,,,,,,,,,"[{""stimulus"":""run_exp/static/images/task_images/dig.jpg"",""time"":0.29999998211860657},{""stimulus"":""run_exp/static/images/task_images/land.jpg"",""time"":674.0999999940395},{""stimulus"":""run_exp/static/images/task_images/dig.jpg"",""time"":1339.0999999940395}]",[],5,,,,,,,,,,,,,,
harvest,125,517326,0.0-41.0-4.0,"""event"",""trial"",""time""
""fullscreenenter"",""1"",""3687""
","
","
","""event"",""trial"",""time""
""fullscreenenter"",""1"",""3687""
","
",,null,run_exp/static/images/task_images/gems/96.jpg,null,,,,,,,51,,,5,,,,,96,0.529215534,0.53125,,,,,,,
decision,126,517657,0.0-41.0-5.0,"""event"",""trial"",""time""
""fullscreenenter"",""1"",""3687""
","
","
","""event"",""trial"",""time""
""fullscreenenter"",""1"",""3687""
","
",,329.2,run_exp/static/images/task_images/land.jpg,65,,,,,,,51,,,5,,,,,,,,141216,1,0,FALSE,,,
dig,127,520335,0.0-42.0-0.0,"""event"",""trial"",""time""
""fullscreenenter"",""1"",""3687""
","
","
","""event"",""trial"",""time""
""fullscreenenter"",""1"",""3687""
","
",,,,,,,,,,,,"[{""stimulus"":""run_exp/static/images/task_images/dig.jpg"",""time"":0.19999998807907104},{""stimulus"":""run_exp/static/images/task_images/land.jpg"",""time"":899.1999999880791},{""stimulus"":""run_exp/static/images/task_images/dig.jpg"",""time"":1788.3999999761581}]",[],5,,,,,,,,,,,,,,
harvest,128,521343,0.0-42.0-1.0,"""event"",""trial"",""time""
""fullscreenenter"",""1"",""3687""
","
","
","""event"",""trial"",""time""
""fullscreenenter"",""1"",""3687""
","
",,null,run_exp/static/images/task_images/gems/51.jpg,null,,,,,,,22,,,5,,,,,51,0.422691792,0.431372549,,,,,,,
decision,129,521864,0.0-42.0-2.0,"""event"",""trial"",""time""
""fullscreenenter"",""1"",""3687""
","
","
","""event"",""trial"",""time""
""fullscreenenter"",""1"",""3687""
","
",,520.2,run_exp/static/images/task_images/land.jpg,65,,,,,,,22,,,5,,,,,,,,145423,1,1,FALSE,,,
dig,130,524354,0.0-43.0-0.0,"""event"",""trial"",""time""
""fullscreenenter"",""1"",""3687""
","
","
","""event"",""trial"",""time""
""fullscreenenter"",""1"",""3687""
","
",,,,,,,,,,,,"[{""stimulus"":""run_exp/static/images/task_images/dig.jpg"",""time"":0.10000002384185791},{""stimulus"":""run_exp/static/images/task_images/land.jpg"",""time"":827.8000000119209},{""stimulus"":""run_exp/static/images/task_images/dig.jpg"",""time"":1659.800000011921}]",[],5,,,,,,,,,,,,,,
harvest,131,525358,0.0-43.0-1.0,"""event"",""trial"",""time""
""fullscreenenter"",""1"",""3687""
","
","
","""event"",""trial"",""time""
""fullscreenenter"",""1"",""3687""
","
",,null,run_exp/static/images/task_images/gems/22.jpg,null,,,,,,,12,,,5,,,,,22,0.563464566,0.545454545,,,,,,,
decision,132,525777,0.0-43.0-2.0,"""event"",""trial"",""time""
""fullscreenenter"",""1"",""3687""
","
","
","""event"",""trial"",""time""
""fullscreenenter"",""1"",""3687""
","
",,417.1,run_exp/static/images/task_images/land.jpg,65,,,,,,,12,,,5,,,,,,,,149336,1,2,FALSE,,,
dig,133,528361,0.0-44.0-0.0,"""event"",""trial"",""time""
""fullscreenenter"",""1"",""3687""
","
","
","""event"",""trial"",""time""
""fullscreenenter"",""1"",""3687""
","
",,,,,,,,,,,,"[{""stimulus"":""run_exp/static/images/task_images/dig.jpg"",""time"":0.19999998807907104},{""stimulus"":""run_exp/static/images/task_images/land.jpg"",""time"":869.5},{""stimulus"":""run_exp/static/images/task_images/dig.jpg"",""time"":1725}]",[],5,,,,,,,,,,,,,,
harvest,134,529368,0.0-44.0-1.0,"""event"",""trial"",""time""
""fullscreenenter"",""1"",""3687""
","
","
","""event"",""trial"",""time""
""fullscreenenter"",""1"",""3687""
","
",,null,run_exp/static/images/task_images/gems/12.jpg,null,,,,,,,5,,,5,,,,,12,0.454827223,0.416666667,,,,,,,
decision,135,529842,0.0-44.0-2.0,"""event"",""trial"",""time""
""fullscreenenter"",""1"",""3687""
","
","
","""event"",""trial"",""time""
""fullscreenenter"",""1"",""3687""
","
",,473.3,run_exp/static/images/task_images/land.jpg,65,,,,,,,5,,,5,,,,,,,,153401,1,3,FALSE,,,
dig,136,532376,0.0-45.0-0.0,"""event"",""trial"",""time""
""fullscreenenter"",""1"",""3687""
","
","
","""event"",""trial"",""time""
""fullscreenenter"",""1"",""3687""
","
",,,,,,,,,,,,"[{""stimulus"":""run_exp/static/images/task_images/dig.jpg"",""time"":0.19999998807907104},{""stimulus"":""run_exp/static/images/task_images/land.jpg"",""time"":845.4000000059605},{""stimulus"":""run_exp/static/images/task_images/dig.jpg"",""time"":1695.199999988079}]",[],5,,,,,,,,,,,,,,
harvest,137,533384,0.0-45.0-1.0,"""event"",""trial"",""time""
""fullscreenenter"",""1"",""3687""
","
","
","""event"",""trial"",""time""
""fullscreenenter"",""1"",""3687""
","
",,null,run_exp/static/images/task_images/gems/5.jpg,null,,,,,,,3,,,5,,,,,5,0.515178033,0.6,,,,,,,
decision,138,534305,0.0-45.0-2.0,"""event"",""trial"",""time""
""fullscreenenter"",""1"",""3687""
","
","
","""event"",""trial"",""time""
""fullscreenenter"",""1"",""3687""
","
",,920.4,run_exp/static/images/task_images/land.jpg,65,,,,,,,3,,,5,,,,,,,,157864,1,4,FALSE,,,
dig,139,536392,0.0-46.0-0.0,"""event"",""trial"",""time""
""fullscreenenter"",""1"",""3687""
","
","
","""event"",""trial"",""time""
""fullscreenenter"",""1"",""3687""
","
",,,,,,,,,,,,"[{""stimulus"":""run_exp/static/images/task_images/dig.jpg"",""time"":0.20000001788139343},{""stimulus"":""run_exp/static/images/task_images/land.jpg"",""time"":702.3000000119209},{""stimulus"":""run_exp/static/images/task_images/dig.jpg"",""time"":1391.6000000238419}]",[],5,,,,,,,,,,,,,,
harvest,140,537402,0.0-46.0-1.0,"""event"",""trial"",""time""
""fullscreenenter"",""1"",""3687""
","
","
","""event"",""trial"",""time""
""fullscreenenter"",""1"",""3687""
","
",,null,run_exp/static/images/task_images/gems/3.jpg,null,,,,,,,1,,,5,,,,,3,0.426217684,0.333333333,,,,,,,
decision,141,538297,0.0-46.0-2.0,"""event"",""trial"",""time""
""fullscreenenter"",""1"",""3687""
","
","
","""event"",""trial"",""time""
""fullscreenenter"",""1"",""3687""
","
",,894.1,run_exp/static/images/task_images/land.jpg,65,,,,,,,1,,,5,,,,,,,,161856,1,5,FALSE,,,
dig,142,540410,0.0-47.0-0.0,"""event"",""trial"",""time""
""fullscreenenter"",""1"",""3687""
","
","
","""event"",""trial"",""time""
""fullscreenenter"",""1"",""3687""
","
",,,,,,,,,,,,"[{""stimulus"":""run_exp/static/images/task_images/dig.jpg"",""time"":0.29999998211860657},{""stimulus"":""run_exp/static/images/task_images/land.jpg"",""time"":709.5999999940395},{""stimulus"":""run_exp/static/images/task_images/dig.jpg"",""time"":1403.7999999821186}]",[],5,,,,,,,,,,,,,,
harvest,143,541416,0.0-47.0-1.0,"""event"",""trial"",""time""
""fullscreenenter"",""1"",""3687""
","
","
","""event"",""trial"",""time""
""fullscreenenter"",""1"",""3687""
","
",,null,run_exp/static/images/task_images/gems/1.jpg,null,,,,,,,1,,,5,,,,,1,0.538438968,1,,,,,,,
decision,144,541937,0.0-47.0-2.0,"""event"",""trial"",""time""
""fullscreenenter"",""1"",""3687""
","
","
","""event"",""trial"",""time""
""fullscreenenter"",""1"",""3687""
","
",,519.9,run_exp/static/images/task_images/land.jpg,76,,,,,,,1,,,5,,,,,,,,165496,1,6,TRUE,,,
travel,145,551427,0.0-48.0-0.0,"""event"",""trial"",""time""
""fullscreenenter"",""1"",""3687""
","
","
","""event"",""trial"",""time""
""fullscreenenter"",""1"",""3687""
","
",,,,,,,,,,,,"[{""stimulus"":""run_exp/static/images/task_images/rocket-01.jpg"",""time"":0.19999998807907104},{""stimulus"":""run_exp/static/images/task_images/rocket-02.jpg"",""time"":1061.5},{""stimulus"":""run_exp/static/images/task_images/rocket-03.jpg"",""time"":2111.2999999821186},{""stimulus"":""run_exp/static/images/task_images/rocket-04.jpg"",""time"":3165.699999988079},{""stimulus"":""run_exp/static/images/task_images/rocket-05.jpg"",""time"":4221.0999999940395},{""stimulus"":""run_exp/static/images/task_images/rocket-06.jpg"",""time"":5269},{""stimulus"":""run_exp/static/images/task_images/rocket-07.jpg"",""time"":6329},{""stimulus"":""run_exp/static/images/task_images/rocket-08.jpg"",""time"":7375.4000000059605},{""stimulus"":""run_exp/static/images/task_images/rocket-09.jpg"",""time"":8428.799999982119}]",[],5,,,,,,,,,,,,,,
alien_welcome,146,556432,0.0-48.0-1.0,"""event"",""trial"",""time""
""fullscreenenter"",""1"",""3687""
","
","
","""event"",""trial"",""time""
""fullscreenenter"",""1"",""3687""
","
",,null,run_exp/static/images/task_images/aliens/old_aliens/planet/alien_planet-66.jpg,null,,,,,,,,,,,,,66,"23,62,38,51,28,66,43,76,69,61,34,21,4,57,13,17,75,71,58,16,80,74,44,77,10,2",,,,,,,,,,
land,147,556938,0.0-48.0-2.0,"""event"",""trial"",""time""
""fullscreenenter"",""1"",""3687""
","
","
","""event"",""trial"",""time""
""fullscreenenter"",""1"",""3687""
","
",,null,run_exp/static/images/task_images/land.jpg,null,,,,,,,94,,,6,,,,,,,,,,,,,,
dig,148,558947,0.0-48.0-3.0,"""event"",""trial"",""time""
""fullscreenenter"",""1"",""3687""
","
","
","""event"",""trial"",""time""
""fullscreenenter"",""1"",""3687""
","
",,,,,,,,,,,,"[{""stimulus"":""run_exp/static/images/task_images/dig.jpg"",""time"":0.19999998807907104},{""stimulus"":""run_exp/static/images/task_images/land.jpg"",""time"":669.2999999821186},{""stimulus"":""run_exp/static/images/task_images/dig.jpg"",""time"":1337.699999988079}]",[],6,,,,,,,,,,,,,,
harvest,149,559952,0.0-48.0-4.0,"""event"",""trial"",""time""
""fullscreenenter"",""1"",""3687""
","
","
","""event"",""trial"",""time""
""fullscreenenter"",""1"",""3687""
","
",,null,run_exp/static/images/task_images/gems/94.jpg,null,,,,,,,78,,,6,,,,,94,0.83469791,0.829787234,,,,,,,
decision,150,560249,0.0-48.0-5.0,"""event"",""trial"",""time""
""fullscreenenter"",""1"",""3687""
","
","
","""event"",""trial"",""time""
""fullscreenenter"",""1"",""3687""
","
",,295.8,run_exp/static/images/task_images/land.jpg,65,,,,,,,78,,,6,,,,,,,,183808,1,0,FALSE,,,
dig,151,562960,0.0-49.0-0.0,"""event"",""trial"",""time""
""fullscreenenter"",""1"",""3687""
","
","
","""event"",""trial"",""time""
""fullscreenenter"",""1"",""3687""
","
",,,,,,,,,,,,"[{""stimulus"":""run_exp/static/images/task_images/dig.jpg"",""time"":0.10000002384185791},{""stimulus"":""run_exp/static/images/task_images/land.jpg"",""time"":909},{""stimulus"":""run_exp/static/images/task_images/dig.jpg"",""time"":1805}]",[],6,,,,,,,,,,,,,,
harvest,152,563969,0.0-49.0-1.0,"""event"",""trial"",""time""
""fullscreenenter"",""1"",""3687""
","
","
","""event"",""trial"",""time""
""fullscreenenter"",""1"",""3687""
","
",,null,run_exp/static/images/task_images/gems/78.jpg,null,,,,,,,66,,,6,,,,,78,0.846706531,0.846153846,,,,,,,
decision,153,564217,0.0-49.0-2.0,"""event"",""trial"",""time""
""fullscreenenter"",""1"",""3687""
","
","
","""event"",""trial"",""time""
""fullscreenenter"",""1"",""3687""
","
",,246.6,run_exp/static/images/task_images/land.jpg,65,,,,,,,66,,,6,,,,,,,,187776,1,1,FALSE,,,
dig,154,566980,0.0-50.0-0.0,"""event"",""trial"",""time""
""fullscreenenter"",""1"",""3687""
","
","
","""event"",""trial"",""time""
""fullscreenenter"",""1"",""3687""
","
",,,,,,,,,,,,"[{""stimulus"":""run_exp/static/images/task_images/dig.jpg"",""time"":0.20000001788139343},{""stimulus"":""run_exp/static/images/task_images/land.jpg"",""time"":923.5999999940395},{""stimulus"":""run_exp/static/images/task_images/dig.jpg"",""time"":1838.300000011921}]",[],6,,,,,,,,,,,,,,
harvest,155,567986,0.0-50.0-1.0,"""event"",""trial"",""time""
""fullscreenenter"",""1"",""3687""
","
","
","""event"",""trial"",""time""
""fullscreenenter"",""1"",""3687""
","
",,null,run_exp/static/images/task_images/gems/66.jpg,null,,,,,,,50,,,6,,,,,66,0.76225872,0.757575758,,,,,,,
decision,156,568610,0.0-50.0-2.0,"""event"",""trial"",""time""
""fullscreenenter"",""1"",""3687""
","
","
","""event"",""trial"",""time""
""fullscreenenter"",""1"",""3687""
","
",,622.2,run_exp/static/images/task_images/land.jpg,65,,,,,,,50,,,6,,,,,,,,192169,1,2,FALSE,,,
dig,157,570993,0.0-51.0-0.0,"""event"",""trial"",""time""
""fullscreenenter"",""1"",""3687""
","
","
","""event"",""trial"",""time""
""fullscreenenter"",""1"",""3687""
","
",,,,,,,,,,,,"[{""stimulus"":""run_exp/static/images/task_images/dig.jpg"",""time"":0.19999998807907104},{""stimulus"":""run_exp/static/images/task_images/land.jpg"",""time"":796.2999999821186},{""stimulus"":""run_exp/static/images/task_images/dig.jpg"",""time"":1588.5}]",[],6,,,,,,,,,,,,,,
harvest,158,572000,0.0-51.0-1.0,"""event"",""trial"",""time""
""fullscreenenter"",""1"",""3687""
","
","
","""event"",""trial"",""time""
""fullscreenenter"",""1"",""3687""
","
",,null,run_exp/static/images/task_images/gems/50.jpg,null,,,,,,,38,,,6,,,,,50,0.768548115,0.76,,,,,,,
decision,159,572146,0.0-51.0-2.0,"""event"",""trial"",""time""
""fullscreenenter"",""1"",""3687""
","
","
","""event"",""trial"",""time""
""fullscreenenter"",""1"",""3687""
","
",,144.8,run_exp/static/images/task_images/land.jpg,65,,,,,,,38,,,6,,,,,,,,195705,1,3,FALSE,,,
dig,160,575009,0.0-52.0-0.0,"""event"",""trial"",""time""
""fullscreenenter"",""1"",""3687""
","
","
","""event"",""trial"",""time""
""fullscreenenter"",""1"",""3687""
","
",,,,,,,,,,,,"[{""stimulus"":""run_exp/static/images/task_images/dig.jpg"",""time"":0.19999998807907104},{""stimulus"":""run_exp/static/images/task_images/land.jpg"",""time"":960.3999999761581},{""stimulus"":""run_exp/static/images/task_images/dig.jpg"",""time"":1909.199999988079}]",[],6,,,,,,,,,,,,,,
harvest,161,576018,0.0-52.0-1.0,"""event"",""trial"",""time""
""fullscreenenter"",""1"",""3687""
","
","
","""event"",""trial"",""time""
""fullscreenenter"",""1"",""3687""
","
",,null,run_exp/static/images/task_images/gems/38.jpg,null,,,,,,,29,,,6,,,,,38,0.768023456,0.763157895,,,,,,,
decision,162,576315,0.0-52.0-2.0,"""event"",""trial"",""time""
""fullscreenenter"",""1"",""3687""
","
","
","""event"",""trial"",""time""
""fullscreenenter"",""1"",""3687""
","
",,295.1,run_exp/static/images/task_images/land.jpg,65,,,,,,,29,,,6,,,,,,,,199874,1,4,FALSE,,,
dig,163,579024,0.0-53.0-0.0,"""event"",""trial"",""time""
""fullscreenenter"",""1"",""3687""
","
","
","""event"",""trial"",""time""
""fullscreenenter"",""1"",""3687""
","
",,,,,,,,,,,,"[{""stimulus"":""run_exp/static/images/task_images/dig.jpg"",""time"":0.10000002384185791},{""stimulus"":""run_exp/static/images/task_images/land.jpg"",""time"":909.7000000178814},{""stimulus"":""run_exp/static/images/task_images/dig.jpg"",""time"":1803.800000011921}]",[],6,,,,,,,,,,,,,,
harvest,164,580033,0.0-53.0-1.0,"""event"",""trial"",""time""
""fullscreenenter"",""1"",""3687""
","
","
","""event"",""trial"",""time""
""fullscreenenter"",""1"",""3687""
","
",,null,run_exp/static/images/task_images/gems/29.jpg,null,,,,,,,24,,,6,,,,,29,0.833370074,0.827586207,,,,,,,
decision,165,580210,0.0-53.0-2.0,"""event"",""trial"",""time""
""fullscreenenter"",""1"",""3687""
","
","
","""event"",""trial"",""time""
""fullscreenenter"",""1"",""3687""
","
",,175.6,run_exp/static/images/task_images/land.jpg,65,,,,,,,24,,,6,,,,,,,,203769,1,5,FALSE,,,
dig,166,583045,0.0-54.0-0.0,"""event"",""trial"",""time""
""fullscreenenter"",""1"",""3687""
","
","
","""event"",""trial"",""time""
""fullscreenenter"",""1"",""3687""
","
",,,,,,,,,,,,"[{""stimulus"":""run_exp/static/images/task_images/dig.jpg"",""time"":0.09999999403953552},{""stimulus"":""run_exp/static/images/task_images/land.jpg"",""time"":947.5999999940395},{""stimulus"":""run_exp/static/images/task_images/dig.jpg"",""time"":1884.5999999940395}]",[],6,,,,,,,,,,,,,,
harvest,167,584052,0.0-54.0-1.0,"""event"",""trial"",""time""
""fullscreenenter"",""1"",""3687""
","
","
","""event"",""trial"",""time""
""fullscreenenter"",""1"",""3687""
","
",,null,run_exp/static/images/task_images/gems/24.jpg,null,,,,,,,19,,,6,,,,,24,0.771912416,0.791666667,,,,,,,
decision,168,584243,0.0-54.0-2.0,"""event"",""trial"",""time""
""fullscreenenter"",""1"",""3687""
","
","
","""event"",""trial"",""time""
""fullscreenenter"",""1"",""3687""
","
",,190,run_exp/static/images/task_images/land.jpg,65,,,,,,,19,,,6,,,,,,,,207802,1,6,FALSE,,,
dig,169,587057,0.0-55.0-0.0,"""event"",""trial"",""time""
""fullscreenenter"",""1"",""3687""
","
","
","""event"",""trial"",""time""
""fullscreenenter"",""1"",""3687""
","
",,,,,,,,,,,,"[{""stimulus"":""run_exp/static/images/task_images/dig.jpg"",""time"":0.19999998807907104},{""stimulus"":""run_exp/static/images/task_images/land.jpg"",""time"":943.3000000119209},{""stimulus"":""run_exp/static/images/task_images/dig.jpg"",""time"":1877.199999988079}]",[],6,,,,,,,,,,,,,,
harvest,170,588065,0.0-55.0-1.0,"""event"",""trial"",""time""
""fullscreenenter"",""1"",""3687""
","
","
","""event"",""trial"",""time""
""fullscreenenter"",""1"",""3687""
","
",,null,run_exp/static/images/task_images/gems/19.jpg,null,,,,,,,16,,,6,,,,,19,0.850630561,0.842105263,,,,,,,
decision,171,588415,0.0-55.0-2.0,"""event"",""trial"",""time""
""fullscreenenter"",""1"",""3687""
","
","
","""event"",""trial"",""time""
""fullscreenenter"",""1"",""3687""
","
",,348.2,run_exp/static/images/task_images/land.jpg,65,,,,,,,16,,,6,,,,,,,,211974,1,7,FALSE,,,
dig,172,591073,0.0-56.0-0.0,"""event"",""trial"",""time""
""fullscreenenter"",""1"",""3687""
","
","
","""event"",""trial"",""time""
""fullscreenenter"",""1"",""3687""
","
",,,,,,,,,,,,"[{""stimulus"":""run_exp/static/images/task_images/dig.jpg"",""time"":0.09999999403953552},{""stimulus"":""run_exp/static/images/task_images/land.jpg"",""time"":892.7999999821186},{""stimulus"":""run_exp/static/images/task_images/dig.jpg"",""time"":1768.5999999940395}]",[],6,,,,,,,,,,,,,,
harvest,173,592082,0.0-56.0-1.0,"""event"",""trial"",""time""
""fullscreenenter"",""1"",""3687""
","
","
","""event"",""trial"",""time""
""fullscreenenter"",""1"",""3687""
","
",,null,run_exp/static/images/task_images/gems/16.jpg,null,,,,,,,14,,,6,,,,,16,0.896743367,0.875,,,,,,,
decision,174,592419,0.0-56.0-2.0,"""event"",""trial"",""time""
""fullscreenenter"",""1"",""3687""
","
","
","""event"",""trial"",""time""
""fullscreenenter"",""1"",""3687""
","
",,336,run_exp/static/images/task_images/land.jpg,65,,,,,,,14,,,6,,,,,,,,215978,1,8,FALSE,,,
dig,175,595089,0.0-57.0-0.0,"""event"",""trial"",""time""
""fullscreenenter"",""1"",""3687""
","
","
","""event"",""trial"",""time""
""fullscreenenter"",""1"",""3687""
","
",,,,,,,,,,,,"[{""stimulus"":""run_exp/static/images/task_images/dig.jpg"",""time"":0.09999999403953552},{""stimulus"":""run_exp/static/images/task_images/land.jpg"",""time"":892.6999999880791},{""stimulus"":""run_exp/static/images/task_images/dig.jpg"",""time"":1781.4000000059605}]",[],6,,,,,,,,,,,,,,
harvest,176,596098,0.0-57.0-1.0,"""event"",""trial"",""time""
""fullscreenenter"",""1"",""3687""
","
","
","""event"",""trial"",""time""
""fullscreenenter"",""1"",""3687""
","
",,null,run_exp/static/images/task_images/gems/14.jpg,null,,,,,,,11,,,6,,,,,14,0.799661505,0.785714286,,,,,,,
decision,177,596379,0.0-57.0-2.0,"""event"",""trial"",""time""
""fullscreenenter"",""1"",""3687""
","
","
","""event"",""trial"",""time""
""fullscreenenter"",""1"",""3687""
","
",,279.6,run_exp/static/images/task_images/land.jpg,65,,,,,,,11,,,6,,,,,,,,219938,1,9,FALSE,,,
dig,178,599110,0.0-58.0-0.0,"""event"",""trial"",""time""
""fullscreenenter"",""1"",""3687""
","
","
","""event"",""trial"",""time""
""fullscreenenter"",""1"",""3687""
","
",,,,,,,,,,,,"[{""stimulus"":""run_exp/static/images/task_images/dig.jpg"",""time"":0.09999999403953552},{""stimulus"":""run_exp/static/images/task_images/land.jpg"",""time"":909.3999999761581},{""stimulus"":""run_exp/static/images/task_images/dig.jpg"",""time"":1820.5}]",[],6,,,,,,,,,,,,,,
harvest,179,600114,0.0-58.0-1.0,"""event"",""trial"",""time""
""fullscreenenter"",""1"",""3687""
","
","
","""event"",""trial"",""time""
""fullscreenenter"",""1"",""3687""
","
",,null,run_exp/static/images/task_images/gems/11.jpg,null,,,,,,,10,,,6,,,,,11,0.877052357,0.909090909,,,,,,,
decision,180,600379,0.0-58.0-2.0,"""event"",""trial"",""time""
""fullscreenenter"",""1"",""3687""
","
","
","""event"",""trial"",""time""
""fullscreenenter"",""1"",""3687""
","
",,264.1,run_exp/static/images/task_images/land.jpg,65,,,,,,,10,,,6,,,,,,,,223938,1,10,FALSE,,,
dig,181,603123,0.0-59.0-0.0,"""event"",""trial"",""time""
""fullscreenenter"",""1"",""3687""
","
","
","""event"",""trial"",""time""
""fullscreenenter"",""1"",""3687""
","
",,,,,,,,,,,,"[{""stimulus"":""run_exp/static/images/task_images/dig.jpg"",""time"":0.19999998807907104},{""stimulus"":""run_exp/static/images/task_images/land.jpg"",""time"":917.7999999821186},{""stimulus"":""run_exp/static/images/task_images/dig.jpg"",""time"":1831.7999999821186}]",[],6,,,,,,,,,,,,,,
harvest,182,604130,0.0-59.0-1.0,"""event"",""trial"",""time""
""fullscreenenter"",""1"",""3687""
","
","
","""event"",""trial"",""time""
""fullscreenenter"",""1"",""3687""
","
",,null,run_exp/static/images/task_images/gems/10.jpg,null,,,,,,,9,,,6,,,,,10,0.856073876,0.9,,,,,,,
decision,183,604579,0.0-59.0-2.0,"""event"",""trial"",""time""
""fullscreenenter"",""1"",""3687""
","
","
","""event"",""trial"",""time""
""fullscreenenter"",""1"",""3687""
","
",,448.1,run_exp/static/images/task_images/land.jpg,65,,,,,,,9,,,6,,,,,,,,228138,1,11,FALSE,,,
dig,184,607138,0.0-60.0-0.0,"""event"",""trial"",""time""
""fullscreenenter"",""1"",""3687""
","
","
","""event"",""trial"",""time""
""fullscreenenter"",""1"",""3687""
","
",,,,,,,,,,,,"[{""stimulus"":""run_exp/static/images/task_images/dig.jpg"",""time"":0.19999998807907104},{""stimulus"":""run_exp/static/images/task_images/land.jpg"",""time"":852.5999999940395},{""stimulus"":""run_exp/static/images/task_images/dig.jpg"",""time"":1710.2999999821186}]",[],6,,,,,,,,,,,,,,
harvest,185,608145,0.0-60.0-1.0,"""event"",""trial"",""time""
""fullscreenenter"",""1"",""3687""
","
","
","""event"",""trial"",""time""
""fullscreenenter"",""1"",""3687""
","
",,null,run_exp/static/images/task_images/gems/9.jpg,null,,,,,,,7,,,6,,,,,9,0.827794537,0.777777778,,,,,,,
decision,186,608539,0.0-60.0-2.0,"""event"",""trial"",""time""
""fullscreenenter"",""1"",""3687""
","
","
","""event"",""trial"",""time""
""fullscreenenter"",""1"",""3687""
","
",,392.7,run_exp/static/images/task_images/land.jpg,76,,,,,,,7,,,6,,,,,,,,232098,1,12,TRUE,,,
travel,187,618146,0.0-61.0-0.0,"""event"",""trial"",""time""
""fullscreenenter"",""1"",""3687""
","
","
","""event"",""trial"",""time""
""fullscreenenter"",""1"",""3687""
","
",,,,,,,,,,,,"[{""stimulus"":""run_exp/static/images/task_images/rocket-01.jpg"",""time"":0.19999998807907104},{""stimulus"":""run_exp/static/images/task_images/rocket-02.jpg"",""time"":1070},{""stimulus"":""run_exp/static/images/task_images/rocket-03.jpg"",""time"":2145.300000011921},{""stimulus"":""run_exp/static/images/task_images/rocket-04.jpg"",""time"":3204.9000000059605},{""stimulus"":""run_exp/static/images/task_images/rocket-05.jpg"",""time"":4277},{""stimulus"":""run_exp/static/images/task_images/rocket-06.jpg"",""time"":5343.0999999940395},{""stimulus"":""run_exp/static/images/task_images/rocket-07.jpg"",""time"":6405.199999988079},{""stimulus"":""run_exp/static/images/task_images/rocket-08.jpg"",""time"":7479.199999988079},{""stimulus"":""run_exp/static/images/task_images/rocket-09.jpg"",""time"":8541}]",[],6,,,,,,,,,,,,,,
alien_welcome,188,623157,0.0-61.0-1.0,"""event"",""trial"",""time""
""fullscreenenter"",""1"",""3687""
","
","
","""event"",""trial"",""time""
""fullscreenenter"",""1"",""3687""
","
",,null,run_exp/static/images/task_images/aliens/old_aliens/planet/alien_planet-43.jpg,null,,,,,,,,,,,,,43,"23,62,38,51,28,66,43,76,69,61,34,21,4,57,13,17,75,71,58,16,80,74,44,77,10,2",,,,,,,,,,
land,189,623667,0.0-61.0-2.0,"""event"",""trial"",""time""
""fullscreenenter"",""1"",""3687""
","
","
","""event"",""trial"",""time""
""fullscreenenter"",""1"",""3687""
","
",,null,run_exp/static/images/task_images/land.jpg,null,,,,,,,99,,,7,,,,,,,,,,,,,,
dig,190,625675,0.0-61.0-3.0,"""event"",""trial"",""time""
""fullscreenenter"",""1"",""3687""
","
","
","""event"",""trial"",""time""
""fullscreenenter"",""1"",""3687""
","
",,,,,,,,,,,,"[{""stimulus"":""run_exp/static/images/task_images/dig.jpg"",""time"":0.20000001788139343},{""stimulus"":""run_exp/static/images/task_images/land.jpg"",""time"":670.8000000119209},{""stimulus"":""run_exp/static/images/task_images/dig.jpg"",""time"":1344}]",[],7,,,,,,,,,,,,,,
harvest,191,626686,0.0-61.0-4.0,"""event"",""trial"",""time""
""fullscreenenter"",""1"",""3687""
","
","
","""event"",""trial"",""time""
""fullscreenenter"",""1"",""3687""
","
",,null,run_exp/static/images/task_images/gems/99.jpg,null,,,,,,,81,,,7,,,,,99,0.81517371,0.818181818,,,,,,,
decision,192,627186,0.0-61.0-5.0,"""event"",""trial"",""time""
""fullscreenenter"",""1"",""3687""
","
","
","""event"",""trial"",""time""
""fullscreenenter"",""1"",""3687""
","
",,498.4,run_exp/static/images/task_images/land.jpg,65,,,,,,,81,,,7,,,,,,,,250745,1,0,FALSE,,,
dig,193,629692,0.0-62.0-0.0,"""event"",""trial"",""time""
""fullscreenenter"",""1"",""3687""
","
","
","""event"",""trial"",""time""
""fullscreenenter"",""1"",""3687""
","
",,,,,,,,,,,,"[{""stimulus"":""run_exp/static/images/task_images/dig.jpg"",""time"":0.19999998807907104},{""stimulus"":""run_exp/static/images/task_images/land.jpg"",""time"":837.5999999940395},{""stimulus"":""run_exp/static/images/task_images/dig.jpg"",""time"":1673.199999988079}]",[],7,,,,,,,,,,,,,,
harvest,194,630699,0.0-62.0-1.0,"""event"",""trial"",""time""
""fullscreenenter"",""1"",""3687""
","
","
","""event"",""trial"",""time""
""fullscreenenter"",""1"",""3687""
","
",,null,run_exp/static/images/task_images/gems/81.jpg,null,,,,,,,67,,,7,,,,,81,0.828200553,0.827160494,,,,,,,
decision,195,631116,0.0-62.0-2.0,"""event"",""trial"",""time""
""fullscreenenter"",""1"",""3687""
","
","
","""event"",""trial"",""time""
""fullscreenenter"",""1"",""3687""
","
",,415.8,run_exp/static/images/task_images/land.jpg,65,,,,,,,67,,,7,,,,,,,,254675,1,1,FALSE,,,
dig,196,633707,0.0-63.0-0.0,"""event"",""trial"",""time""
""fullscreenenter"",""1"",""3687""
","
","
","""event"",""trial"",""time""
""fullscreenenter"",""1"",""3687""
","
",,,,,,,,,,,,"[{""stimulus"":""run_exp/static/images/task_images/dig.jpg"",""time"":0.19999998807907104},{""stimulus"":""run_exp/static/images/task_images/land.jpg"",""time"":866},{""stimulus"":""run_exp/static/images/task_images/dig.jpg"",""time"":1730.4000000059605}]",[],7,,,,,,,,,,,,,,
harvest,197,634715,0.0-63.0-1.0,"""event"",""trial"",""time""
""fullscreenenter"",""1"",""3687""
","
","
","""event"",""trial"",""time""
""fullscreenenter"",""1"",""3687""
","
",,null,run_exp/static/images/task_images/gems/67.jpg,null,,,,,,,57,,,7,,,,,67,0.848395001,0.850746269,,,,,,,
decision,198,635067,0.0-63.0-2.0,"""event"",""trial"",""time""
""fullscreenenter"",""1"",""3687""
","
","
","""event"",""trial"",""time""
""fullscreenenter"",""1"",""3687""
","
",,350.3,run_exp/static/images/task_images/land.jpg,65,,,,,,,57,,,7,,,,,,,,258626,1,2,FALSE,,,
dig,199,637723,0.0-64.0-0.0,"""event"",""trial"",""time""
""fullscreenenter"",""1"",""3687""
","
","
","""event"",""trial"",""time""
""fullscreenenter"",""1"",""3687""
","
",,,,,,,,,,,,"[{""stimulus"":""run_exp/static/images/task_images/dig.jpg"",""time"":0.5},{""stimulus"":""run_exp/static/images/task_images/land.jpg"",""time"":891.9000000059605},{""stimulus"":""run_exp/static/images/task_images/dig.jpg"",""time"":1772}]",[],7,,,,,,,,,,,,,,
harvest,200,638732,0.0-64.0-1.0,"""event"",""trial"",""time""
""fullscreenenter"",""1"",""3687""
","
","
","""event"",""trial"",""time""
""fullscreenenter"",""1"",""3687""
","
",,null,run_exp/static/images/task_images/gems/57.jpg,null,,,,,,,47,,,7,,,,,57,0.820606633,0.824561404,,,,,,,
decision,201,639027,0.0-64.0-2.0,"""event"",""trial"",""time""
""fullscreenenter"",""1"",""3687""
","
","
","""event"",""trial"",""time""
""fullscreenenter"",""1"",""3687""
","
",,294.6,run_exp/static/images/task_images/land.jpg,65,,,,,,,47,,,7,,,,,,,,262587,1,3,FALSE,,,
dig,202,641742,0.0-65.0-0.0,"""event"",""trial"",""time""
""fullscreenenter"",""1"",""3687""
","
","
","""event"",""trial"",""time""
""fullscreenenter"",""1"",""3687""
","
",,,,,,,,,,,,"[{""stimulus"":""run_exp/static/images/task_images/dig.jpg"",""time"":0.19999998807907104},{""stimulus"":""run_exp/static/images/task_images/land.jpg"",""time"":912.2999999821186},{""stimulus"":""run_exp/static/images/task_images/dig.jpg"",""time"":1805}]",[],7,,,,,,,,,,,,,,
harvest,203,642748,0.0-65.0-1.0,"""event"",""trial"",""time""
""fullscreenenter"",""1"",""3687""
","
","
","""event"",""trial"",""time""
""fullscreenenter"",""1"",""3687""
","
",,null,run_exp/static/images/task_images/gems/47.jpg,null,,,,,,,34,,,7,,,,,47,0.716297353,0.723404255,,,,,,,
decision,204,643554,0.0-65.0-2.0,"""event"",""trial"",""time""
""fullscreenenter"",""1"",""3687""
","
","
","""event"",""trial"",""time""
""fullscreenenter"",""1"",""3687""
","
",,805.1,run_exp/static/images/task_images/land.jpg,65,,,,,,,34,,,7,,,,,,,,267113,1,4,FALSE,,,
dig,205,645755,0.0-66.0-0.0,"""event"",""trial"",""time""
""fullscreenenter"",""1"",""3687""
","
","
","""event"",""trial"",""time""
""fullscreenenter"",""1"",""3687""
","
",,,,,,,,,,,,"[{""stimulus"":""run_exp/static/images/task_images/dig.jpg"",""time"":0.19999998807907104},{""stimulus"":""run_exp/static/images/task_images/land.jpg"",""time"":734},{""stimulus"":""run_exp/static/images/task_images/dig.jpg"",""time"":1470.0999999940395}]",[],7,,,,,,,,,,,,,,
harvest,206,646763,0.0-66.0-1.0,"""event"",""trial"",""time""
""fullscreenenter"",""1"",""3687""
","
","
","""event"",""trial"",""time""
""fullscreenenter"",""1"",""3687""
","
",,null,run_exp/static/images/task_images/gems/34.jpg,null,,,,,,,27,,,7,,,,,34,0.795032826,0.794117647,,,,,,,
decision,207,646882,0.0-66.0-2.0,"""event"",""trial"",""time""
""fullscreenenter"",""1"",""3687""
","
","
","""event"",""trial"",""time""
""fullscreenenter"",""1"",""3687""
","
",,118.4,run_exp/static/images/task_images/land.jpg,65,,,,,,,27,,,7,,,,,,,,270442,1,5,FALSE,,,
dig,208,649771,0.0-67.0-0.0,"""event"",""trial"",""time""
""fullscreenenter"",""1"",""3687""
","
","
","""event"",""trial"",""time""
""fullscreenenter"",""1"",""3687""
","
",,,,,,,,,,,,"[{""stimulus"":""run_exp/static/images/task_images/dig.jpg"",""time"":0.20000001788139343},{""stimulus"":""run_exp/static/images/task_images/land.jpg"",""time"":968.1000000238419},{""stimulus"":""run_exp/static/images/task_images/dig.jpg"",""time"":1925.6000000238419}]",[],7,,,,,,,,,,,,,,
harvest,209,650780,0.0-67.0-1.0,"""event"",""trial"",""time""
""fullscreenenter"",""1"",""3687""
","
","
","""event"",""trial"",""time""
""fullscreenenter"",""1"",""3687""
","
",,null,run_exp/static/images/task_images/gems/27.jpg,null,,,,,,,23,,,7,,,,,27,0.837276136,0.851851852,,,,,,,
decision,210,651227,0.0-67.0-2.0,"""event"",""trial"",""time""
""fullscreenenter"",""1"",""3687""
","
","
","""event"",""trial"",""time""
""fullscreenenter"",""1"",""3687""
","
",,445.9,run_exp/static/images/task_images/land.jpg,65,,,,,,,23,,,7,,,,,,,,274786,1,6,FALSE,,,
dig,211,653787,0.0-68.0-0.0,"""event"",""trial"",""time""
""fullscreenenter"",""1"",""3687""
","
","
","""event"",""trial"",""time""
""fullscreenenter"",""1"",""3687""
","
",,,,,,,,,,,,"[{""stimulus"":""run_exp/static/images/task_images/dig.jpg"",""time"":0.20000001788139343},{""stimulus"":""run_exp/static/images/task_images/land.jpg"",""time"":852.9000000059605},{""stimulus"":""run_exp/static/images/task_images/dig.jpg"",""time"":1709}]",[],7,,,,,,,,,,,,,,
harvest,212,654796,0.0-68.0-1.0,"""event"",""trial"",""time""
""fullscreenenter"",""1"",""3687""
","
","
","""event"",""trial"",""time""
""fullscreenenter"",""1"",""3687""
","
",,null,run_exp/static/images/task_images/gems/23.jpg,null,,,,,,,19,,,7,,,,,23,0.822377237,0.826086957,,,,,,,
decision,213,654972,0.0-68.0-2.0,"""event"",""trial"",""time""
""fullscreenenter"",""1"",""3687""
","
","
","""event"",""trial"",""time""
""fullscreenenter"",""1"",""3687""
","
",,175,run_exp/static/images/task_images/land.jpg,65,,,,,,,19,,,7,,,,,,,,278531,1,7,FALSE,,,
dig,214,657804,0.0-69.0-0.0,"""event"",""trial"",""time""
""fullscreenenter"",""1"",""3687""
","
","
","""event"",""trial"",""time""
""fullscreenenter"",""1"",""3687""
","
",,,,,,,,,,,,"[{""stimulus"":""run_exp/static/images/task_images/dig.jpg"",""time"":0.29999998211860657},{""stimulus"":""run_exp/static/images/task_images/land.jpg"",""time"":950},{""stimulus"":""run_exp/static/images/task_images/dig.jpg"",""time"":1887}]",[],7,,,,,,,,,,,,,,
harvest,215,658812,0.0-69.0-1.0,"""event"",""trial"",""time""
""fullscreenenter"",""1"",""3687""
","
","
","""event"",""trial"",""time""
""fullscreenenter"",""1"",""3687""
","
",,null,run_exp/static/images/task_images/gems/19.jpg,null,,,,,,,14,,,7,,,,,19,0.749894569,0.736842105,,,,,,,
decision,216,658947,0.0-69.0-2.0,"""event"",""trial"",""time""
""fullscreenenter"",""1"",""3687""
","
","
","""event"",""trial"",""time""
""fullscreenenter"",""1"",""3687""
","
",,134.5,run_exp/static/images/task_images/land.jpg,65,,,,,,,14,,,7,,,,,,,,282506,1,8,FALSE,,,
dig,217,661821,0.0-70.0-0.0,"""event"",""trial"",""time""
""fullscreenenter"",""1"",""3687""
","
","
","""event"",""trial"",""time""
""fullscreenenter"",""1"",""3687""
","
",,,,,,,,,,,,"[{""stimulus"":""run_exp/static/images/task_images/dig.jpg"",""time"":0.19999998807907104},{""stimulus"":""run_exp/static/images/task_images/land.jpg"",""time"":962.1999999880791},{""stimulus"":""run_exp/static/images/task_images/dig.jpg"",""time"":1919.2999999821186}]",[],7,,,,,,,,,,,,,,
harvest,218,662828,0.0-70.0-1.0,"""event"",""trial"",""time""
""fullscreenenter"",""1"",""3687""
","
","
","""event"",""trial"",""time""
""fullscreenenter"",""1"",""3687""
","
",,null,run_exp/static/images/task_images/gems/14.jpg,null,,,,,,,10,,,7,,,,,14,0.721944701,0.714285714,,,,,,,
decision,219,663003,0.0-70.0-2.0,"""event"",""trial"",""time""
""fullscreenenter"",""1"",""3687""
","
","
","""event"",""trial"",""time""
""fullscreenenter"",""1"",""3687""
","
",,173.9,run_exp/static/images/task_images/land.jpg,65,,,,,,,10,,,7,,,,,,,,286562,1,9,FALSE,,,
dig,220,665838,0.0-71.0-0.0,"""event"",""trial"",""time""
""fullscreenenter"",""1"",""3687""
","
","
","""event"",""trial"",""time""
""fullscreenenter"",""1"",""3687""
","
",,,,,,,,,,,,"[{""stimulus"":""run_exp/static/images/task_images/dig.jpg"",""time"":0.20000001788139343},{""stimulus"":""run_exp/static/images/task_images/land.jpg"",""time"":949.8000000119209},{""stimulus"":""run_exp/static/images/task_images/dig.jpg"",""time"":1887}]",[],7,,,,,,,,,,,,,,
harvest,221,666843,0.0-71.0-1.0,"""event"",""trial"",""time""
""fullscreenenter"",""1"",""3687""
","
","
","""event"",""trial"",""time""
""fullscreenenter"",""1"",""3687""
","
",,null,run_exp/static/images/task_images/gems/10.jpg,null,,,,,,,9,,,7,,,,,10,0.86454166,0.9,,,,,,,
decision,222,667444,0.0-71.0-2.0,"""event"",""trial"",""time""
""fullscreenenter"",""1"",""3687""
","
","
","""event"",""trial"",""time""
""fullscreenenter"",""1"",""3687""
","
",,599.8,run_exp/static/images/task_images/land.jpg,65,,,,,,,9,,,7,,,,,,,,291003,1,10,FALSE,,,
dig,223,669851,0.0-72.0-0.0,"""event"",""trial"",""time""
""fullscreenenter"",""1"",""3687""
","
","
","""event"",""trial"",""time""
""fullscreenenter"",""1"",""3687""
","
",,,,,,,,,,,,"[{""stimulus"":""run_exp/static/images/task_images/dig.jpg"",""time"":0.29999998211860657},{""stimulus"":""run_exp/static/images/task_images/land.jpg"",""time"":807.5},{""stimulus"":""run_exp/static/images/task_images/dig.jpg"",""time"":1608.5999999940395}]",[],7,,,,,,,,,,,,,,
harvest,224,670859,0.0-72.0-1.0,"""event"",""trial"",""time""
""fullscreenenter"",""1"",""3687""
","
","
","""event"",""trial"",""time""
""fullscreenenter"",""1"",""3687""
","
",,null,run_exp/static/images/task_images/gems/9.jpg,null,,,,,,,7,,,7,,,,,9,0.797645713,0.777777778,,,,,,,
decision,225,671253,0.0-72.0-2.0,"""event"",""trial"",""time""
""fullscreenenter"",""1"",""3687""
","
","
","""event"",""trial"",""time""
""fullscreenenter"",""1"",""3687""
","
",,391.8,run_exp/static/images/task_images/land.jpg,65,,,,,,,7,,,7,,,,,,,,294812,1,11,FALSE,,,
dig,226,673871,0.0-73.0-0.0,"""event"",""trial"",""time""
""fullscreenenter"",""1"",""3687""
","
","
","""event"",""trial"",""time""
""fullscreenenter"",""1"",""3687""
","
",,,,,,,,,,,,"[{""stimulus"":""run_exp/static/images/task_images/dig.jpg"",""time"":0.19999998807907104},{""stimulus"":""run_exp/static/images/task_images/land.jpg"",""time"":876.5},{""stimulus"":""run_exp/static/images/task_images/dig.jpg"",""time"":1744.7999999821186}]",[],7,,,,,,,,,,,,,,
harvest,227,674875,0.0-73.0-1.0,"""event"",""trial"",""time""
""fullscreenenter"",""1"",""3687""
","
","
","""event"",""trial"",""time""
""fullscreenenter"",""1"",""3687""
","
",,null,run_exp/static/images/task_images/gems/7.jpg,null,,,,,,,6,,,7,,,,,7,0.88388916,0.857142857,,,,,,,
decision,228,675923,0.0-73.0-2.0,"""event"",""trial"",""time""
""fullscreenenter"",""1"",""3687""
","
","
","""event"",""trial"",""time""
""fullscreenenter"",""1"",""3687""
","
",,1047.2,run_exp/static/images/task_images/land.jpg,76,,,,,,,6,,,7,,,,,,,,299483,1,12,TRUE,,,
travel,229,684879,0.0-74.0-0.0,"""event"",""trial"",""time""
""fullscreenenter"",""1"",""3687""
","
","
","""event"",""trial"",""time""
""fullscreenenter"",""1"",""3687""
","
",,,,,,,,,,,,"[{""stimulus"":""run_exp/static/images/task_images/rocket-01.jpg"",""time"":0.19999998807907104},{""stimulus"":""run_exp/static/images/task_images/rocket-02.jpg"",""time"":997.5999999940395},{""stimulus"":""run_exp/static/images/task_images/rocket-03.jpg"",""time"":1990},{""stimulus"":""run_exp/static/images/task_images/rocket-04.jpg"",""time"":2989.0999999940395},{""stimulus"":""run_exp/static/images/task_images/rocket-05.jpg"",""time"":3983.5999999940395},{""stimulus"":""run_exp/static/images/task_images/rocket-06.jpg"",""time"":4978},{""stimulus"":""run_exp/static/images/task_images/rocket-07.jpg"",""time"":5967.199999988079},{""stimulus"":""run_exp/static/images/task_images/rocket-08.jpg"",""time"":6967.0999999940395},{""stimulus"":""run_exp/static/images/task_images/rocket-09.jpg"",""time"":7961.9000000059605}]",[],7,,,,,,,,,,,,,,
alien_welcome,230,689886,0.0-74.0-1.0,"""event"",""trial"",""time""
""fullscreenenter"",""1"",""3687""
","
","
","""event"",""trial"",""time""
""fullscreenenter"",""1"",""3687""
","
",,null,run_exp/static/images/task_images/aliens/old_aliens/planet/alien_planet-76.jpg,null,,,,,,,,,,,,,76,"23,62,38,51,28,66,43,76,69,61,34,21,4,57,13,17,75,71,58,16,80,74,44,77,10,2",,,,,,,,,,
land,231,690388,0.0-74.0-2.0,"""event"",""trial"",""time""
""fullscreenenter"",""1"",""3687""
","
","
","""event"",""trial"",""time""
""fullscreenenter"",""1"",""3687""
","
",,null,run_exp/static/images/task_images/land.jpg,null,,,,,,,103,,,8,,,,,,,,,,,,,,
dig,232,692400,0.0-74.0-3.0,"""event"",""trial"",""time""
""fullscreenenter"",""1"",""3687""
","
","
","""event"",""trial"",""time""
""fullscreenenter"",""1"",""3687""
","
",,,,,,,,,,,,"[{""stimulus"":""run_exp/static/images/task_images/dig.jpg"",""time"":0.19999998807907104},{""stimulus"":""run_exp/static/images/task_images/land.jpg"",""time"":675.5999999940395},{""stimulus"":""run_exp/static/images/task_images/dig.jpg"",""time"":1344.8999999761581}]",[],8,,,,,,,,,,,,,,
harvest,233,693407,0.0-74.0-4.0,"""event"",""trial"",""time""
""fullscreenenter"",""1"",""3687""
","
","
","""event"",""trial"",""time""
""fullscreenenter"",""1"",""3687""
","
",,null,run_exp/static/images/task_images/gems/103.jpg,null,,,,,,,91,,,8,,,,,103,0.879910651,0.883495146,,,,,,,
decision,234,694021,0.0-74.0-5.0,"""event"",""trial"",""time""
""fullscreenenter"",""1"",""3687""
","
","
","""event"",""trial"",""time""
""fullscreenenter"",""1"",""3687""
","
",,613.3,run_exp/static/images/task_images/land.jpg,65,,,,,,,91,,,8,,,,,,,,317580,1,0,TRUE,,,
end_of_block_continue,235,702876,0.0-75.0-0.0,"""event"",""trial"",""time""
""fullscreenenter"",""1"",""3687""
","
","
","""event"",""trial"",""time""
""fullscreenenter"",""1"",""3687""
","
",,null,run_exp/static/audio/clip_32_block_end.m4a,,,,,,,null,,,,,,,,,,,,,,,,,,
alien_welcome,236,707894,0.0-76.0-0.0,"""event"",""trial"",""time""
""fullscreenenter"",""1"",""3687""
","
","
","""event"",""trial"",""time""
""fullscreenenter"",""1"",""3687""
","
",,null,run_exp/static/images/task_images/aliens/old_aliens/planet/alien_planet-69.jpg,null,,,,,,,,,,,,,69,"23,62,38,51,28,66,43,76,69,61,34,21,4,57,13,17,75,71,58,16,80,74,44,77,10,2",,,,,,,,,,
land,237,708401,0.0-76.0-1.0,"""event"",""trial"",""time""
""fullscreenenter"",""1"",""3687""
","
","
","""event"",""trial"",""time""
""fullscreenenter"",""1"",""3687""
","
",,null,run_exp/static/images/task_images/land.jpg,null,,,,,,,98,,,9,,,,,,,,,,,,,,
dig,238,710405,0.0-76.0-2.0,"""event"",""trial"",""time""
""fullscreenenter"",""1"",""3687""
","
","
","""event"",""trial"",""time""
""fullscreenenter"",""1"",""3687""
","
",,,,,,,,,,,,"[{""stimulus"":""run_exp/static/images/task_images/dig.jpg"",""time"":0.19999998807907104},{""stimulus"":""run_exp/static/images/task_images/land.jpg"",""time"":678.4000000059605},{""stimulus"":""run_exp/static/images/task_images/dig.jpg"",""time"":1339.4000000059605}]",[],9,,,,,,,,,,,,,,
harvest,239,711413,0.0-76.0-3.0,"""event"",""trial"",""time""
""fullscreenenter"",""1"",""3687""
","
","
","""event"",""trial"",""time""
""fullscreenenter"",""1"",""3687""
","
",,null,run_exp/static/images/task_images/gems/98.jpg,null,,,,,,,25,,,9,,,,,98,0.255369494,0.255102041,,,,,,,
decision,240,711822,0.0-76.0-4.0,"""event"",""trial"",""time""
""fullscreenenter"",""1"",""3687""
","
","
","""event"",""trial"",""time""
""fullscreenenter"",""1"",""3687""
","
",,407.7,run_exp/static/images/task_images/land.jpg,65,,,,,,,25,,,9,,,,,,,,8933,2,0,FALSE,,,
dig,241,714421,0.0-77.0-0.0,"""event"",""trial"",""time""
""fullscreenenter"",""1"",""3687""
","
","
","""event"",""trial"",""time""
""fullscreenenter"",""1"",""3687""
","
",,,,,,,,,,,,"[{""stimulus"":""run_exp/static/images/task_images/dig.jpg"",""time"":0.19999998807907104},{""stimulus"":""run_exp/static/images/task_images/land.jpg"",""time"":871.9000000059605},{""stimulus"":""run_exp/static/images/task_images/dig.jpg"",""time"":1731.4000000059605}]",[],9,,,,,,,,,,,,,,
harvest,242,715429,0.0-77.0-1.0,"""event"",""trial"",""time""
""fullscreenenter"",""1"",""3687""
","
","
","""event"",""trial"",""time""
""fullscreenenter"",""1"",""3687""
","
",,null,run_exp/static/images/task_images/gems/25.jpg,null,,,,,,,8,,,9,,,,,25,0.327151351,0.32,,,,,,,
decision,243,715743,0.0-77.0-2.0,"""event"",""trial"",""time""
""fullscreenenter"",""1"",""3687""
","
","
","""event"",""trial"",""time""
""fullscreenenter"",""1"",""3687""
","
",,312.8,run_exp/static/images/task_images/land.jpg,65,,,,,,,8,,,9,,,,,,,,12854,2,1,FALSE,,,
dig,244,718437,0.0-78.0-0.0,"""event"",""trial"",""time""
""fullscreenenter"",""1"",""3687""
","
","
","""event"",""trial"",""time""
""fullscreenenter"",""1"",""3687""
","
",,,,,,,,,,,,"[{""stimulus"":""run_exp/static/images/task_images/dig.jpg"",""time"":0.19999998807907104},{""stimulus"":""run_exp/static/images/task_images/land.jpg"",""time"":899.5},{""stimulus"":""run_exp/static/images/task_images/dig.jpg"",""time"":1798.8999999761581}]",[],9,,,,,,,,,,,,,,
harvest,245,719446,0.0-78.0-1.0,"""event"",""trial"",""time""
""fullscreenenter"",""1"",""3687""
","
","
","""event"",""trial"",""time""
""fullscreenenter"",""1"",""3687""
","
",,null,run_exp/static/images/task_images/gems/8.jpg,null,,,,,,,2,,,9,,,,,8,0.198172153,0.25,,,,,,,
decision,246,720143,0.0-78.0-2.0,"""event"",""trial"",""time""
""fullscreenenter"",""1"",""3687""
","
","
","""event"",""trial"",""time""
""fullscreenenter"",""1"",""3687""
","
",,695.3,run_exp/static/images/task_images/land.jpg,65,,,,,,,2,,,9,,,,,,,,17254,2,2,FALSE,,,
dig,247,722458,0.0-79.0-0.0,"""event"",""trial"",""time""
""fullscreenenter"",""1"",""3687""
","
","
","""event"",""trial"",""time""
""fullscreenenter"",""1"",""3687""
","
",,,,,,,,,,,,"[{""stimulus"":""run_exp/static/images/task_images/dig.jpg"",""time"":0.10000002384185791},{""stimulus"":""run_exp/static/images/task_images/land.jpg"",""time"":772.1000000238419},{""stimulus"":""run_exp/static/images/task_images/dig.jpg"",""time"":1540.6000000238419}]",[],9,,,,,,,,,,,,,,
harvest,248,723461,0.0-79.0-1.0,"""event"",""trial"",""time""
""fullscreenenter"",""1"",""3687""
","
","
","""event"",""trial"",""time""
""fullscreenenter"",""1"",""3687""
","
",,null,run_exp/static/images/task_images/gems/2.jpg,null,,,,,,,0,,,9,,,,,2,0.211455602,0,,,,,,,
decision,249,724248,0.0-79.0-2.0,"""event"",""trial"",""time""
""fullscreenenter"",""1"",""3687""
","
","
","""event"",""trial"",""time""
""fullscreenenter"",""1"",""3687""
","
",,785.9,run_exp/static/images/task_images/land.jpg,65,,,,,,,0,,,9,,,,,,,,21359,2,3,FALSE,,,
dig,250,726471,0.0-80.0-0.0,"""event"",""trial"",""time""
""fullscreenenter"",""1"",""3687""
","
","
","""event"",""trial"",""time""
""fullscreenenter"",""1"",""3687""
","
",,,,,,,,,,,,"[{""stimulus"":""run_exp/static/images/task_images/dig.jpg"",""time"":0.30000001192092896},{""stimulus"":""run_exp/static/images/task_images/land.jpg"",""time"":740.9000000059605},{""stimulus"":""run_exp/static/images/task_images/dig.jpg"",""time"":1480.300000011921}]",[],9,,,,,,,,,,,,,,
harvest,251,727482,0.0-80.0-1.0,"""event"",""trial"",""time""
""fullscreenenter"",""1"",""3687""
","
","
","""event"",""trial"",""time""
""fullscreenenter"",""1"",""3687""
","
",,null,run_exp/static/images/task_images/gems/0.jpg,null,,,,,,,0,,,9,,,,,0,0.221081984,NaN,,,,,,,
decision,252,729118,0.0-80.0-2.0,"""event"",""trial"",""time""
""fullscreenenter"",""1"",""3687""
","
","
","""event"",""trial"",""time""
""fullscreenenter"",""1"",""3687""
","
",,1635.5,run_exp/static/images/task_images/land.jpg,76,,,,,,,0,,,9,,,,,,,,26229,2,4,TRUE,,,
travel,253,737486,0.0-81.0-0.0,"""event"",""trial"",""time""
""fullscreenenter"",""1"",""3687""
","
","
","""event"",""trial"",""time""
""fullscreenenter"",""1"",""3687""
","
",,,,,,,,,,,,"[{""stimulus"":""run_exp/static/images/task_images/rocket-01.jpg"",""time"":0.09999999403953552},{""stimulus"":""run_exp/static/images/task_images/rocket-02.jpg"",""time"":934.9000000059605},{""stimulus"":""run_exp/static/images/task_images/rocket-03.jpg"",""time"":1859.5},{""stimulus"":""run_exp/static/images/task_images/rocket-04.jpg"",""time"":2796.4000000059605},{""stimulus"":""run_exp/static/images/task_images/rocket-05.jpg"",""time"":3723.5999999940395},{""stimulus"":""run_exp/static/images/task_images/rocket-06.jpg"",""time"":4654.4000000059605},{""stimulus"":""run_exp/static/images/task_images/rocket-07.jpg"",""time"":5580.199999988079},{""stimulus"":""run_exp/static/images/task_images/rocket-08.jpg"",""time"":6512},{""stimulus"":""run_exp/static/images/task_images/rocket-09.jpg"",""time"":7436.199999988079}]",[],9,,,,,,,,,,,,,,
alien_welcome,254,742495,0.0-81.0-1.0,"""event"",""trial"",""time""
""fullscreenenter"",""1"",""3687""
","
","
","""event"",""trial"",""time""
""fullscreenenter"",""1"",""3687""
","
