trial_type,trial_index,time_elapsed,internal_node_id,success,rt,stimulus,key_press,prompt,subject_id,age,gender,button_pressed,next_reward,animation_sequence,responses,planet,curr_prac_trial,n_prac_rounds,alien,aliens,reward_received,decay_rate_actual,decay_rate_exp,time_in_block,block_num,prt,last_trial_on_planet,bonus,num_failures
pavlovia,0,7,0.0-0.0,,,,,,,,,,,,,,,,,,,,,,,,,,
fullscreen,1,7857,0.0-1.0,TRUE,,,,,,,,,,,,,,,,,,,,,,,,,
instruc_welcome,2,17815,0.0-2.0,,null,run_exp/static/audio/clip_1_welcome.m4a,null,"<p>Howdy! In this experiment, you’ll be an explorer traveling through space to collect space treasure.</p><p>Your mission is to collect as much treasure as possible.</p><br><br><p><img src='run_exp/static/images/task_images/opening_img-01.jpg' height='300' width='auto'></p>",XI4wRXgHe3P43mV_a5Ke5UddwllDBGZ_MLRP_87yxWp0VwuMSNls,11.26,male,,,,,,,,,,,,,,,,,,
audio-keyboard-response,3,34433,0.0-3.0,,null,run_exp/static/audio/clip_2_move.m4a,null,,,,,,,,,,,,,,,,,,,,,,
welcome_dec,4,35168,0.0-4.0,,730.2399999,"<p>Howdy! In this experiment, you’ll be an explorer traveling through space to collect space treasure.</p><p>Your mission is to collect as much treasure as possible.</p><br><br><p><img src='run_exp/static/images/task_images/opening_img-01.jpg' height='300' width='auto'></p>",,,,,,1,,,,,,,,,,,,,,,,,
html-keyboard-response,5,36960,0.0-5.0,,1788.885,"<p>Howdy! In this experiment, you’ll be an explorer traveling through space to collect space treasure.</p><p>Your mission is to collect as much treasure as possible.</p><br><br><p><img src='run_exp/static/images/task_images/opening_img-01.jpg' height='300' width='auto'></p><button class=""jspsych-html-btn-unchosen""><img src=""run_exp/static/images/task_images/planet-01.jpg"" height=""50""></button><button class=""jspsych-html-btn-chosen""><img src=""run_exp/static/images/task_images/planet-02.jpg"" height=""50""></button><p><b>[press the space bar to lock in your answer]<b><br></p>",32,,,,,,,,,,,,,,,,,,,,,,
instruc_goal,6,47054,0.0-6.0-0.0,,null,run_exp/static/audio/clip_3_goal.m4a,null,"<p> As a space explorer, you’ll visit different planets to dig for space treasure, these pink gems.</p> <p> The more treasure you dig up, the more bonus money you’ll win! </p><br><br><p><img src='run_exp/static/images/task_images/pink_gem.jpg' height='300' width='auto'></p>",,,,,,,,,,,,,,,,,,,,,
instruc_goal,7,54808,0.0-6.0-1.0,,7749.6,"<p> As a space explorer, you’ll visit different planets to dig for space treasure, these pink gems.</p> <p> The more treasure you dig up, the more bonus money you’ll win! </p><br><br><p><img src='run_exp/static/images/task_images/pink_gem.jpg' height='300' width='auto'></p>",,,,,,1,,,,,,,,,,,,,,,,,
html-keyboard-response,8,55415,0.0-6.0-2.0,,604.945,"<p> As a space explorer, you’ll visit different planets to dig for space treasure, these pink gems.</p> <p> The more treasure you dig up, the more bonus money you’ll win! </p><br><br><p><img src='run_exp/static/images/task_images/pink_gem.jpg' height='300' width='auto'></p><button class=""jspsych-html-btn-unchosen""><img src=""run_exp/static/images/task_images/planet-01.jpg"" height=""50""></button><button class=""jspsych-html-btn-chosen""><img src=""run_exp/static/images/task_images/planet-02.jpg"" height=""50""></button><p><b>[press the space bar to lock in your answer]<b><br></p>",32,,,,,,,,,,,,,,,,,,,,,,
instruc_dig,9,71453,0.0-7.0-0.0,,null,run_exp/static/audio/clip_4_dig.m4a,null,,,,,,100,,,,,,,,,,,,,,,,
instruc_dig_try,10,80782,0.0-7.0-1.0,,9324.43,"<p> When you’ve arrived at a new planet, you will dig once. </p> <p>Then, you get to decide if you want to stay on the planet and dig again or travel to a new planet and dig there.</p> <p> To stay and dig, press the letter <strong>‘A’</strong> on your keyboard. Try pressing it now! </p><p><img src='run_exp/static/images/task_images/land.jpg'  height='700' width='auto'></p>",65,"<p> When you’ve arrived at a new planet, you will dig once. </p> <p>Then, you get to decide if you want to stay on the planet and dig again or travel to a new planet and dig there.</p> <p> To stay and dig, press the letter <strong>‘A’</strong> on your keyboard. Try pressing it now! </p><p><img src='run_exp/static/images/task_images/land.jpg'  height='700' width='auto'></p>",,,,,100,,,,,,,,,,,,,,,,
dig_prac,11,82797,0.0-7.0-2.0,,,,,,,,,,,"[{""stimulus"":""run_exp/static/images/task_images/dig.jpg"",""time"":0.47999992966651917},{""stimulus"":""run_exp/static/images/task_images/land.jpg"",""time"":669.2150000017136},{""stimulus"":""run_exp/static/images/task_images/dig.jpg"",""time"":1337.2149999486282}]",[],,,,,,,,,,,,,,
instruc_travel,12,119053,0.0-7.0-3.0,,null,run_exp/static/audio/clip_5_travel.m4a,null,"<p>Every time you dig up gems, there are less gems on the planet, so the more you dig on a planet the fewer gems you’ll get with each dig.</p><p>When gems are running low, you may want to travel to a new planet. </p> <p>  Planets are very far apart in this galaxy, so it will take some time to travel between them. </p> <br><p>There are lots and lots of planets for you to visit, so you won’t be able to return to any planets you’ve seen before. </p><br><p>To leave this planet and travel to a new one, press the letter <strong>‘L’</strong> on your keyboard. Try pressing it now! </p><p><img src='run_exp/static/images/task_images/rocket-01.jpg'  height='600' width='auto'></p>",,,,,,,,,,,,,,,,,,,,,
instruc_travel_try,13,121902,0.0-7.0-4.0,,2844.73,"<p>Every time you dig up gems, there are less gems on the planet, so the more you dig on a planet the fewer gems you’ll get with each dig.</p><p>When gems are running low, you may want to travel to a new planet. </p> <p>  Planets are very far apart in this galaxy, so it will take some time to travel between them. </p> <br><p>There are lots and lots of planets for you to visit, so you won’t be able to return to any planets you’ve seen before. </p><br><p>To leave this planet and travel to a new one, press the letter <strong>‘L’</strong> on your keyboard. Try pressing it now! </p><p><img src='run_exp/static/images/task_images/rocket-01.jpg'  height='600' width='auto'></p>",76,"<p>Every time you dig up gems, there are less gems on the planet, so the more you dig on a planet the fewer gems you’ll get with each dig.</p><p>When gems are running low, you may want to travel to a new planet. </p> <p>  Planets are very far apart in this galaxy, so it will take some time to travel between them. </p> <br><p>There are lots and lots of planets for you to visit, so you won’t be able to return to any planets you’ve seen before. </p><br><p>To leave this planet and travel to a new one, press the letter <strong>‘L’</strong> on your keyboard. Try pressing it now! </p><p><img src='run_exp/static/images/task_images/rocket-01.jpg'  height='600' width='auto'></p>",,,,,,,,,,,,,,,,,,,,,
travel_prac,14,131905,0.0-7.0-5.0,,,,,,,,,,,"[{""stimulus"":""run_exp/static/images/task_images/rocket-01.jpg"",""time"":0.35500002559274435},{""stimulus"":""run_exp/static/images/task_images/rocket-02.jpg"",""time"":1113.755000056699},{""stimulus"":""run_exp/static/images/task_images/rocket-03.jpg"",""time"":2224.694999982603},{""stimulus"":""run_exp/static/images/task_images/rocket-04.jpg"",""time"":3335.3099999949336},{""stimulus"":""run_exp/static/images/task_images/rocket-05.jpg"",""time"":4446.63500005845},{""stimulus"":""run_exp/static/images/task_images/rocket-06.jpg"",""time"":5557.5400000670925},{""stimulus"":""run_exp/static/images/task_images/rocket-07.jpg"",""time"":6668.535000062548},{""stimulus"":""run_exp/static/images/task_images/rocket-08.jpg"",""time"":7778.630000073463},{""stimulus"":""run_exp/static/images/task_images/rocket-09.jpg"",""time"":8890.125000034459}]",[],0,,,,,,,,,,,,,
instruc_alien_greet,15,159112,0.0-7.0-6.0,,null,run_exp/static/audio/clip_6_alien.m4a,null,"<p>When you arrive at a new planet, the alien who owns the treasure mine on that planet will greet you!</p><p>The better an alien takes care of their mine the easier it is to dig for gems. Some aliens take better care of their mine than others. So, you won’t get exactly the same amount of gems on each planet.</p><p>What the alien looks like does not tell you anything about how many gems there are on the planet.</p><br><p><img src=""run_exp/static/images/task_images/aliens/instructions_aliens/planet/alien_planet-1.jpg""  height=""600"" width=""auto""></p>",,,,,,,,,,,,,,,,,,,,,
instruc_alien_greet,16,162766,0.0-7.0-7.0,,3649.235,"<p>When you arrive at a new planet, the alien who owns the treasure mine on that planet will greet you!</p><p>The better an alien takes care of their mine the easier it is to dig for gems. Some aliens take better care of their mine than others. So, you won’t get exactly the same amount of gems on each planet.</p><p>What the alien looks like does not tell you anything about how many gems there are on the planet.</p><br><p><img src=""run_exp/static/images/task_images/aliens/instructions_aliens/planet/alien_planet-1.jpg""  height=""600"" width=""auto""></p>",,,,,,1,,,,,,,,,,,,,,,,,
html-keyboard-response,17,163925,0.0-7.0-8.0,,1157.43,"<p>When you arrive at a new planet, the alien who owns the treasure mine on that planet will greet you!</p><p>The better an alien takes care of their mine the easier it is to dig for gems. Some aliens take better care of their mine than others. So, you won’t get exactly the same amount of gems on each planet.</p><p>What the alien looks like does not tell you anything about how many gems there are on the planet.</p><br><p><img src=""run_exp/static/images/task_images/aliens/instructions_aliens/planet/alien_planet-1.jpg""  height=""600"" width=""auto""></p><button class=""jspsych-html-btn-unchosen""><img src=""run_exp/static/images/task_images/planet-01.jpg"" height=""50""></button><button class=""jspsych-html-btn-chosen""><img src=""run_exp/static/images/task_images/planet-02.jpg"" height=""50""></button><p><b>[press the space bar to lock in your answer]<b><br></p>",32,,,,,,,,,,,,,,,,,,,,,,
time_out,18,175032,0.0-8.0-0.0,,null,run_exp/static/audio/clip_7_timeout.m4a,null,"<p>If you don't make your choice fast enough, you’ll have to wait a few seconds before you can make another one.</p><p>You can’t dig for more gems or travel to new planets. You just have to sit and wait.</p><br><p><img src='run_exp/static/images/task_images/time_out.jpg'  height='600' width='auto'></p>",,,,,,,,,,,,,,,,,,,,,
time_out,19,178230,0.0-8.0-1.0,,3193.24,"<p>If you don't make your choice fast enough, you’ll have to wait a few seconds before you can make another one.</p><p>You can’t dig for more gems or travel to new planets. You just have to sit and wait.</p><br><p><img src='run_exp/static/images/task_images/time_out.jpg'  height='600' width='auto'></p>",,,,,,1,,,,,,,,,,,,,,,,,
html-keyboard-response,20,179525,0.0-8.0-2.0,,1293.685,"<p>If you don't make your choice fast enough, you’ll have to wait a few seconds before you can make another one.</p><p>You can’t dig for more gems or travel to new planets. You just have to sit and wait.</p><br><p><img src='run_exp/static/images/task_images/time_out.jpg'  height='600' width='auto'></p><button class=""jspsych-html-btn-unchosen""><img src=""run_exp/static/images/task_images/planet-01.jpg"" height=""50""></button><button class=""jspsych-html-btn-chosen""><img src=""run_exp/static/images/task_images/planet-02.jpg"" height=""50""></button><p><b>[press the space bar to lock in your answer]<b><br></p>",32,,,,,,,,,,,,,,,,,,,,,,
instruc_break,21,195212,0.0-9.0-0.0,,null,run_exp/static/audio/clip_8_break.m4a,null,"<p> After digging and traveling for a while, you’ll be able to take a break at home base. </p><p>The game will last 20 minutes no matter what.</p><p>You will visit home base every 5 minutes, so, you will visit home base three times during the game.</p><br><p><img src='run_exp/static/images/task_images/home_base.jpg' height='600' width='auto'></p>",,,,,,,,,,,,,,,,,,,,,
instruc_break,22,201158,0.0-9.0-1.0,,5942.715,"<p> After digging and traveling for a while, you’ll be able to take a break at home base. </p><p>The game will last 20 minutes no matter what.</p><p>You will visit home base every 5 minutes, so, you will visit home base three times during the game.</p><br><p><img src='run_exp/static/images/task_images/home_base.jpg' height='600' width='auto'></p>",,,,,,1,,,,,,,,,,,,,,,,,
html-keyboard-response,23,201613,0.0-9.0-2.0,,453.32,"<p> After digging and traveling for a while, you’ll be able to take a break at home base. </p><p>The game will last 20 minutes no matter what.</p><p>You will visit home base every 5 minutes, so, you will visit home base three times during the game.</p><br><p><img src='run_exp/static/images/task_images/home_base.jpg' height='600' width='auto'></p><button class=""jspsych-html-btn-unchosen""><img src=""run_exp/static/images/task_images/planet-01.jpg"" height=""50""></button><button class=""jspsych-html-btn-chosen""><img src=""run_exp/static/images/task_images/planet-02.jpg"" height=""50""></button><p><b>[press the space bar to lock in your answer]<b><br></p>",32,,,,,,,,,,,,,,,,,,,,,,
instruc_prac_game,24,211752,0.0-10.0-0.0,,null,run_exp/static/audio/clip_9_practice.m4a,null,"<p> Are you ready to play a practice game? </p> <p>In this practice game, you'll be digging up barrels of gems. But, in the real game, you'll be digging up the gems themselves. </p>",,,,,,,,,,,,,,,,,,,,,
html-button-response,25,213629,0.0-10.0-1.0,,1874.785,"<p> Are you ready to play a practice game? </p> <p>In this practice game, you'll be digging up barrels of gems. But, in the real game, you'll be digging up the gems themselves. </p>",,,,,,0,,,,,,,,,,,,,,,,,
alien_welcome_prac,26,218635,0.0-11.0-0.0,,null,run_exp/static/images/task_images/aliens/practice_aliens/planet/alien_planet-5.jpg,null,,,,,,,,,,,,,,,,,,,,,,
land_prac,27,219139,0.0-11.0-1.0,,null,run_exp/static/images/task_images/land.jpg,null,,,,,,86,,,0,,,,,,,,,,,,,
dig_prac,28,221144,0.0-11.0-2.0,,,,,,,,,,,"[{""stimulus"":""run_exp/static/images/task_images/dig.jpg"",""time"":0.3599999472498894},{""stimulus"":""run_exp/static/images/task_images/land.jpg"",""time"":669.1750000463799},{""stimulus"":""run_exp/static/images/task_images/dig.jpg"",""time"":1335.9499999787658}]",[],,,,,,,,,,,,,,
harvest_prac,29,222146,0.0-11.0-3.0,,null,run_exp/static/images/task_images/barrel_text.jpg,null,,,,,,,,,,,,,,,,,,,,,,
decision_prac,30,225149,0.0-11.0-4.0,,null,run_exp/static/images/task_images/land.jpg,null,,,,,,,,,,1,,,,,,,,,,,,
time_out,31,227156,0.0-12.0-0.0,,null,run_exp/static/images/task_images/time_out.jpg,null,,,,,,,,,,,,,,,,,,,,,,
decision_prac,32,227582,0.0-12.0-1.0,,423.53,run_exp/static/images/task_images/land.jpg,65,,,,,,,,,,2,,,,,,,,,,,,
dig_prac,33,229589,0.0-13.0-0.0,,,,,,,,,,,"[{""stimulus"":""run_exp/static/images/task_images/dig.jpg"",""time"":0.28499995823949575},{""stimulus"":""run_exp/static/images/task_images/land.jpg"",""time"":669.3199999863282},{""stimulus"":""run_exp/static/images/task_images/dig.jpg"",""time"":1336.5299999713898}]",[],,,,,,,,,,,,,,
harvest_prac,34,230591,0.0-13.0-1.0,,null,run_exp/static/images/task_images/barrel_text.jpg,null,,,,,,,,,,,,,,,,,,,,,,
decision_prac,35,231014,0.0-13.0-2.0,,421.89,run_exp/static/images/task_images/land.jpg,65,,,,,,,,,,3,,,,,,,,,,,,
dig_prac,36,233022,0.0-14.0-0.0,,,,,,,,,,,"[{""stimulus"":""run_exp/static/images/task_images/dig.jpg"",""time"":0.2649999223649502},{""stimulus"":""run_exp/static/images/task_images/land.jpg"",""time"":668.7849999871105},{""stimulus"":""run_exp/static/images/task_images/dig.jpg"",""time"":1335.7499999692664}]",[],,,,,,,,,,,,,,
harvest_prac,37,234025,0.0-14.0-1.0,,null,run_exp/static/images/task_images/barrel_text.jpg,null,,,,,,,,,,,,,,,,,,,,,,
decision_prac,38,234494,0.0-14.0-2.0,,467.4549999,run_exp/static/images/task_images/land.jpg,65,,,,,,,,,,4,,,,,,,,,,,,
dig_prac,39,236501,0.0-15.0-0.0,,,,,,,,,,,"[{""stimulus"":""run_exp/static/images/task_images/dig.jpg"",""time"":0.29500003438442945},{""stimulus"":""run_exp/static/images/task_images/land.jpg"",""time"":669.88499998115},{""stimulus"":""run_exp/static/images/task_images/dig.jpg"",""time"":1336.5350000094622}]",[],,,,,,,,,,,,,,
harvest_prac,40,237504,0.0-15.0-1.0,,null,run_exp/static/images/task_images/barrel_text.jpg,null,,,,,,,,,,,,,,,,,,,,,,
decision_prac,41,237853,0.0-15.0-2.0,,347.1,run_exp/static/images/task_images/land.jpg,65,,,,,,,,,,,1,,,,,,,,,,,
quiz_instruc,42,249311,0.0-16.0-0.0,,11451.935,run_exp/static/audio/clip_10_quiz.m4a,,,,,,0,,,,,,,,,,,,,,,,,
instruc_repeat,43,292101,0.0-16.0-1.0,,null,"<p> Are you ready to play a practice game? </p> <p>In this practice game, you'll be digging up barrels of gems. But, in the real game, you'll be digging up the gems themselves. </p>",null,"<p>In this game, your goal is to collect as many gems as you can. That’s how you will win bonus money. </p> <p>The entire game will last 20 minutes no matter how many gems you collect or how many planets you visit. </p><p>To stay on a planet and dig again, press the letter A on your keyboard. To leave for a new planet, press the letter L.</p><p>The more you dig on a planet, the fewer gems you’ll get with each dig which is why you might consider leaving for a new planet. </p><p>When you arrive at a new planet, you’ll be greeted by an alien. What the alien looks like does not tell you anything about how much treasure is on the planet. </p>",,,,,,,,,,,,,,,,,,,,,
instruc_repeat_continue,44,297885,0.0-16.0-2.0,,5781.54,"<p> Are you ready to play a practice game? </p> <p>In this practice game, you'll be digging up barrels of gems. But, in the real game, you'll be digging up the gems themselves. </p>",,,,,,0,,,,,,,,,,,,,,,,,
quiz_q_1_ask,45,306934,0.0-16.0-3.0,,9045.54,run_exp/static/audio/clip_11_q1_ask.m4a,,,,,,2,,,,,,,,,,,,,,,,,
quiz_q_1_fb_correct,46,310781,0.0-17.0-0.0,,null,run_exp/static/audio/clip_12_q1_corrrect.m4a,null,<p>That’s correct. You win extra money by collecting more gems.</p>,,,,,,,,,,,,,,,,,,,,,
quiz_q_2_ask,47,313910,0.0-17.0-1.0,,3125.73,run_exp/static/audio/clip_14_q2_ask.m4a,,,,,,1,,,,,,,,,,,,,,,,,
quiz_q_2_fb_correct,48,317920,0.0-18.0-0.0,,null,run_exp/static/audio/clip_15_q2_correct.m4a,null,<p>That’s correct. The experiment is 20 minutes no matter what.</p>,,,,,,,,,,,,,,,,,,,,,
quiz_q_3_ask,49,321365,0.0-18.0-1.0,,3442.255,run_exp/static/audio/clip_17_q3_ask.m4a,,,,,,1,,,,,,,,,,,,,,,,,
quiz_q_3_fb_correct,50,325361,0.0-19.0-0.0,,null,run_exp/static/audio/clip_18_q3_correct.m4a,null,<p> That’s correct. You press the letter L to travel to a new planet.</p>,,,,,,,,,,,,,,,,,,,,,
quiz_q_4_ask,51,328573,0.0-19.0-1.0,,3209.21,run_exp/static/audio/clip_20_q4_ask.m4a,,,,,,0,,,,,,,,,,,,,,,,,
quiz_q_4_fb_correct,52,333901,0.0-20.0-0.0,,null,run_exp/static/audio/clip_21_q4_correct.m4a,null,<p> That’s correct. The more you dig on a planet the fewer gems you’ll get with each dig. </p>,,,,,,,,,,,,,,,,,,,,,
quiz_q_5_ask,53,336621,0.0-20.0-1.0,,2716.685,run_exp/static/audio/clip_23_q5_ask.m4a,,,,,,1,,,,,,,,,,,,,,,,,
quiz_q_5_fb_correct,54,341641,0.0-21.0-0.0,,null,run_exp/static/audio/clip_24_q5_correct.m4a,null,<p> That’s correct. The alien tells you nothing about how much treasure is on the planet.</p>,,,,,,,,,,,,,,,,,,,,,
quiz_correct,55,345120,0.0-22.0-0.0,,null,run_exp/static/audio/clip_26_correct_quiz.m4a,null,,,,,,,,,,,,,,,,,,,,,,
quiz_correct_continue,56,346845,0.0-22.0-1.0,,1722.695,<p>Good job! You're now ready to move on to the real game!</p>,,,,,,0,,,,,,,,,,,,,,,,,
audio-keyboard-response,57,356980,0.0-22.0-2.0,,null,run_exp/static/audio/clip_28_real_game.m4a,null,,,,,,,,,,,,,,,,,,,,,,
instruc_begin_exp_contine,58,358412,0.0-22.0-3.0,,1428.26,"<p>Now that you know how  to dig for space treasure and travel to new planets,you can start exploring! </p><p>Do you want to go over the instructions again or get started with the real game?</p>",,,,,,1,,,,,,1,,,,,,,,,,,
alien_welcome,59,363417,0.0-23.0-0.0,,null,run_exp/static/images/task_images/aliens/old_aliens/planet/alien_planet-65.jpg,null,,,,,,,,,,,,65,"65,24,2,71,1,12,50,39,48,61,54,16,53,64,76,70,3,73,31,28,56,19,69,33,18,20,34",,,,,,,,,
land,60,363920,0.0-23.0-1.0,,null,run_exp/static/images/task_images/land.jpg,null,,,,,,89,,,1,,,,,,,,,,,,,
dig,61,365928,0.0-23.0-2.0,,,,,,,,,,,"[{""stimulus"":""run_exp/static/images/task_images/dig.jpg"",""time"":0.7100000511854887},{""stimulus"":""run_exp/static/images/task_images/land.jpg"",""time"":669.2000000039116},{""stimulus"":""run_exp/static/images/task_images/dig.jpg"",""time"":1336.8949999567121}]",[],1,,,,,,,,,,,,,
harvest,62,366930,0.0-23.0-3.0,,null,run_exp/static/images/task_images/gems/89.jpg,null,,,,,,14,,,1,,,,,89,0.157330037,0.157303371,,,,,,
decision,63,367515,0.0-23.0-4.0,,582.455,run_exp/static/images/task_images/land.jpg,65,,,,,,14,,,1,,,,,,,,9101,1,0,FALSE,,
dig,64,369940,0.0-24.0-0.0,,,,,,,,,,,"[{""stimulus"":""run_exp/static/images/task_images/dig.jpg"",""time"":0.43000001460313797},{""stimulus"":""run_exp/static/images/task_images/land.jpg"",""time"":806.7149999551475},{""stimulus"":""run_exp/static/images/task_images/dig.jpg"",""time"":1613.1250000325963}]",[],1,,,,,,,,,,,,,
harvest,65,370943,0.0-24.0-1.0,,null,run_exp/static/images/task_images/gems/14.jpg,null,,,,,,3,,,1,,,,,14,0.183255947,0.214285714,,,,,,
decision,66,371468,0.0-24.0-2.0,,520.6950001,run_exp/static/images/task_images/land.jpg,65,,,,,,3,,,1,,,,,,,,13054,1,1,FALSE,,
dig,67,373954,0.0-25.0-0.0,,,,,,,,,,,"[{""stimulus"":""run_exp/static/images/task_images/dig.jpg"",""time"":0.27000007685273886},{""stimulus"":""run_exp/static/images/task_images/land.jpg"",""time"":827.5950000388548},{""stimulus"":""run_exp/static/images/task_images/dig.jpg"",""time"":1654.3499999679625}]",[],1,,,,,,,,,,,,,
harvest,68,374957,0.0-25.0-1.0,,null,run_exp/static/images/task_images/gems/3.jpg,null,,,,,,0,,,1,,,,,3,0.161099158,0,,,,,,
decision,69,375203,0.0-25.0-2.0,,243.355,run_exp/static/images/task_images/land.jpg,65,,,,,,0,,,1,,,,,,,,16790,1,2,FALSE,,
dig,70,377964,0.0-26.0-0.0,,,,,,,,,,,"[{""stimulus"":""run_exp/static/images/task_images/dig.jpg"",""time"":0.3100000321865082},{""stimulus"":""run_exp/static/images/task_images/land.jpg"",""time"":921.100000035949},{""stimulus"":""run_exp/static/images/task_images/dig.jpg"",""time"":1838.400000007823}]",[],1,,,,,,,,,,,,,
harvest,71,378966,0.0-26.0-1.0,,null,run_exp/static/images/task_images/gems/0.jpg,null,,,,,,0,,,1,,,,,0,0.281839295,NaN,,,,,,
decision,72,380908,0.0-26.0-2.0,,1939.305,run_exp/static/images/task_images/land.jpg,76,,,,,,0,,,1,,,,,,,,22494,1,3,TRUE,,
travel,73,388970,0.0-27.0-0.0,,,,,,,,,,,"[{""stimulus"":""run_exp/static/images/task_images/rocket-01.jpg"",""time"":0.2899999963119626},{""stimulus"":""run_exp/static/images/task_images/rocket-02.jpg"",""time"":896.1350000463426},{""stimulus"":""run_exp/static/images/task_images/rocket-03.jpg"",""time"":1792.7050000289455},{""stimulus"":""run_exp/static/images/task_images/rocket-04.jpg"",""time"":2686.405000044033},{""stimulus"":""run_exp/static/images/task_images/rocket-05.jpg"",""time"":3582.1299999952316},{""stimulus"":""run_exp/static/images/task_images/rocket-06.jpg"",""time"":4477.745000040159},{""stimulus"":""run_exp/static/images/task_images/rocket-07.jpg"",""time"":5372.590000042692},{""stimulus"":""run_exp/static/images/task_images/rocket-08.jpg"",""time"":6267.460000002757},{""stimulus"":""run_exp/static/images/task_images/rocket-09.jpg"",""time"":7162.10499999579}]",[],1,,,,,,,,,,,,,
alien_welcome,74,393974,0.0-27.0-1.0,,null,run_exp/static/images/task_images/aliens/old_aliens/planet/alien_planet-24.jpg,null,,,,,,,,,,,,24,"65,24,2,71,1,12,50,39,48,61,54,16,53,64,76,70,3,73,31,28,56,19,69,33,18,20,34",,,,,,,,,
land,75,394476,0.0-27.0-2.0,,null,run_exp/static/images/task_images/land.jpg,null,,,,,,101,,,2,,,,,,,,,,,,,
dig,76,396481,0.0-27.0-3.0,,,,,,,,,,,"[{""stimulus"":""run_exp/static/images/task_images/dig.jpg"",""time"":0.39499998092651367},{""stimulus"":""run_exp/static/images/task_images/land.jpg"",""time"":668.5349999461323},{""stimulus"":""run_exp/static/images/task_images/dig.jpg"",""time"":1336.8550000013784}]",[],2,,,,,,,,,,,,,
harvest,77,397484,0.0-27.0-4.0,,null,run_exp/static/images/task_images/gems/101.jpg,null,,,,,,14,,,2,,,,,101,0.140504067,0.138613861,,,,,,
decision,78,398066,0.0-27.0-5.0,,580.03,run_exp/static/images/task_images/land.jpg,65,,,,,,14,,,2,,,,,,,,39653,1,0,FALSE,,
dig,79,400491,0.0-28.0-0.0,,,,,,,,,,,"[{""stimulus"":""run_exp/static/images/task_images/dig.jpg"",""time"":0.27000007685273886},{""stimulus"":""run_exp/static/images/task_images/land.jpg"",""time"":807.7599999960512},{""stimulus"":""run_exp/static/images/task_images/dig.jpg"",""time"":1614.475000067614}]",[],2,,,,,,,,,,,,,
harvest,80,401493,0.0-28.0-1.0,,null,run_exp/static/images/task_images/gems/14.jpg,null,,,,,,3,,,2,,,,,14,0.210974195,0.214285714,,,,,,
decision,81,401794,0.0-28.0-2.0,,298.86,run_exp/static/images/task_images/land.jpg,65,,,,,,3,,,2,,,,,,,,43381,1,1,FALSE,,
dig,82,404501,0.0-29.0-0.0,,,,,,,,,,,"[{""stimulus"":""run_exp/static/images/task_images/dig.jpg"",""time"":0.28000003658235073},{""stimulus"":""run_exp/static/images/task_images/land.jpg"",""time"":901.8950000172481},{""stimulus"":""run_exp/static/images/task_images/dig.jpg"",""time"":1801.534999976866}]",[],2,,,,,,,,,,,,,
harvest,83,405503,0.0-29.0-1.0,,null,run_exp/static/images/task_images/gems/3.jpg,null,,,,,,1,,,2,,,,,3,0.267228369,0.333333333,,,,,,
decision,84,407962,0.0-29.0-2.0,,2456.02,run_exp/static/images/task_images/land.jpg,76,,,,,,1,,,2,,,,,,,,49548,1,2,TRUE,,
travel,85,415512,0.0-30.0-0.0,,,,,,,,,,,"[{""stimulus"":""run_exp/static/images/task_images/rocket-01.jpg"",""time"":0.43000001460313797},{""stimulus"":""run_exp/static/images/task_images/rocket-02.jpg"",""time"":839.8749999469146},{""stimulus"":""run_exp/static/images/task_images/rocket-03.jpg"",""time"":1678.7149999290705},{""stimulus"":""run_exp/static/images/task_images/rocket-04.jpg"",""time"":2516.564999939874},{""stimulus"":""run_exp/static/images/task_images/rocket-05.jpg"",""time"":3353.649999946356},{""stimulus"":""run_exp/static/images/task_images/rocket-06.jpg"",""time"":4193.044999963604},{""stimulus"":""run_exp/static/images/task_images/rocket-07.jpg"",""time"":5029.719999991357},{""stimulus"":""run_exp/static/images/task_images/rocket-08.jpg"",""time"":5868.230000021867},{""stimulus"":""run_exp/static/images/task_images/rocket-09.jpg"",""time"":6706.284999963827}]",[],2,,,,,,,,,,,,,
alien_welcome,86,420516,0.0-30.0-1.0,,null,run_exp/static/images/task_images/aliens/old_aliens/planet/alien_planet-2.jpg,null,,,,,,,,,,,,2,"65,24,2,71,1,12,50,39,48,61,54,16,53,64,76,70,3,73,31,28,56,19,69,33,18,20,34",,,,,,,,,
land,87,421020,0.0-30.0-2.0,,null,run_exp/static/images/task_images/land.jpg,null,,,,,,108,,,3,,,,,,,,,,,,,
dig,88,423024,0.0-30.0-3.0,,,,,,,,,,,"[{""stimulus"":""run_exp/static/images/task_images/dig.jpg"",""time"":0.3600000636652112},{""stimulus"":""run_exp/static/images/task_images/land.jpg"",""time"":669.385000015609},{""stimulus"":""run_exp/static/images/task_images/dig.jpg"",""time"":1336.5500000072643}]",[],3,,,,,,,,,,,,,
harvest,89,424027,0.0-30.0-4.0,,null,run_exp/static/images/task_images/gems/108.jpg,null,,,,,,64,,,3,,,,,108,0.592661602,0.592592593,,,,,,
decision,90,424235,0.0-30.0-5.0,,205.2399999,run_exp/static/images/task_images/land.jpg,65,,,,,,64,,,3,,,,,,,,65821,1,0,FALSE,,
dig,91,427034,0.0-31.0-0.0,,,,,,,,,,,"[{""stimulus"":""run_exp/static/images/task_images/dig.jpg"",""time"":0.2649999223649502},{""stimulus"":""run_exp/static/images/task_images/land.jpg"",""time"":933.6749999783933},{""stimulus"":""run_exp/static/images/task_images/dig.jpg"",""time"":1864.1999999526888}]",[],3,,,,,,,,,,,,,
harvest,92,428038,0.0-31.0-1.0,,null,run_exp/static/images/task_images/gems/64.jpg,null,,,,,,33,,,3,,,,,64,0.508001621,0.515625,,,,,,
decision,93,428722,0.0-31.0-2.0,,682.51,run_exp/static/images/task_images/land.jpg,65,,,,,,33,,,3,,,,,,,,70308,1,1,FALSE,,
dig,94,431046,0.0-32.0-0.0,,,,,,,,,,,"[{""stimulus"":""run_exp/static/images/task_images/dig.jpg"",""time"":0.265000038780272},{""stimulus"":""run_exp/static/images/task_images/land.jpg"",""time"":773.6950000980869},{""stimulus"":""run_exp/static/images/task_images/dig.jpg"",""time"":1546.0949999978766}]",[],3,,,,,,,,,,,,,
harvest,95,432049,0.0-32.0-1.0,,null,run_exp/static/images/task_images/gems/33.jpg,null,,,,,,15,,,3,,,,,33,0.469647009,0.454545455,,,,,,
decision,96,432364,0.0-32.0-2.0,,312.69,run_exp/static/images/task_images/land.jpg,65,,,,,,15,,,3,,,,,,,,73950,1,2,FALSE,,
dig,97,435056,0.0-33.0-0.0,,,,,,,,,,,"[{""stimulus"":""run_exp/static/images/task_images/dig.jpg"",""time"":0.29500003438442945},{""stimulus"":""run_exp/static/images/task_images/land.jpg"",""time"":897.4249999737367},{""stimulus"":""run_exp/static/images/task_images/dig.jpg"",""time"":1792.3050000099465}]",[],3,,,,,,,,,,,,,
harvest,98,436059,0.0-33.0-1.0,,null,run_exp/static/images/task_images/gems/15.jpg,null,,,,,,8,,,3,,,,,15,0.549458591,0.533333333,,,,,,
decision,99,436547,0.0-33.0-2.0,,485.705,run_exp/static/images/task_images/land.jpg,65,,,,,,8,,,3,,,,,,,,78133,1,3,FALSE,,
dig,100,439068,0.0-34.0-0.0,,,,,,,,,,,"[{""stimulus"":""run_exp/static/images/task_images/dig.jpg"",""time"":0.2799999201670289},{""stimulus"":""run_exp/static/images/task_images/land.jpg"",""time"":839.4799999659881},{""stimulus"":""run_exp/static/images/task_images/dig.jpg"",""time"":1677.5549999438226}]",[],3,,,,,,,,,,,,,
harvest,101,440071,0.0-34.0-1.0,,null,run_exp/static/images/task_images/gems/8.jpg,null,,,,,,4,,,3,,,,,8,0.441458813,0.5,,,,,,
decision,102,441550,0.0-34.0-2.0,,1476.52,run_exp/static/images/task_images/land.jpg,65,,,,,,4,,,3,,,,,,,,83136,1,4,FALSE,,
dig,103,443079,0.0-35.0-0.0,,,,,,,,,,,"[{""stimulus"":""run_exp/static/images/task_images/dig.jpg"",""time"":0.2749999985098839},{""stimulus"":""run_exp/static/images/task_images/land.jpg"",""time"":509.3099999940023},{""stimulus"":""run_exp/static/images/task_images/dig.jpg"",""time"":1015.335000003688}]",[],3,,,,,,,,,,,,,
harvest,104,444080,0.0-35.0-1.0,,null,run_exp/static/images/task_images/gems/4.jpg,null,,,,,,2,,,3,,,,,4,0.529499025,0.5,,,,,,
decision,105,444227,0.0-35.0-2.0,,144.89,run_exp/static/images/task_images/land.jpg,76,,,,,,2,,,3,,,,,,,,85813,1,5,TRUE,,
travel,106,454091,0.0-36.0-0.0,,,,,,,,,,,"[{""stimulus"":""run_exp/static/images/task_images/rocket-01.jpg"",""time"":0.28499995823949575},{""stimulus"":""run_exp/static/images/task_images/rocket-02.jpg"",""time"":1097.9649999644607},{""stimulus"":""run_exp/static/images/task_images/rocket-03.jpg"",""time"":2192.174999974668},{""stimulus"":""run_exp/static/images/task_images/rocket-04.jpg"",""time"":3287.4649999430403},{""stimulus"":""run_exp/static/images/task_images/rocket-05.jpg"",""time"":4382.239999948069},{""stimulus"":""run_exp/static/images/task_images/rocket-06.jpg"",""time"":5477.334999945015},{""stimulus"":""run_exp/static/images/task_images/rocket-07.jpg"",""time"":6572.425000020303},{""stimulus"":""run_exp/static/images/task_images/rocket-08.jpg"",""time"":7667.2799999359995},{""stimulus"":""run_exp/static/images/task_images/rocket-09.jpg"",""time"":8762.61999993585}]",[],3,,,,,,,,,,,,,
alien_welcome,107,459094,0.0-36.0-1.0,,null,run_exp/static/images/task_images/aliens/old_aliens/planet/alien_planet-71.jpg,null,,,,,,,,,,,,71,"65,24,2,71,1,12,50,39,48,61,54,16,53,64,76,70,3,73,31,28,56,19,69,33,18,20,34",,,,,,,,,
land,108,459597,0.0-36.0-2.0,,null,run_exp/static/images/task_images/land.jpg,null,,,,,,100,,,4,,,,,,,,,,,,,
dig,109,461601,0.0-36.0-3.0,,,,,,,,,,,"[{""stimulus"":""run_exp/static/images/task_images/dig.jpg"",""time"":0.3350001061335206},{""stimulus"":""run_exp/static/images/task_images/land.jpg"",""time"":669.4850000785664},{""stimulus"":""run_exp/static/images/task_images/dig.jpg"",""time"":1335.6800000183284}]",[],4,,,,,,,,,,,,,
harvest,110,462604,0.0-36.0-4.0,,null,run_exp/static/images/task_images/gems/100.jpg,null,,,,,,49,,,4,,,,,100,0.493665797,0.49,,,,,,
decision,111,463250,0.0-36.0-5.0,,644.565,run_exp/static/images/task_images/land.jpg,65,,,,,,49,,,4,,,,,,,,104836,1,0,FALSE,,
dig,112,465614,0.0-37.0-0.0,,,,,,,,,,,"[{""stimulus"":""run_exp/static/images/task_images/dig.jpg"",""time"":0.3250000299885869},{""stimulus"":""run_exp/static/images/task_images/land.jpg"",""time"":787.8050000872463},{""stimulus"":""run_exp/static/images/task_images/dig.jpg"",""time"":1572.06999999471}]",[],4,,,,,,,,,,,,,
harvest,113,466618,0.0-37.0-1.0,,null,run_exp/static/images/task_images/gems/49.jpg,null,,,,,,22,,,4,,,,,49,0.455545983,0.448979592,,,,,,
decision,114,467186,0.0-37.0-2.0,,563.02,run_exp/static/images/task_images/land.jpg,65,,,,,,22,,,4,,,,,,,,108773,1,1,FALSE,,
dig,115,469630,0.0-38.0-0.0,,,,,,,,,,,"[{""stimulus"":""run_exp/static/images/task_images/dig.jpg"",""time"":0.26999996043741703},{""stimulus"":""run_exp/static/images/task_images/land.jpg"",""time"":814.5399999339134},{""stimulus"":""run_exp/static/images/task_images/dig.jpg"",""time"":1626.010000007227}]",[],4,,,,,,,,,,,,,
harvest,116,470632,0.0-38.0-1.0,,null,run_exp/static/images/task_images/gems/22.jpg,null,,,,,,12,,,4,,,,,22,0.539718484,0.545454545,,,,,,
decision,117,471122,0.0-38.0-2.0,,487.845,run_exp/static/images/task_images/land.jpg,65,,,,,,12,,,4,,,,,,,,112708,1,2,FALSE,,
dig,118,473640,0.0-39.0-0.0,,,,,,,,,,,"[{""stimulus"":""run_exp/static/images/task_images/dig.jpg"",""time"":0.2999999560415745},{""stimulus"":""run_exp/static/images/task_images/land.jpg"",""time"":839.354999945499},{""stimulus"":""run_exp/static/images/task_images/dig.jpg"",""time"":1676.4799999073148}]",[],4,,,,,,,,,,,,,
harvest,119,474641,0.0-39.0-1.0,,null,run_exp/static/images/task_images/gems/12.jpg,null,,,,,,5,,,4,,,,,12,0.453688878,0.416666667,,,,,,
decision,120,475090,0.0-39.0-2.0,,446.8499999,run_exp/static/images/task_images/land.jpg,65,,,,,,5,,,4,,,,,,,,116676,1,3,FALSE,,
dig,121,477650,0.0-40.0-0.0,,,,,,,,,,,"[{""stimulus"":""run_exp/static/images/task_images/dig.jpg"",""time"":0.4499999340623617},{""stimulus"":""run_exp/static/images/task_images/land.jpg"",""time"":852.9149999376386},{""stimulus"":""run_exp/static/images/task_images/dig.jpg"",""time"":1704.7800000291318}]",[],4,,,,,,,,,,,,,
harvest,122,478652,0.0-40.0-1.0,,null,run_exp/static/images/task_images/gems/5.jpg,null,,,,,,2,,,4,,,,,5,0.463288298,0.4,,,,,,
decision,123,479260,0.0-40.0-2.0,,606.665,run_exp/static/images/task_images/land.jpg,76,,,,,,2,,,4,,,,,,,,120846,1,4,TRUE,,
travel,124,488655,0.0-41.0-0.0,,,,,,,,,,,"[{""stimulus"":""run_exp/static/images/task_images/rocket-01.jpg"",""time"":0.3250000299885869},{""stimulus"":""run_exp/static/images/task_images/rocket-02.jpg"",""time"":1045.0549999950454},{""stimulus"":""run_exp/static/images/task_images/rocket-03.jpg"",""time"":2088.9700000407174},{""stimulus"":""run_exp/static/images/task_images/rocket-04.jpg"",""time"":3136.6899999557063},{""stimulus"":""run_exp/static/images/task_images/rocket-05.jpg"",""time"":4179.220000049099},{""stimulus"":""run_exp/static/images/task_images/rocket-06.jpg"",""time"":5217.264999984764},{""stimulus"":""run_exp/static/images/task_images/rocket-07.jpg"",""time"":6262.4599999981},{""stimulus"":""run_exp/static/images/task_images/rocket-08.jpg"",""time"":7304.29500003811},{""stimulus"":""run_exp/static/images/task_images/rocket-09.jpg"",""time"":8346.90500004217}]",[],4,,,,,,,,,,,,,
alien_welcome,125,493658,0.0-41.0-1.0,,null,run_exp/static/images/task_images/aliens/old_aliens/planet/alien_planet-1.jpg,null,,,,,,,,,,,,1,"65,24,2,71,1,12,50,39,48,61,54,16,53,64,76,70,3,73,31,28,56,19,69,33,18,20,34",,,,,,,,,
land,126,494160,0.0-41.0-2.0,,null,run_exp/static/images/task_images/land.jpg,null,,,,,,99,,,5,,,,,,,,,,,,,
dig,127,496165,0.0-41.0-3.0,,,,,,,,,,,"[{""stimulus"":""run_exp/static/images/task_images/dig.jpg"",""time"":0.3700000233948231},{""stimulus"":""run_exp/static/images/task_images/land.jpg"",""time"":669.469999964349},{""stimulus"":""run_exp/static/images/task_images/dig.jpg"",""time"":1335.800000000745}]",[],5,,,,,,,,,,,,,
harvest,128,497166,0.0-41.0-4.0,,null,run_exp/static/images/task_images/gems/99.jpg,null,,,,,,53,,,5,,,,,99,0.537266258,0.535353535,,,,,,
decision,129,497946,0.0-41.0-5.0,,777,run_exp/static/images/task_images/land.jpg,65,,,,,,53,,,5,,,,,,,,139532,1,0,FALSE,,
dig,130,500174,0.0-42.0-0.0,,,,,,,,,,,"[{""stimulus"":""run_exp/static/images/task_images/dig.jpg"",""time"":0.41999993845820427},{""stimulus"":""run_exp/static/images/task_images/land.jpg"",""time"":742.8999999538064},{""stimulus"":""run_exp/static/images/task_images/dig.jpg"",""time"":1481.7299999995157}]",[],5,,,,,,,,,,,,,
harvest,131,501176,0.0-42.0-1.0,,null,run_exp/static/images/task_images/gems/53.jpg,null,,,,,,24,,,5,,,,,53,0.451826472,0.452830189,,,,,,
decision,132,501729,0.0-42.0-2.0,,550.71,run_exp/static/images/task_images/land.jpg,65,,,,,,24,,,5,,,,,,,,143315,1,1,FALSE,,
dig,133,504184,0.0-43.0-0.0,,,,,,,,,,,"[{""stimulus"":""run_exp/static/images/task_images/dig.jpg"",""time"":0.28000003658235073},{""stimulus"":""run_exp/static/images/task_images/land.jpg"",""time"":817.4750000471249},{""stimulus"":""run_exp/static/images/task_images/dig.jpg"",""time"":1634.76000004448}]",[],5,,,,,,,,,,,,,
harvest,134,505187,0.0-43.0-1.0,,null,run_exp/static/images/task_images/gems/24.jpg,null,,,,,,11,,,5,,,,,24,0.465870585,0.458333333,,,,,,
decision,135,505762,0.0-43.0-2.0,,573.89,run_exp/static/images/task_images/land.jpg,65,,,,,,11,,,5,,,,,,,,147348,1,2,FALSE,,
dig,136,508192,0.0-44.0-0.0,,,,,,,,,,,"[{""stimulus"":""run_exp/static/images/task_images/dig.jpg"",""time"":0.23499992676079273},{""stimulus"":""run_exp/static/images/task_images/land.jpg"",""time"":809.6349999541417},{""stimulus"":""run_exp/static/images/task_images/dig.jpg"",""time"":1617.4499999033287}]",[],5,,,,,,,,,,,,,
harvest,137,509195,0.0-44.0-1.0,,null,run_exp/static/images/task_images/gems/11.jpg,null,,,,,,5,,,5,,,,,11,0.496663173,0.454545455,,,,,,
decision,138,509650,0.0-44.0-2.0,,454.12,run_exp/static/images/task_images/land.jpg,65,,,,,,5,,,5,,,,,,,,151236,1,3,FALSE,,
dig,139,512205,0.0-45.0-0.0,,,,,,,,,,,"[{""stimulus"":""run_exp/static/images/task_images/dig.jpg"",""time"":0.20999996922910213},{""stimulus"":""run_exp/static/images/task_images/land.jpg"",""time"":849.9849999789149},{""stimulus"":""run_exp/static/images/task_images/dig.jpg"",""time"":1697.0300000393763}]",[],5,,,,,,,,,,,,,
harvest,140,513207,0.0-45.0-1.0,,null,run_exp/static/images/task_images/gems/5.jpg,null,,,,,,2,,,5,,,,,5,0.478156125,0.4,,,,,,
decision,141,514113,0.0-45.0-2.0,,904.8100001,run_exp/static/images/task_images/land.jpg,76,,,,,,2,,,5,,,,,,,,155699,1,4,TRUE,,
travel,142,523209,0.0-46.0-0.0,,,,,,,,,,,"[{""stimulus"":""run_exp/static/images/task_images/rocket-01.jpg"",""time"":0.25500007905066013},{""stimulus"":""run_exp/static/images/task_images/rocket-02.jpg"",""time"":1012.6000000163913},{""stimulus"":""run_exp/static/images/task_images/rocket-03.jpg"",""time"":2021.0950000910088},{""stimulus"":""run_exp/static/images/task_images/rocket-04.jpg"",""time"":3032.020000042394},{""stimulus"":""run_exp/static/images/task_images/rocket-05.jpg"",""time"":4041.9950000941753},{""stimulus"":""run_exp/static/images/task_images/rocket-06.jpg"",""time"":5052.810000022873},{""stimulus"":""run_exp/static/images/task_images/rocket-07.jpg"",""time"":6061.195000074804},{""stimulus"":""run_exp/static/images/task_images/rocket-08.jpg"",""time"":7071.884999983013},{""stimulus"":""run_exp/static/images/task_images/rocket-09.jpg"",""time"":8082.875000080094}]",[],5,,,,,,,,,,,,,
alien_welcome,143,528213,0.0-46.0-1.0,,null,run_exp/static/images/task_images/aliens/old_aliens/planet/alien_planet-12.jpg,null,,,,,,,,,,,,12,"65,24,2,71,1,12,50,39,48,61,54,16,53,64,76,70,3,73,31,28,56,19,69,33,18,20,34",,,,,,,,,
land,144,528716,0.0-46.0-2.0,,null,run_exp/static/images/task_images/land.jpg,null,,,,,,102,,,6,,,,,,,,,,,,,
dig,145,530721,0.0-46.0-3.0,,,,,,,,,,,"[{""stimulus"":""run_exp/static/images/task_images/dig.jpg"",""time"":0.39000005926936865},{""stimulus"":""run_exp/static/images/task_images/land.jpg"",""time"":668.610000051558},{""stimulus"":""run_exp/static/images/task_images/dig.jpg"",""time"":1335.8299999963492}]",[],6,,,,,,,,,,,,,
harvest,146,531723,0.0-46.0-4.0,,null,run_exp/static/images/task_images/gems/102.jpg,null,,,,,,84,,,6,,,,,102,0.82418524,0.823529412,,,,,,
decision,147,531873,0.0-46.0-5.0,,148.63,run_exp/static/images/task_images/land.jpg,65,,,,,,84,,,6,,,,,,,,173459,1,0,FALSE,,
dig,148,534731,0.0-47.0-0.0,,,,,,,,,,,"[{""stimulus"":""run_exp/static/images/task_images/dig.jpg"",""time"":0.28000003658235073},{""stimulus"":""run_exp/static/images/task_images/land.jpg"",""time"":952.930000028573},{""stimulus"":""run_exp/static/images/task_images/dig.jpg"",""time"":1901.7100000055507}]",[],6,,,,,,,,,,,,,
harvest,149,535736,0.0-47.0-1.0,,null,run_exp/static/images/task_images/gems/84.jpg,null,,,,,,69,,,6,,,,,84,0.820413439,0.821428571,,,,,,
decision,150,535921,0.0-47.0-2.0,,182.685,run_exp/static/images/task_images/land.jpg,65,,,,,,69,,,6,,,,,,,,177507,1,1,FALSE,,
dig,151,538742,0.0-48.0-0.0,,,,,,,,,,,"[{""stimulus"":""run_exp/static/images/task_images/dig.jpg"",""time"":0.22499996703118086},{""stimulus"":""run_exp/static/images/task_images/land.jpg"",""time"":939.9699999485165},{""stimulus"":""run_exp/static/images/task_images/dig.jpg"",""time"":1879.700000048615}]",[],6,,,,,,,,,,,,,
harvest,152,539744,0.0-48.0-1.0,,null,run_exp/static/images/task_images/gems/69.jpg,null,,,,,,56,,,6,,,,,69,0.804851097,0.811594203,,,,,,
decision,153,539772,0.0-48.0-2.0,,26.29999991,run_exp/static/images/task_images/land.jpg,65,,,,,,56,,,6,,,,,,,,181358,1,2,FALSE,,
dig,154,542753,0.0-49.0-0.0,,,,,,,,,,,"[{""stimulus"":""run_exp/static/images/task_images/dig.jpg"",""time"":0.1949999714270234},{""stimulus"":""run_exp/static/images/task_images/land.jpg"",""time"":993.1050000013784},{""stimulus"":""run_exp/static/images/task_images/dig.jpg"",""time"":1983.1799999810755}]",[],6,,,,,,,,,,,,,
harvest,155,543758,0.0-49.0-1.0,,null,run_exp/static/images/task_images/gems/56.jpg,null,,,,,,46,,,6,,,,,56,0.814177493,0.821428571,,,,,,
decision,156,543817,0.0-49.0-2.0,,56.34500005,run_exp/static/images/task_images/land.jpg,65,,,,,,46,,,6,,,,,,,,185403,1,3,FALSE,,
dig,157,546765,0.0-50.0-0.0,,,,,,,,,,,"[{""stimulus"":""run_exp/static/images/task_images/dig.jpg"",""time"":0.21500000730156898},{""stimulus"":""run_exp/static/images/task_images/land.jpg"",""time"":983.4000000264496},{""stimulus"":""run_exp/static/images/task_images/dig.jpg"",""time"":1964.3899999791756}]",[],6,,,,,,,,,,,,,
harvest,158,547767,0.0-50.0-1.0,,null,run_exp/static/images/task_images/gems/46.jpg,null,,,,,,31,,,6,,,,,46,0.675212694,0.673913043,,,,,,
decision,159,548257,0.0-50.0-2.0,,487.3950001,run_exp/static/images/task_images/land.jpg,65,,,,,,31,,,6,,,,,,,,189843,1,4,FALSE,,
dig,160,550773,0.0-51.0-0.0,,,,,,,,,,,"[{""stimulus"":""run_exp/static/images/task_images/dig.jpg"",""time"":0.2300000051036477},{""stimulus"":""run_exp/static/images/task_images/land.jpg"",""time"":839.0250001102686},{""stimulus"":""run_exp/static/images/task_images/dig.jpg"",""time"":1676.5800000866875}]",[],6,,,,,,,,,,,,,
harvest,161,551775,0.0-51.0-1.0,,null,run_exp/static/images/task_images/gems/31.jpg,null,,,,,,26,,,6,,,,,31,0.825382927,0.838709677,,,,,,
decision,162,551850,0.0-51.0-2.0,,72.19500002,run_exp/static/images/task_images/land.jpg,65,,,,,,26,,,6,,,,,,,,193436,1,5,FALSE,,
dig,163,554785,0.0-52.0-0.0,,,,,,,,,,,"[{""stimulus"":""run_exp/static/images/task_images/dig.jpg"",""time"":0.22499996703118086},{""stimulus"":""run_exp/static/images/task_images/land.jpg"",""time"":977.9550000093877},{""stimulus"":""run_exp/static/images/task_images/dig.jpg"",""time"":1952.9299999121577}]",[],6,,,,,,,,,,,,,
harvest,164,555787,0.0-52.0-1.0,,null,run_exp/static/images/task_images/gems/26.jpg,null,,,,,,21,,,6,,,,,26,0.81695434,0.807692308,,,,,,
decision,165,555865,0.0-52.0-2.0,,75.725,run_exp/static/images/task_images/land.jpg,65,,,,,,21,,,6,,,,,,,,197451,1,6,FALSE,,
dig,166,558794,0.0-53.0-0.0,,,,,,,,,,,"[{""stimulus"":""run_exp/static/images/task_images/dig.jpg"",""time"":0.1799999736249447},{""stimulus"":""run_exp/static/images/task_images/land.jpg"",""time"":975.830000010319},{""stimulus"":""run_exp/static/images/task_images/dig.jpg"",""time"":1953.899999964051}]",[],6,,,,,,,,,,,,,
harvest,167,559797,0.0-53.0-1.0,,null,run_exp/static/images/task_images/gems/21.jpg,null,,,,,,16,,,6,,,,,21,0.755501911,0.761904762,,,,,,
decision,168,562800,0.0-53.0-2.0,,null,run_exp/static/images/task_images/land.jpg,null,,,,,,16,,,6,,,,,,,,204386,1,7,FALSE,,
time_out,169,564807,0.0-54.0-0.0,,null,run_exp/static/images/task_images/time_out.jpg,null,,,,,,16,,,,,,,,,,,,,,,,
decision,170,566218,0.0-54.0-1.0,,1408.455,run_exp/static/images/task_images/land.jpg,65,,,,,,16,,,6,,,,,,,,207804,1,7,FALSE,,
dig,171,567817,0.0-55.0-0.0,,,,,,,,,,,"[{""stimulus"":""run_exp/static/images/task_images/dig.jpg"",""time"":0.31999999191612005},{""stimulus"":""run_exp/static/images/task_images/land.jpg"",""time"":531.7100000102073},{""stimulus"":""run_exp/static/images/task_images/dig.jpg"",""time"":1062.7999999560416}]",[],6,,,,,,,,,,,,,
harvest,172,568819,0.0-55.0-1.0,,null,run_exp/static/images/task_images/gems/16.jpg,null,,,,,,13,,,6,,,,,16,0.798670984,0.8125,,,,,,
decision,173,569233,0.0-55.0-2.0,,412.2400001,run_exp/static/images/task_images/land.jpg,65,,,,,,13,,,6,,,,,,,,210819,1,8,FALSE,,
dig,174,571837,0.0-56.0-0.0,,,,,,,,,,,"[{""stimulus"":""run_exp/static/images/task_images/dig.jpg"",""time"":0.2749999985098839},{""stimulus"":""run_exp/static/images/task_images/land.jpg"",""time"":863.1749999476597},{""stimulus"":""run_exp/static/images/task_images/dig.jpg"",""time"":1727.2050000028685}]",[],6,,,,,,,,,,,,,
harvest,175,572840,0.0-56.0-1.0,,null,run_exp/static/images/task_images/gems/13.jpg,null,,,,,,10,,,6,,,,,13,0.763054451,0.769230769,,,,,,
decision,176,573433,0.0-56.0-2.0,,590.2300001,run_exp/static/images/task_images/land.jpg,65,,,,,,10,,,6,,,,,,,,215020,1,9,FALSE,,
dig,177,575851,0.0-57.0-0.0,,,,,,,,,,,"[{""stimulus"":""run_exp/static/images/task_images/dig.jpg"",""time"":0.28000003658235073},{""stimulus"":""run_exp/static/images/task_images/land.jpg"",""time"":807.8950000926852},{""stimulus"":""run_exp/static/images/task_images/dig.jpg"",""time"":1607.5800000689924}]",[],6,,,,,,,,,,,,,
harvest,178,576854,0.0-57.0-1.0,,null,run_exp/static/images/task_images/gems/10.jpg,null,,,,,,8,,,6,,,,,10,0.845164645,0.8,,,,,,
decision,179,577337,0.0-57.0-2.0,,481.1399999,run_exp/static/images/task_images/land.jpg,65,,,,,,8,,,6,,,,,,,,218923,1,10,FALSE,,
dig,180,579862,0.0-58.0-0.0,,,,,,,,,,,"[{""stimulus"":""run_exp/static/images/task_images/dig.jpg"",""time"":0.28499995823949575},{""stimulus"":""run_exp/static/images/task_images/land.jpg"",""time"":840.7850000075996},{""stimulus"":""run_exp/static/images/task_images/dig.jpg"",""time"":1679.1550000198185}]",[],6,,,,,,,,,,,,,
harvest,181,580865,0.0-58.0-1.0,,null,run_exp/static/images/task_images/gems/8.jpg,null,,,,,,6,,,6,,,,,8,0.7662592,0.75,,,,,,
decision,182,583521,0.0-58.0-2.0,,2651.895,run_exp/static/images/task_images/land.jpg,76,,,,,,6,,,6,,,,,,,,225107,1,11,TRUE,,
travel,183,590874,0.0-59.0-0.0,,,,,,,,,,,"[{""stimulus"":""run_exp/static/images/task_images/rocket-01.jpg"",""time"":0.31999999191612005},{""stimulus"":""run_exp/static/images/task_images/rocket-02.jpg"",""time"":817.7049999358132},{""stimulus"":""run_exp/static/images/task_images/rocket-03.jpg"",""time"":1633.6049999808893},{""stimulus"":""run_exp/static/images/task_images/rocket-04.jpg"",""time"":2450.0549999065697},{""stimulus"":""run_exp/static/images/task_images/rocket-05.jpg"",""time"":3266.4249999215826},{""stimulus"":""run_exp/static/images/task_images/rocket-06.jpg"",""time"":4082.4249999132007},{""stimulus"":""run_exp/static/images/task_images/rocket-07.jpg"",""time"":4897.829999914393},{""stimulus"":""run_exp/static/images/task_images/rocket-08.jpg"",""time"":5714.41999997478},{""stimulus"":""run_exp/static/images/task_images/rocket-09.jpg"",""time"":6530.279999948107}]",[],6,,,,,,,,,,,,,
alien_welcome,184,595878,0.0-59.0-1.0,,null,run_exp/static/images/task_images/aliens/old_aliens/planet/alien_planet-50.jpg,null,,,,,,,,,,,,50,"65,24,2,71,1,12,50,39,48,61,54,16,53,64,76,70,3,73,31,28,56,19,69,33,18,20,34",,,,,,,,,
land,185,596381,0.0-59.0-2.0,,null,run_exp/static/images/task_images/land.jpg,null,,,,,,93,,,7,,,,,,,,,,,,,
dig,186,598386,0.0-59.0-3.0,,,,,,,,,,,"[{""stimulus"":""run_exp/static/images/task_images/dig.jpg"",""time"":0.3299999516457319},{""stimulus"":""run_exp/static/images/task_images/land.jpg"",""time"":669.1550000105053},{""stimulus"":""run_exp/static/images/task_images/dig.jpg"",""time"":1335.4449999751523}]",[],7,,,,,,,,,,,,,
harvest,187,599389,0.0-59.0-4.0,,null,run_exp/static/images/task_images/gems/93.jpg,null,,,,,,73,,,7,,,,,93,0.788279802,0.784946237,,,,,,
decision,188,599881,0.0-59.0-5.0,,489.985,run_exp/static/images/task_images/land.jpg,65,,,,,,73,,,7,,,,,,,,241467,1,0,FALSE,,
dig,189,602397,0.0-60.0-0.0,,,,,,,,,,,"[{""stimulus"":""run_exp/static/images/task_images/dig.jpg"",""time"":0.30999991577118635},{""stimulus"":""run_exp/static/images/task_images/land.jpg"",""time"":837.8050000173971},{""stimulus"":""run_exp/static/images/task_images/dig.jpg"",""time"":1673.4050000086427}]",[],7,,,,,,,,,,,,,
harvest,190,603400,0.0-60.0-1.0,,null,run_exp/static/images/task_images/gems/73.jpg,null,,,,,,59,,,7,,,,,73,0.809495977,0.808219178,,,,,,
decision,191,603633,0.0-60.0-2.0,,230.17,run_exp/static/images/task_images/land.jpg,65,,,,,,59,,,7,,,,,,,,245219,1,1,FALSE,,
dig,192,606410,0.0-61.0-0.0,,,,,,,,,,,"[{""stimulus"":""run_exp/static/images/task_images/dig.jpg"",""time"":0.29500003438442945},{""stimulus"":""run_exp/static/images/task_images/land.jpg"",""time"":924.970000050962},{""stimulus"":""run_exp/static/images/task_images/dig.jpg"",""time"":1848.850000067614}]",[],7,,,,,,,,,,,,,
harvest,193,607413,0.0-61.0-1.0,,null,run_exp/static/images/task_images/gems/59.jpg,null,,,,,,45,,,7,,,,,59,0.765853941,0.762711864,,,,,,
decision,194,608042,0.0-61.0-2.0,,627.0949999,run_exp/static/images/task_images/land.jpg,65,,,,,,45,,,7,,,,,,,,249628,1,2,FALSE,,
dig,195,610420,0.0-62.0-0.0,,,,,,,,,,,"[{""stimulus"":""run_exp/static/images/task_images/dig.jpg"",""time"":0.6300000241026282},{""stimulus"":""run_exp/static/images/task_images/land.jpg"",""time"":793.6550000449643},{""stimulus"":""run_exp/static/images/task_images/dig.jpg"",""time"":1582.605000003241}]",[],7,,,,,,,,,,,,,
harvest,196,611423,0.0-62.0-1.0,,null,run_exp/static/images/task_images/gems/45.jpg,null,,,,,,37,,,7,,,,,45,0.815753193,0.822222222,,,,,,
decision,197,611897,0.0-62.0-2.0,,471.945,run_exp/static/images/task_images/land.jpg,65,,,,,,37,,,7,,,,,,,,253483,1,3,FALSE,,
dig,198,614430,0.0-63.0-0.0,,,,,,,,,,,"[{""stimulus"":""run_exp/static/images/task_images/dig.jpg"",""time"":0.2549999626353383},{""stimulus"":""run_exp/static/images/task_images/land.jpg"",""time"":843.7200000043958},{""stimulus"":""run_exp/static/images/task_images/dig.jpg"",""time"":1686.7649999912828}]",[],7,,,,,,,,,,,,,
harvest,199,615438,0.0-63.0-1.0,,null,run_exp/static/images/task_images/gems/37.jpg,null,,,,,,29,,,7,,,,,37,0.774546881,0.783783784,,,,,,
decision,200,615937,0.0-63.0-2.0,,496.085,run_exp/static/images/task_images/land.jpg,65,,,,,,29,,,7,,,,,,,,257523,1,4,FALSE,,
dig,201,618446,0.0-64.0-0.0,,,,,,,,,,,"[{""stimulus"":""run_exp/static/images/task_images/dig.jpg"",""time"":0.2850000746548176},{""stimulus"":""run_exp/static/images/task_images/land.jpg"",""time"":835.8899999875575},{""stimulus"":""run_exp/static/images/task_images/dig.jpg"",""time"":1669.425000087358}]",[],7,,,,,,,,,,,,,
harvest,202,619449,0.0-64.0-1.0,,null,run_exp/static/images/task_images/gems/29.jpg,null,,,,,,23,,,7,,,,,29,0.777842788,0.793103448,,,,,,
decision,203,622453,0.0-64.0-2.0,,null,run_exp/static/images/task_images/land.jpg,null,,,,,,23,,,7,,,,,,,,264039,1,5,FALSE,,
time_out,204,624460,0.0-65.0-0.0,,null,run_exp/static/images/task_images/time_out.jpg,null,,,,,,23,,,,,,,,,,,,,,,,
decision,205,625209,0.0-65.0-1.0,,747.0100001,run_exp/static/images/task_images/land.jpg,65,,,,,,23,,,7,,,,,,,,266795,1,5,FALSE,,
dig,206,627467,0.0-66.0-0.0,,,,,,,,,,,"[{""stimulus"":""run_exp/static/images/task_images/dig.jpg"",""time"":0.28000003658235073},{""stimulus"":""run_exp/static/images/task_images/land.jpg"",""time"":751.2300000526011},{""stimulus"":""run_exp/static/images/task_images/dig.jpg"",""time"":1502.1249999990687}]",[],7,,,,,,,,,,,,,
harvest,207,628469,0.0-66.0-1.0,,null,run_exp/static/images/task_images/gems/23.jpg,null,,,,,,20,,,7,,,,,23,0.875818514,0.869565217,,,,,,
decision,208,628618,0.0-66.0-2.0,,146.5649999,run_exp/static/images/task_images/land.jpg,65,,,,,,20,,,7,,,,,,,,270205,1,6,FALSE,,
dig,209,631480,0.0-67.0-0.0,,,,,,,,,,,"[{""stimulus"":""run_exp/static/images/task_images/dig.jpg"",""time"":0.26000000070780516},{""stimulus"":""run_exp/static/images/task_images/land.jpg"",""time"":954.0950000518933},{""stimulus"":""run_exp/static/images/task_images/dig.jpg"",""time"":1904.0050000185147}]",[],7,,,,,,,,,,,,,
harvest,210,632482,0.0-67.0-1.0,,null,run_exp/static/images/task_images/gems/20.jpg,null,,,,,,16,,,7,,,,,20,0.807174485,0.8,,,,,,
decision,211,632634,0.0-67.0-2.0,,149.36,run_exp/static/images/task_images/land.jpg,65,,,,,,16,,,7,,,,,,,,274220,1,7,FALSE,,
dig,212,635492,0.0-68.0-0.0,,,,,,,,,,,"[{""stimulus"":""run_exp/static/images/task_images/dig.jpg"",""time"":0.26999996043741703},{""stimulus"":""run_exp/static/images/task_images/land.jpg"",""time"":953.1449999194592},{""stimulus"":""run_exp/static/images/task_images/dig.jpg"",""time"":1901.8649999052286}]",[],7,,,,,,,,,,,,,
harvest,213,636494,0.0-68.0-1.0,,null,run_exp/static/images/task_images/gems/16.jpg,null,,,,,,11,,,7,,,,,16,0.705101048,0.6875,,,,,,
decision,214,636929,0.0-68.0-2.0,,431.7950001,run_exp/static/images/task_images/land.jpg,65,,,,,,11,,,7,,,,,,,,278515,1,8,FALSE,,
dig,215,639505,0.0-69.0-0.0,,,,,,,,,,,"[{""stimulus"":""run_exp/static/images/task_images/dig.jpg"",""time"":0.2799999201670289},{""stimulus"":""run_exp/static/images/task_images/land.jpg"",""time"":858.0199999269098},{""stimulus"":""run_exp/static/images/task_images/dig.jpg"",""time"":1713.7849999126047}]",[],7,,,,,,,,,,,,,
harvest,216,640509,0.0-69.0-1.0,,null,run_exp/static/images/task_images/gems/11.jpg,null,,,,,,9,,,7,,,,,11,0.788665086,0.818181818,,,,,,
decision,217,641090,0.0-69.0-2.0,,578.9150001,run_exp/static/images/task_images/land.jpg,65,,,,,,9,,,7,,,,,,,,282676,1,9,FALSE,,
dig,218,643519,0.0-70.0-0.0,,,,,,,,,,,"[{""stimulus"":""run_exp/static/images/task_images/dig.jpg"",""time"":0.31999999191612005},{""stimulus"":""run_exp/static/images/task_images/land.jpg"",""time"":808.9250000193715},{""stimulus"":""run_exp/static/images/task_images/dig.jpg"",""time"":1616.024999995716}]",[],7,,,,,,,,,,,,,
harvest,219,644521,0.0-70.0-1.0,,null,run_exp/static/images/task_images/gems/9.jpg,null,,,,,,8,,,7,,,,,9,0.845857476,0.888888889,,,,,,
decision,220,645017,0.0-70.0-2.0,,493.3399999,run_exp/static/images/task_images/land.jpg,65,,,,,,8,,,7,,,,,,,,286603,1,10,FALSE,,
dig,221,647529,0.0-71.0-0.0,,,,,,,,,,,"[{""stimulus"":""run_exp/static/images/task_images/dig.jpg"",""time"":0.25500007905066013},{""stimulus"":""run_exp/static/images/task_images/land.jpg"",""time"":837.305000051856},{""stimulus"":""run_exp/static/images/task_images/dig.jpg"",""time"":1673.285000026226}]",[],7,,,,,,,,,,,,,
harvest,222,648534,0.0-71.0-1.0,,null,run_exp/static/images/task_images/gems/8.jpg,null,,,,,,6,,,7,,,,,8,0.761323354,0.75,,,,,,
decision,223,648945,0.0-71.0-2.0,,407.1599999,run_exp/static/images/task_images/land.jpg,65,,,,,,6,,,7,,,,,,,,290531,1,11,FALSE,,
dig,224,651544,0.0-72.0-0.0,,,,,,,,,,,"[{""stimulus"":""run_exp/static/images/task_images/dig.jpg"",""time"":0.265000038780272},{""stimulus"":""run_exp/static/images/task_images/land.jpg"",""time"":865.5049999943003},{""stimulus"":""run_exp/static/images/task_images/dig.jpg"",""time"":1729.5750000048429}]",[],7,,,,,,,,,,,,,
harvest,225,652547,0.0-72.0-1.0,,null,run_exp/static/images/task_images/gems/6.jpg,null,,,,,,5,,,7,,,,,6,0.850553779,0.833333333,,,,,,
decision,226,652994,0.0-72.0-2.0,,445.115,run_exp/static/images/task_images/land.jpg,76,,,,,,5,,,7,,,,,,,,294580,1,12,TRUE,,
travel,227,662550,0.0-73.0-0.0,,,,,,,,,,,"[{""stimulus"":""run_exp/static/images/task_images/rocket-01.jpg"",""time"":0.2749999985098839},{""stimulus"":""run_exp/static/images/task_images/rocket-02.jpg"",""time"":1062.6349999802187},{""stimulus"":""run_exp/static/images/task_images/rocket-03.jpg"",""time"":2123.9800000330433},{""stimulus"":""run_exp/static/images/task_images/rocket-04.jpg"",""time"":3185.2700000163168},{""stimulus"":""run_exp/static/images/task_images/rocket-05.jpg"",""time"":4246.434999979101},{""stimulus"":""run_exp/static/images/task_images/rocket-06.jpg"",""time"":5307.6250000158325},{""stimulus"":""run_exp/static/images/task_images/rocket-07.jpg"",""time"":6368.430000031367},{""stimulus"":""run_exp/static/images/task_images/rocket-08.jpg"",""time"":7428.970000008121},{""stimulus"":""run_exp/static/images/task_images/rocket-09.jpg"",""time"":8490.374999935739}]",[],7,,,,,,,,,,,,,
alien_welcome,228,667554,0.0-73.0-1.0,,null,run_exp/static/images/task_images/aliens/old_aliens/planet/alien_planet-39.jpg,null,,,,,,,,,,,,39,"65,24,2,71,1,12,50,39,48,61,54,16,53,64,76,70,3,73,31,28,56,19,69,33,18,20,34",,,,,,,,,
land,229,668056,0.0-73.0-2.0,,null,run_exp/static/images/task_images/land.jpg,null,,,,,,102,,,8,,,,,,,,,,,,,
dig,230,670061,0.0-73.0-3.0,,,,,,,,,,,"[{""stimulus"":""run_exp/static/images/task_images/dig.jpg"",""time"":0.3600000636652112},{""stimulus"":""run_exp/static/images/task_images/land.jpg"",""time"":669.6099999826401},{""stimulus"":""run_exp/static/images/task_images/dig.jpg"",""time"":1336.6050000768155}]",[],8,,,,,,,,,,,,,
harvest,231,671063,0.0-73.0-4.0,,null,run_exp/static/images/task_images/gems/102.jpg,null,,,,,,80,,,8,,,,,102,0.784925394,0.784313725,,,,,,
decision,232,671607,0.0-73.0-5.0,,541.665,run_exp/static/images/task_images/land.jpg,65,,,,,,80,,,8,,,,,,,,313194,1,0,TRUE,,
end_of_block_continue,233,680486,0.0-74.0-0.0,,null,run_exp/static/audio/clip_32_block_end.m4a,,,,,,null,,,,,,,,,,,,,,,,,
alien_welcome,234,685496,0.0-75.0-0.0,,null,run_exp/static/images/task_images/aliens/old_aliens/planet/alien_planet-48.jpg,null,,,,,,,,,,,,48,"65,24,2,71,1,12,50,39,48,61,54,16,53,64,76,70,3,73,31,28,56,19,69,33,18,20,34",,,,,,,,,
land,235,685998,0.0-75.0-1.0,,null,run_exp/static/images/task_images/land.jpg,null,,,,,,99,,,9,,,,,,,,,,,,,
dig,236,688004,0.0-75.0-2.0,,,,,,,,,,,"[{""stimulus"":""run_exp/static/images/task_images/dig.jpg"",""time"":0.43000001460313797},{""stimulus"":""run_exp/static/images/task_images/land.jpg"",""time"":668.6550000449643},{""stimulus"":""run_exp/static/images/task_images/dig.jpg"",""time"":1335.8050000388175}]",[],9,,,,,,,,,,,,,
harvest,237,689009,0.0-75.0-3.0,,null,run_exp/static/images/task_images/gems/99.jpg,null,,,,,,23,,,9,,,,,99,0.234979427,0.232323232,,,,,,
decision,238,689688,0.0-75.0-4.0,,676.11,run_exp/static/images/task_images/land.jpg,65,,,,,,23,,,9,,,,,,,,9195,2,0,FALSE,,
dig,239,692018,0.0-76.0-0.0,,,,,,,,,,,"[{""stimulus"":""run_exp/static/images/task_images/dig.jpg"",""time"":0.28000003658235073},{""stimulus"":""run_exp/static/images/task_images/land.jpg"",""time"":777.2300000069663},{""stimulus"":""run_exp/static/images/task_images/dig.jpg"",""time"":1550.2100000157952}]",[],9,,,,,,,,,,,,,
harvest,240,693020,0.0-76.0-1.0,,null,run_exp/static/images/task_images/gems/23.jpg,null,,,,,,5,,,9,,,,,23,0.212619392,0.217391304,,,,,,
decision,241,693177,0.0-76.0-2.0,,154.415,run_exp/static/images/task_images/land.jpg,65,,,,,,5,,,9,,,,,,,,12684,2,1,FALSE,,
dig,242,696030,0.0-77.0-0.0,,,,,,,,,,,"[{""stimulus"":""run_exp/static/images/task_images/dig.jpg"",""time"":0.5200000014156103},{""stimulus"":""run_exp/static/images/task_images/land.jpg"",""time"":951.2200000463054},{""stimulus"":""run_exp/static/images/task_images/dig.jpg"",""time"":1898.4150000615045}]",[],9,,,,,,,,,,,,,
harvest,243,697032,0.0-77.0-1.0,,null,run_exp/static/images/task_images/gems/5.jpg,null,,,,,,1,,,9,,,,,5,0.13697813,0.2,,,,,,
decision,244,697712,0.0-77.0-2.0,,677.62,run_exp/static/images/task_images/land.jpg,65,,,,,,1,,,9,,,,,,,,17219,2,2,FALSE,,
dig,245,700043,0.0-78.0-0.0,,,,,,,,,,,"[{""stimulus"":""run_exp/static/images/task_images/dig.jpg"",""time"":0.2749999985098839},{""stimulus"":""run_exp/static/images/task_images/land.jpg"",""time"":775.2950000576675},{""stimulus"":""run_exp/static/images/task_images/dig.jpg"",""time"":1549.2150000063702}]",[],9,,,,,,,,,,,,,
harvest,246,701044,0.0-78.0-1.0,,null,run_exp/static/images/task_images/gems/1.jpg,null,,,,,,0,,,9,,,,,1,0.190679943,0,,,,,,
decision,247,701984,0.0-78.0-2.0,,937.13,run_exp/static/images/task_images/land.jpg,76,,,,,,0,,,9,,,,,,,,21491,2,3,TRUE,,
travel,248,711046,0.0-79.0-0.0,,,,,,,,,,,"[{""stimulus"":""run_exp/static/images/task_images/rocket-01.jpg"",""time"":0.2749999985098839},{""stimulus"":""run_exp/static/images/task_images/rocket-02.jpg"",""time"":1007.6800000388175},{""stimulus"":""run_exp/static/images/task_images/rocket-03.jpg"",""time"":2014.614999992773},{""stimulus"":""run_exp/static/images/task_images/rocket-04.jpg"",""time"":3019.8850000742823},{""stimulus"":""run_exp/static/images/task_images/rocket-05.jpg"",""time"":4026.064999983646},{""stimulus"":""run_exp/static/images/task_images/rocket-06.jpg"",""time"":5033.114999998361},{""stimulus"":""run_exp/static/images/task_images/rocket-07.jpg"",""time"":6037.905000033788},{""stimulus"":""run_exp/static/images/task_images/rocket-08.jpg"",""time"":7044.80000003241},{""stimulus"":""run_exp/static/images/task_images/rocket-09.jpg"",""time"":8049.495000042953}]",[],9,,,,,,,,,,,,,
alien_welcome,249,716050,0.0-79.0-1.0,,null,run_exp/static/images/task_images/aliens/old_aliens/planet/alien_planet-61.jpg,null,,,,,,,,,,,,61,"65,24,2,71,1,12,50,39,48,61,54,16,53,64,76,70,3,73,31,28,56,19,69,33,18,20,34",,,,,,,,,
land,250,716552,0.0-79.0-2.0,,null,run_exp/static/images/task_images/land.jpg,null,,,,,,102,,,10,,,,,,,,,,,,,
dig,251,718558,0.0-79.0-3.0,,,,,,,,,,,"[{""stimulus"":""run_exp/static/images/task_images/dig.jpg"",""time"":0.37999998312443495},{""stimulus"":""run_exp/static/images/task_images/land.jpg"",""time"":669.3450000602752},{""stimulus"":""run_exp/static/images/task_images/dig.jpg"",""time"":1336.2200000556186}]",[],10,,,,,,,,,,,,,
harvest,252,719561,0.0-79.0-4.0,,null,run_exp/static/images/task_images/gems/102.jpg,null,,,,,,17,,,10,,,,,102,0.16911118,0.166666667,,,,,,
decision,253,720311,0.0-79.0-5.0,,747.9950001,run_exp/static/images/task_images/land.jpg,65,,,,,,17,,,10,,,,,,,,39818,2,0,FALSE,,
dig,254,722570,0.0-80.0-0.0,,,,,,,,,,,"[{""stimulus"":""run_exp/static/images/task_images/dig.jpg"",""time"":0.26999996043741703},{""stimulus"":""run_exp/static/images/task_images/land.jpg"",""time"":752.3049999726936},{""stimulus"":""run_exp/static/images/task_images/dig.jpg"",""time"":1502.6199999265373}]",[],10,,,,,,,,,,,,,
harvest,255,723573,0.0-80.0-1.0,,null,run_exp/static/images/task_images/gems/17.jpg,null,,,,,,4,,,10,,,,,17,0.260692273,0.235294118,,,,,,
decision,256,723759,0.0-80.0-2.0,,184.335,run_exp/static/images/task_images/land.jpg,65,,,,,,4,,,10,,,,,,,,43266,2,1,FALSE,,
dig,257,726584,0.0-81.0-0.0,,,,,,,,,,,"[{""stimulus"":""run_exp/static/images/task_images/dig.jpg"",""time"":0.45000005047768354},{""stimulus"":""run_exp/static/images/task_images/land.jpg"",""time"":940.0750000495464},{""stimulus"":""run_exp/static/images/task_images/dig.jpg"",""time"":1878.6049999762326}]",[],10,,,,,,,,,,,,,
harvest,258,727586,0.0-81.0-1.0,,null,run_exp/static/images/task_images/gems/4.jpg,null,,,,,,1,,,10,,,,,4,0.16273932,0.25,,,,,,
decision,259,728200,0.0-81.0-2.0,,611.97,run_exp/static/images/task_images/land.jpg,65,,,,,,1,,,10,,,,,,,,47707,2,2,FALSE,,
dig,260,730597,0.0-82.0-0.0,,,,,,,,,,,"[{""stimulus"":""run_exp/static/images/task_images/dig.jpg"",""time"":0.28000003658235073},{""stimulus"":""run_exp/static/images/task_images/land.jpg"",""time"":798.1000000145286},{""stimulus"":""run_exp/static/images/task_images/dig.jpg"",""time"":1593.6699999729171}]",[],10,,,,,,,,,,,,,
harvest,261,731606,0.0-82.0-1.0,,null,run_exp/static/images/task_images/gems/1.jpg,null,,,,,,0,,,10,,,,,1,0.214376229,0,,,,,,
decision,262,733767,0.0-82.0-2.0,,2157.125,run_exp/static/images/task_images/land.jpg,76,,,,,,0,,,10,,,,,,,,53274,2,3,TRUE,,
travel,263,741615,0.0-83.0-0.0,,,,,,,,,,,"[{""stimulus"":""run_exp/static/images/task_images/rocket-01.jpg"",""time"":0.31500007025897503},{""stimulus"":""run_exp/static/images/task_images/rocket-02.jpg"",""time"":872.9850000236183},{""stimulus"":""run_exp/static/images/task_images/rocket-03.jpg"",""time"":1743.7250000657514},{""stimulus"":""run_exp/static/images/task_images/rocket-04.jpg"",""time"":2614.975000033155},{""stimulus"":""run_exp/static/images/task_images/rocket-05.jpg"",""time"":3486.5350000327453},{""stimulus"":""run_exp/static/images/task_images/rocket-06.jpg"",""time"":4357.550000073388},{""stimulus"":""run_exp/static/images/task_images/rocket-07.jpg"",""time"":5228.205000050366},{""stimulus"":""run_exp/static/images/task_images/rocket-08.jpg"",""time"":6098.995000007562},{""stimulus"":""run_exp/static/images/task_images/rocket-09.jpg"",""time"":6970.810000086203}]",[],10,,,,,,,,,,,,,
alien_welcome,264,746618,0.0-83.0-1.0,,null,run_exp/static/images/task_images/aliens/old_aliens/planet/alien_planet-54.jpg,null,,,,,,,,,,,,54,"65,24,2,71,1,12,50,39,48,61,54,16,53,64,76,70,3,73,31,28,56,19,69,33,18,20,34",,,,,,,,,
land,265,747122,0.0-83.0-2.0,,null,run_exp/static/images/task_images/land.jpg,null,,,,,,103,,,11,,,,,,,,,,,,,
dig,266,749128,0.0-83.0-3.0,,,,,,,,,,,"[{""stimulus"":""run_exp/static/images/task_images/dig.jpg"",""time"":0.3649999853223562},{""stimulus"":""run_exp/static/images/task_images/land.jpg"",""time"":669.3199999863282},{""stimulus"":""run_exp/static/images/task_images/dig.jpg"",""time"":1336.4150000270456}]",[],11,,,,,,,,,,,,,
harvest,267,750130,0.0-83.0-4.0,,null,run_exp/static/images/task_images/gems/103.jpg,null,,,,,,28,,,11,,,,,103,0.276380724,0.27184466,,,,,,
decision,268,750166,0.0-83.0-5.0,,34.55500002,run_exp/static/images/task_images/land.jpg,65,,,,,,28,,,11,,,,,,,,69673,2,0,FALSE,,
dig,269,753137,0.0-84.0-0.0,,,,,,,,,,,"[{""stimulus"":""run_exp/static/images/task_images/dig.jpg"",""time"":0.1799999736249447},{""stimulus"":""run_exp/static/images/task_images/land.jpg"",""time"":989.8050000192598},{""stimulus"":""run_exp/static/images/task_images/dig.jpg"",""time"":1978.4549999749288}]",[],11,,,,,,,,,,,,,
harvest,270,754140,0.0-84.0-1.0,,null,run_exp/static/images/task_images/gems/28.jpg,null,,,,,,6,,,11,,,,,28,0.210065945,0.214285714,,,,,,
decision,271,754583,0.0-84.0-2.0,,440.645,run_exp/static/images/task_images/land.jpg,65,,,,,,6,,,11,,,,,,,,74090,2,1,FALSE,,
dig,272,757151,0.0-85.0-0.0,,,,,,,,,,,"[{""stimulus"":""run_exp/static/images/task_images/dig.jpg"",""time"":0.2749999985098839},{""stimulus"":""run_exp/static/images/task_images/land.jpg"",""time"":854.5949999243021},{""stimulus"":""run_exp/static/images/task_images/dig.jpg"",""time"":1707.8399999300018}]",[],11,,,,,,,,,,,,,
harvest,273,758156,0.0-85.0-1.0,,null,run_exp/static/images/task_images/gems/6.jpg,null,,,,,,1,,,11,,,,,6,0.227273324,0.166666667,,,,,,
decision,274,758432,0.0-85.0-2.0,,272.1600001,run_exp/static/images/task_images/land.jpg,65,,,,,,1,,,11,,,,,,,,77939,2,2,FALSE,,
dig,275,761168,0.0-86.0-0.0,,,,,,,,,,,"[{""stimulus"":""run_exp/static/images/task_images/dig.jpg"",""time"":0.3000000724568963},{""stimulus"":""run_exp/static/images/task_images/land.jpg"",""time"":910.7050000457093},{""stimulus"":""run_exp/static/images/task_images/dig.jpg"",""time"":1819.9899999890476}]",[],11,,,,,,,,,,,,,
harvest,276,762171,0.0-86.0-1.0,,null,run_exp/static/images/task_images/gems/1.jpg,null,,,,,,0,,,11,,,,,1,0.182705222,0,,,,,,
decision,277,763127,0.0-86.0-2.0,,953.7600001,run_exp/static/images/task_images/land.jpg,65,,,,,,0,,,11,,,,,,,,82634,2,3,FALSE,,
dig,278,765183,0.0-87.0-0.0,,,,,,,,,,,"[{""stimulus"":""run_exp/static/images/task_images/dig.jpg"",""time"":0.31999999191612005},{""stimulus"":""run_exp/static/images/task_images/land.jpg"",""time"":683.5950000677258},{""stimulus"":""run_exp/static/images/task_images/dig.jpg"",""time"":1365.4250000836328}]",[],11,,,,,,,,,,,,,
harvest,279,766186,0.0-87.0-1.0,,null,run_exp/static/images/task_images/gems/0.jpg,null,,,,,,0,,,11,,,,,0,0.198574791,NaN,,,,,,
decision,280,766535,0.0-87.0-2.0,,346.5700001,run_exp/static/images/task_images/land.jpg,76,,,,,,0,,,11,,,,,,,,86042,2,4,TRUE,,
travel,281,776197,0.0-88.0-0.0,,,,,,,,,,,"[{""stimulus"":""run_exp/static/images/task_images/rocket-01.jpg"",""time"":0.2899999963119626},{""stimulus"":""run_exp/static/images/task_images/rocket-02.jpg"",""time"":1073.8899999996647},{""stimulus"":""run_exp/static/images/task_images/rocket-03.jpg"",""time"":2146.1099999723956},{""stimulus"":""run_exp/static/images/task_images/rocket-04.jpg"",""time"":3217.9449999239296},{""stimulus"":""run_exp/static/images/task_images/rocket-05.jpg"",""time"":4290.534999920055},{""stimulus"":""run_exp/static/images/task_images/rocket-06.jpg"",""time"":5362.604999914765},{""stimulus"":""run_exp/static/images/task_images/rocket-07.jpg"",""time"":6433.949999976903},{""stimulus"":""run_exp/static/images/task_images/rocket-08.jpg"",""time"":7505.86499995552},{""stimulus"":""run_exp/static/images/task_images/rocket-09.jpg"",""time"":8577.86999992095}]",[],11,,,,,,,,,,,,,
alien_welcome,282,781200,0.0-88.0-1.0,,null,run_exp/static/images/task_images/aliens/old_aliens/planet/alien_planet-16.jpg,null,,,,,,,,,,,,16,"65,24,2,71,1,12,50,39,48,61,54,16,53,64,76,70,3,73,31,28,56,19,69,33,18,20,34",,,,,,,,,
land,283,781703,0.0-88.0-2.0,,null,run_exp/static/images/task_images/land.jpg,null,,,,,,93,,,12,,,,,,,,,,,,,
dig,284,783707,0.0-88.0-3.0,,,,,,,,,,,"[{""stimulus"":""run_exp/static/images/task_images/dig.jpg"",""time"":0.3349999897181988},{""stimulus"":""run_exp/static/images/task_images/land.jpg"",""time"":669.4200000492856},{""stimulus"":""run_exp/static/images/task_images/dig.jpg"",""time"":1336.5350000094622}]",[],12,,,,,,,,,,,,,
harvest,285,784711,0.0-88.0-4.0,,null,run_exp/static/images/task_images/gems/93.jpg,null,,,,,,75,,,12,,,,,93,0.803592049,0.806451613,,,,,,
decision,286,784942,0.0-88.0-5.0,,229.5200001,run_exp/static/images/task_images/land.jpg,65,,,,,,75,,,12,,,,,,,,104450,2,0,FALSE,,
dig,287,787720,0.0-89.0-0.0,,,,,,,,,,,"[{""stimulus"":""run_exp/static/images/task_images/dig.jpg"",""time"":0.29500003438442945},{""stimulus"":""run_exp/static/images/task_images/land.jpg"",""time"":924.9400000553578},{""stimulus"":""run_exp/static/images/task_images/dig.jpg"",""time"":1847.7300000377}]",[],12,,,,,,,,,,,,,
harvest,288,788722,0.0-89.0-1.0,,null,run_exp/static/images/task_images/gems/75.jpg,null,,,,,,67,,,12,,,,,75,0.887205893,0.893333333,,,,,,
decision,289,788799,0.0-89.0-2.0,,74.15,run_exp/static/images/task_images/land.jpg,65,,,,,,67,,,12,,,,,,,,108306,2,1,FALSE,,
dig,290,791733,0.0-90.0-0.0,,,,,,,,,,,"[{""stimulus"":""run_exp/static/images/task_images/dig.jpg"",""time"":0.28000003658235073},{""stimulus"":""run_exp/static/images/task_images/land.jpg"",""time"":977.3399999830872},{""stimulus"":""run_exp/static/images/task_images/dig.jpg"",""time"":1953.110000002198}]",[],12,,,,,,,,,,,,,
harvest,291,792735,0.0-90.0-1.0,,null,run_exp/static/images/task_images/gems/67.jpg,null,,,,,,53,,,12,,,,,67,0.792073387,0.791044776,,,,,,
decision,292,792976,0.0-90.0-2.0,,239.7050001,run_exp/static/images/task_images/land.jpg,65,,,,,,53,,,12,,,,,,,,112483,2,2,FALSE,,
dig,293,795746,0.0-91.0-0.0,,,,,,,,,,,"[{""stimulus"":""run_exp/static/images/task_images/dig.jpg"",""time"":0.3000000724568963},{""stimulus"":""run_exp/static/images/task_images/land.jpg"",""time"":922.7899999823421},{""stimulus"":""run_exp/static/images/task_images/dig.jpg"",""time"":1842.060000053607}]",[],12,,,,,,,,,,,,,
harvest,294,796748,0.0-91.0-1.0,,null,run_exp/static/images/task_images/gems/53.jpg,null,,,,,,41,,,12,,,,,53,0.782349081,0.773584906,,,,,,
decision,295,796903,0.0-91.0-2.0,,152.265,run_exp/static/images/task_images/land.jpg,65,,,,,,41,,,12,,,,,,,,116410,2,3,FALSE,,
dig,296,799758,0.0-92.0-0.0,,,,,,,,,,,"[{""stimulus"":""run_exp/static/images/task_images/dig.jpg"",""time"":0.26999996043741703},{""stimulus"":""run_exp/static/images/task_images/land.jpg"",""time"":952.2799999685958},{""stimulus"":""run_exp/static/images/task_images/dig.jpg"",""time"":1899.074999964796}]",[],12,,,,,,,,,,,,,
harvest,297,800761,0.0-92.0-1.0,,null,run_exp/static/images/task_images/gems/41.jpg,null,,,,,,35,,,12,,,,,41,0.845843354,0.853658537,,,,,,
decision,298,801111,0.0-92.0-2.0,,346.915,run_exp/static/images/task_images/land.jpg,65,,,,,,35,,,12,,,,,,,,120618,2,4,FALSE,,
dig,299,803771,0.0-93.0-0.0,,,,,,,,,,,"[{""stimulus"":""run_exp/static/images/task_images/dig.jpg"",""time"":0.27000007685273886},{""stimulus"":""run_exp/static/images/task_images/land.jpg"",""time"":887.0400000596419},{""stimulus"":""run_exp/static/images/task_images/dig.jpg"",""time"":1770.6750000361353}]",[],12,,,,,,,,,,,,,
harvest,300,804773,0.0-93.0-1.0,,null,run_exp/static/images/task_images/gems/35.jpg,null,,,,,,30,,,12,,,,,35,0.858496796,0.857142857,,,,,,
decision,301,805024,0.0-93.0-2.0,,248.355,run_exp/static/images/task_images/land.jpg,65,,,,,,30,,,12,,,,,,,,124531,2,5,FALSE,,
dig,302,807784,0.0-94.0-0.0,,,,,,,,,,,"[{""stimulus"":""run_exp/static/images/task_images/dig.jpg"",""time"":0.2649999223649502},{""stimulus"":""run_exp/static/images/task_images/land.jpg"",""time"":920.064999954775},{""stimulus"":""run_exp/static/images/task_images/dig.jpg"",""time"":1836.4599999040365}]",[],12,,,,,,,,,,,,,
harvest,303,808786,0.0-94.0-1.0,,null,run_exp/static/images/task_images/gems/30.jpg,null,,,,,,24,,,12,,,,,30,0.810102224,0.8,,,,,,
decision,304,808935,0.0-94.0-2.0,,146.04,run_exp/static/images/task_images/land.jpg,65,,,,,,24,,,12,,,,,,,,128442,2,6,FALSE,,
dig,305,811796,0.0-95.0-0.0,,,,,,,,,,,"[{""stimulus"":""run_exp/static/images/task_images/dig.jpg"",""time"":0.2749999985098839},{""stimulus"":""run_exp/static/images/task_images/land.jpg"",""time"":952.6049999985844},{""stimulus"":""run_exp/static/images/task_images/dig.jpg"",""time"":1904.2800000170246}]",[],12,,,,,,,,,,,,,
harvest,306,812798,0.0-95.0-1.0,,null,run_exp/static/images/task_images/gems/24.jpg,null,,,,,,18,,,12,,,,,24,0.758940557,0.75,,,,,,
decision,307,812951,0.0-95.0-2.0,,150.41,run_exp/static/images/task_images/land.jpg,65,,,,,,18,,,12,,,,,,,,132458,2,7,FALSE,,
dig,308,815806,0.0-96.0-0.0,,,,,,,,,,,"[{""stimulus"":""run_exp/static/images/task_images/dig.jpg"",""time"":0.2649999223649502},{""stimulus"":""run_exp/static/images/task_images/land.jpg"",""time"":950.6299999775365},{""stimulus"":""run_exp/static/images/task_images/dig.jpg"",""time"":1900.0999999698251}]",[],12,,,,,,,,,,,,,
harvest,309,816809,0.0-96.0-1.0,,null,run_exp/static/images/task_images/gems/18.jpg,null,,,,,,14,,,12,,,,,18,0.779219846,0.777777778,,,,,,
decision,310,817087,0.0-96.0-2.0,,274.7800001,run_exp/static/images/task_images/land.jpg,65,,,,,,14,,,12,,,,,,,,136594,2,8,FALSE,,
dig,311,819820,0.0-97.0-0.0,,,,,,,,,,,"[{""stimulus"":""run_exp/static/images/task_images/dig.jpg"",""time"":0.5599999567493796},{""stimulus"":""run_exp/static/images/task_images/land.jpg"",""time"":909.7499999916181},{""stimulus"":""run_exp/static/images/task_images/dig.jpg"",""time"":1818.680000025779}]",[],12,,,,,,,,,,,,,
harvest,312,820823,0.0-97.0-1.0,,null,run_exp/static/images/task_images/gems/14.jpg,null,,,,,,11,,,12,,,,,14,0.817496349,0.785714286,,,,,,
decision,313,821543,0.0-97.0-2.0,,716.7250001,run_exp/static/images/task_images/land.jpg,65,,,,,,11,,,12,,,,,,,,141050,2,9,FALSE,,
dig,314,823834,0.0-98.0-0.0,,,,,,,,,,,"[{""stimulus"":""run_exp/static/images/task_images/dig.jpg"",""time"":0.2649999223649502},{""stimulus"":""run_exp/static/images/task_images/land.jpg"",""time"":763.8349999906495},{""stimulus"":""run_exp/static/images/task_images/dig.jpg"",""time"":1524.0699999267235}]",[],12,,,,,,,,,,,,,
harvest,315,824839,0.0-98.0-1.0,,null,run_exp/static/images/task_images/gems/11.jpg,null,,,,,,9,,,12,,,,,11,0.841976231,0.818181818,,,,,,
decision,316,825302,0.0-98.0-2.0,,460.1,run_exp/static/images/task_images/land.jpg,65,,,,,,9,,,12,,,,,,,,144810,2,10,FALSE,,
dig,317,827849,0.0-99.0-0.0,,,,,,,,,,,"[{""stimulus"":""run_exp/static/images/task_images/dig.jpg"",""time"":0.265000038780272},{""stimulus"":""run_exp/static/images/task_images/land.jpg"",""time"":847.7799999527633},{""stimulus"":""run_exp/static/images/task_images/dig.jpg"",""time"":1694.069999968633}]",[],12,,,,,,,,,,,,,
harvest,318,828851,0.0-99.0-1.0,,null,run_exp/static/images/task_images/gems/9.jpg,null,,,,,,7,,,12,,,,,9,0.743925418,0.777777778,,,,,,
decision,319,828936,0.0-99.0-2.0,,81.64500003,run_exp/static/images/task_images/land.jpg,65,,,,,,7,,,12,,,,,,,,148443,2,11,FALSE,,
dig,320,831860,0.0-100.0-0.0,,,,,,,,,,,"[{""stimulus"":""run_exp/static/images/task_images/dig.jpg"",""time"":0.2749999985098839},{""stimulus"":""run_exp/static/images/task_images/land.jpg"",""time"":974.8649999964982},{""stimulus"":""run_exp/static/images/task_images/dig.jpg"",""time"":1946.0149999940768}]",[],12,,,,,,,,,,,,,
harvest,321,832863,0.0-100.0-1.0,,null,run_exp/static/images/task_images/gems/7.jpg,null,,,,,,6,,,12,,,,,7,0.829203516,0.857142857,,,,,,
decision,322,833223,0.0-100.0-2.0,,355.52,run_exp/static/images/task_images/land.jpg,65,,,,,,6,,,12,,,,,,,,152730,2,12,FALSE,,
dig,323,835875,0.0-101.0-0.0,,,,,,,,,,,"[{""stimulus"":""run_exp/static/images/task_images/dig.jpg"",""time"":0.2500000409781933},{""stimulus"":""run_exp/static/images/task_images/land.jpg"",""time"":882.6300000073388},{""stimulus"":""run_exp/static/images/task_images/dig.jpg"",""time"":1763.840000028722}]",[],12,,,,,,,,,,,,,
harvest,324,836877,0.0-101.0-1.0,,null,run_exp/static/images/task_images/gems/6.jpg,null,,,,,,5,,,12,,,,,6,0.831067436,0.833333333,,,,,,
decision,325,837422,0.0-101.0-2.0,,543.1250001,run_exp/static/images/task_images/land.jpg,65,,,,,,5,,,12,,,,,,,,156929,2,13,FALSE,,
dig,326,839885,0.0-102.0-0.0,,,,,,,,,,,"[{""stimulus"":""run_exp/static/images/task_images/dig.jpg"",""time"":0.2749999985098839},{""stimulus"":""run_exp/static/images/task_images/land.jpg"",""time"":821.0199999157339},{""stimulus"":""run_exp/static/images/task_images/dig.jpg"",""time"":1638.3599999826401}]",[],12,,,,,,,,,,,,,
harvest,327,840889,0.0-102.0-1.0,,null,run_exp/static/images/task_images/gems/5.jpg,null,,,,,,4,,,12,,,,,5,0.751546539,0.8,,,,,,
decision,328,841559,0.0-102.0-2.0,,666.635,run_exp/static/images/task_images/land.jpg,65,,,,,,4,,,12,,,,,,,,161066,2,14,FALSE,,
dig,329,843900,0.0-103.0-0.0,,,,,,,,,,,"[{""stimulus"":""run_exp/static/images/task_images/dig.jpg"",""time"":0.26999996043741703},{""stimulus"":""run_exp/static/images/task_images/land.jpg"",""time"":778.9649999467656},{""stimulus"":""run_exp/static/images/task_images/dig.jpg"",""time"":1556.2549999449402}]",[],12,,,,,,,,,,,,,
harvest,330,844903,0.0-103.0-1.0,,null,run_exp/static/images/task_images/gems/4.jpg,null,,,,,,3,,,12,,,,,4,0.663711938,0.75,,,,,,
decision,331,846158,0.0-103.0-2.0,,1252.675,run_exp/static/images/task_images/land.jpg,65,,,,,,3,,,12,,,,,,,,165665,2,15,FALSE,,
dig,332,847914,0.0-104.0-0.0,,,,,,,,,,,"[{""stimulus"":""run_exp/static/images/task_images/dig.jpg"",""time"":0.30499999411404133},{""stimulus"":""run_exp/static/images/task_images/land.jpg"",""time"":584.3500000191852},{""stimulus"":""run_exp/static/images/task_images/dig.jpg"",""time"":1166.4200000232086}]",[],12,,,,,,,,,,,,,
harvest,333,848917,0.0-104.0-1.0,,null,run_exp/static/images/task_images/gems/3.jpg,null,,,,,,3,,,12,,,,,3,0.874908968,1,,,,,,
decision,334,849975,0.0-104.0-2.0,,1055.25,run_exp/static/images/task_images/land.jpg,65,,,,,,3,,,12,,,,,,,,169482,2,16,FALSE,,
dig,335,851928,0.0-105.0-0.0,,,,,,,,,,,"[{""stimulus"":""run_exp/static/images/task_images/dig.jpg"",""time"":0.265000038780272},{""stimulus"":""run_exp/static/images/task_images/land.jpg"",""time"":649.9750000657514},{""stimulus"":""run_exp/static/images/task_images/dig.jpg"",""time"":1298.1500000460073}]",[],12,,,,,,,,,,,,,
harvest,336,852931,0.0-105.0-1.0,,null,run_exp/static/images/task_images/gems/3.jpg,null,,,,,,3,,,12,,,,,3,0.84156103,1,,,,,,
decision,337,853372,0.0-105.0-2.0,,437.49,run_exp/static/images/task_images/land.jpg,65,,,,,,0,,,12,,,,,,,,172879,2,17,FALSE,,
dig,338,855945,0.0-106.0-0.0,,,,,,,,,,,"[{""stimulus"":""run_exp/static/images/task_images/dig.jpg"",""time"":0.6249999860301614},{""stimulus"":""run_exp/static/images/task_images/land.jpg"",""time"":855.9649999951944},{""stimulus"":""run_exp/static/images/task_images/dig.jpg"",""time"":1710.5899999151006}]",[],12,,,,,,,,,,,,,
harvest,339,856948,0.0-106.0-1.0,,null,run_exp/static/images/task_images/gems/0.jpg,null,,,,,,0,,,12,,,,,0,0.805585699,NaN,,,,,,
decision,340,858494,0.0-106.0-2.0,,1543.34,run_exp/static/images/task_images/land.jpg,76,,,,,,0,,,12,,,,,,,,178001,2,18,TRUE,,
travel,341,866954,0.0-107.0-0.0,,,,,,,,,,,"[{""stimulus"":""run_exp/static/images/task_images/rocket-01.jpg"",""time"":0.28000003658235073},{""stimulus"":""run_exp/static/images/task_images/rocket-02.jpg"",""time"":941.9149999739602},{""stimulus"":""run_exp/static/images/task_images/rocket-03.jpg"",""time"":1879.5549999922514},{""stimulus"":""run_exp/static/images/task_images/rocket-04.jpg"",""time"":2819.355000043288},{""stimulus"":""run_exp/static/images/task_images/rocket-05.jpg"",""time"":3758.3449999801815},{""stimulus"":""run_exp/static/images/task_images/rocket-06.jpg"",""time"":4696.639999980107},{""stimulus"":""run_exp/static/images/task_images/rocket-07.jpg"",""time"":5635.774999973364},{""stimulus"":""run_exp/static/images/task_images/rocket-08.jpg"",""time"":6575.494999997318},{""stimulus"":""run_exp/static/images/task_images/rocket-09.jpg"",""time"":7513.440000009723}]",[],12,,,,,,,,,,,,,
alien_welcome,342,871957,0.0-107.0-1.0,,null,run_exp/static/images/task_images/aliens/old_aliens/planet/alien_planet-53.jpg,null,,,,,,,,,,,,53,"65,24,2,71,1,12,50,39,48,61,54,16,53,64,76,70,3,73,31,28,56,19,69,33,18,20,34",,,,,,,,,
land,343,872459,0.0-107.0-2.0,,null,run_exp/static/images/task_images/land.jpg,null,,,,,,93,,,13,,,,,,,,,,,,,
dig,344,874464,0.0-107.0-3.0,,,,,,,,,,,"[{""stimulus"":""run_exp/static/images/task_images/dig.jpg"",""time"":0.3299999516457319},{""stimulus"":""run_exp/static/images/task_images/land.jpg"",""time"":669.5899999467656},{""stimulus"":""run_exp/static/images/task_images/dig.jpg"",""time"":1336.1100000329316}]",[],13,,,,,,,,,,,,,
harvest,345,875468,0.0-107.0-4.0,,null,run_exp/static/images/task_images/gems/93.jpg,null,,,,,,74,,,13,,,,,93,0.793996777,0.795698925,,,,,,
decision,346,875685,0.0-107.0-5.0,,215.1349999,run_exp/static/images/task_images/land.jpg,65,,,,,,74,,,13,,,,,,,,195192,2,0,FALSE,,
dig,347,878478,0.0-108.0-0.0,,,,,,,,,,,"[{""stimulus"":""run_exp/static/images/task_images/dig.jpg"",""time"":0.26000000070780516},{""stimulus"":""run_exp/static/images/task_images/land.jpg"",""time"":931.0700000496581},{""stimulus"":""run_exp/static/images/task_images/dig.jpg"",""time"":1858.100000070408}]",[],13,,,,,,,,,,,,,
harvest,348,879482,0.0-108.0-1.0,,null,run_exp/static/images/task_images/gems/74.jpg,null,,,,,,59,,,13,,,,,74,0.791349112,0.797297297,,,,,,
decision,349,879678,0.0-108.0-2.0,,193.395,run_exp/static/images/task_images/land.jpg,65,,,,,,59,,,13,,,,,,,,199185,2,1,FALSE,,
dig,350,882492,0.0-109.0-0.0,,,,,,,,,,,"[{""stimulus"":""run_exp/static/images/task_images/dig.jpg"",""time"":0.2749999985098839},{""stimulus"":""run_exp/static/images/task_images/land.jpg"",""time"":936.4949999144301},{""stimulus"":""run_exp/static/images/task_images/dig.jpg"",""time"":1872.2849999321625}]",[],13,,,,,,,,,,,,,
harvest,351,883495,0.0-109.0-1.0,,null,run_exp/static/images/task_images/gems/59.jpg,null,,,,,,54,,,13,,,,,59,0.922852039,0.915254237,,,,,,
decision,352,883528,0.0-109.0-2.0,,30.33500002,run_exp/static/images/task_images/land.jpg,65,,,,,,54,,,13,,,,,,,,203035,2,2,FALSE,,
dig,353,886505,0.0-110.0-0.0,,,,,,,,,,,"[{""stimulus"":""run_exp/static/images/task_images/dig.jpg"",""time"":0.2850000746548176},{""stimulus"":""run_exp/static/images/task_images/land.jpg"",""time"":990.8200000645593},{""stimulus"":""run_exp/static/images/task_images/dig.jpg"",""time"":1980.0250000553206}]",[],13,,,,,,,,,,,,,
harvest,354,887508,0.0-110.0-1.0,,null,run_exp/static/images/task_images/gems/54.jpg,null,,,,,,45,,,13,,,,,54,0.82736211,0.833333333,,,,,,
decision,355,887614,0.0-110.0-2.0,,103.4049999,run_exp/static/images/task_images/land.jpg,65,,,,,,45,,,13,,,,,,,,207121,2,3,FALSE,,
dig,356,890518,0.0-111.0-0.0,,,,,,,,,,,"[{""stimulus"":""run_exp/static/images/task_images/dig.jpg"",""time"":0.26000000070780516},{""stimulus"":""run_exp/static/images/task_images/land.jpg"",""time"":966.4399999892339},{""stimulus"":""run_exp/static/images/task_images/dig.jpg"",""time"":1932.2099999990314}]",[],13,,,,,,,,,,,,,
harvest,357,891523,0.0-111.0-1.0,,null,run_exp/static/images/task_images/gems/45.jpg,null,,,,,,38,,,13,,,,,45,0.852245444,0.844444444,,,,,,
decision,358,891765,0.0-111.0-2.0,,239.6950001,run_exp/static/images/task_images/land.jpg,65,,,,,,38,,,13,,,,,,,,211273,2,4,FALSE,,
dig,359,894536,0.0-112.0-0.0,,,,,,,,,,,"[{""stimulus"":""run_exp/static/images/task_images/dig.jpg"",""time"":0.30499999411404133},{""stimulus"":""run_exp/static/images/task_images/land.jpg"",""time"":922.1750000724569},{""stimulus"":""run_exp/static/images/task_images/dig.jpg"",""time"":1842.475000070408}]",[],13,,,,,,,,,,,,,
harvest,360,895539,0.0-112.0-1.0,,null,run_exp/static/images/task_images/gems/38.jpg,null,,,,,,32,,,13,,,,,38,0.832944559,0.842105263,,,,,,
decision,361,898030,0.0-112.0-2.0,,2488.045,run_exp/static/images/task_images/land.jpg,65,,,,,,32,,,13,,,,,,,,217537,2,5,FALSE,,
dig,362,898549,0.0-113.0-0.0,,,,,,,,,,,"[{""stimulus"":""run_exp/static/images/task_images/dig.jpg"",""time"":0.3100000321865082},{""stimulus"":""run_exp/static/images/task_images/land.jpg"",""time"":172.10500000510365},{""stimulus"":""run_exp/static/images/task_images/dig.jpg"",""time"":342.44000003673136}]",[],13,,,,,,,,,,,,,
harvest,363,899553,0.0-113.0-1.0,,null,run_exp/static/images/task_images/gems/32.jpg,null,,,,,,27,,,13,,,,,32,0.830327937,0.84375,,,,,,
decision,364,900326,0.0-113.0-2.0,,770.735,run_exp/static/images/task_images/land.jpg,65,,,,,,27,,,13,,,,,,,,219833,2,6,FALSE,,
dig,365,902565,0.0-114.0-0.0,,,,,,,,,,,"[{""stimulus"":""run_exp/static/images/task_images/dig.jpg"",""time"":0.3549999091774225},{""stimulus"":""run_exp/static/images/task_images/land.jpg"",""time"":744.9849999975413},{""stimulus"":""run_exp/static/images/task_images/dig.jpg"",""time"":1488.4899999015033}]",[],13,,,,,,,,,,,,,
harvest,366,903570,0.0-114.0-1.0,,null,run_exp/static/images/task_images/gems/27.jpg,null,,,,,,19,,,13,,,,,27,0.694914667,0.703703704,,,,,,
decision,367,903614,0.0-114.0-2.0,,41.42500006,run_exp/static/images/task_images/land.jpg,65,,,,,,19,,,13,,,,,,,,223122,2,7,FALSE,,
dig,368,906580,0.0-115.0-0.0,,,,,,,,,,,"[{""stimulus"":""run_exp/static/images/task_images/dig.jpg"",""time"":0.17499993555247784},{""stimulus"":""run_exp/static/images/task_images/land.jpg"",""time"":988.0300000077114},{""stimulus"":""run_exp/static/images/task_images/dig.jpg"",""time"":1974.419999984093}]",[],13,,,,,,,,,,,,,
harvest,369,907583,0.0-115.0-1.0,,null,run_exp/static/images/task_images/gems/19.jpg,null,,,,,,15,,,13,,,,,19,0.814008099,0.789473684,,,,,,
decision,370,907687,0.0-115.0-2.0,,101.3099999,run_exp/static/images/task_images/land.jpg,65,,,,,,15,,,13,,,,,,,,227194,2,8,FALSE,,
dig,371,910595,0.0-116.0-0.0,,,,,,,,,,,"[{""stimulus"":""run_exp/static/images/task_images/dig.jpg"",""time"":0.3000000724568963},{""stimulus"":""run_exp/static/images/task_images/land.jpg"",""time"":968.2850000681356},{""stimulus"":""run_exp/static/images/task_images/dig.jpg"",""time"":1934.1900000581518}]",[],13,,,,,,,,,,,,,
harvest,372,911598,0.0-116.0-1.0,,null,run_exp/static/images/task_images/gems/15.jpg,null,,,,,,13,,,13,,,,,15,0.859801817,0.866666667,,,,,,
decision,373,911718,0.0-116.0-2.0,,116.9949999,run_exp/static/images/task_images/land.jpg,65,,,,,,13,,,13,,,,,,,,231225,2,9,FALSE,,
dig,374,914611,0.0-117.0-0.0,,,,,,,,,,,"[{""stimulus"":""run_exp/static/images/task_images/dig.jpg"",""time"":0.2899999963119626},{""stimulus"":""run_exp/static/images/task_images/land.jpg"",""time"":963.3199999807402},{""stimulus"":""run_exp/static/images/task_images/dig.jpg"",""time"":1923.8950000144541}]",[],13,,,,,,,,,,,,,
harvest,375,915614,0.0-117.0-1.0,,null,run_exp/static/images/task_images/gems/13.jpg,null,,,,,,11,,,13,,,,,13,0.814741766,0.846153846,,,,,,
decision,376,915702,0.0-117.0-2.0,,85.91999998,run_exp/static/images/task_images/land.jpg,65,,,,,,11,,,13,,,,,,,,235209,2,10,FALSE,,
dig,377,918625,0.0-118.0-0.0,,,,,,,,,,,"[{""stimulus"":""run_exp/static/images/task_images/dig.jpg"",""time"":0.27000007685273886},{""stimulus"":""run_exp/static/images/task_images/land.jpg"",""time"":973.3150000683963},{""stimulus"":""run_exp/static/images/task_images/dig.jpg"",""time"":1943.485000054352}]",[],13,,,,,,,,,,,,,
harvest,378,919628,0.0-118.0-1.0,,null,run_exp/static/images/task_images/gems/11.jpg,null,,,,,,9,,,13,,,,,11,0.792495738,0.818181818,,,,,,
decision,379,919782,0.0-118.0-2.0,,151.48,run_exp/static/images/task_images/land.jpg,65,,,,,,9,,,13,,,,,,,,239289,2,11,FALSE,,
dig,380,922639,0.0-119.0-0.0,,,,,,,,,,,"[{""stimulus"":""run_exp/static/images/task_images/dig.jpg"",""time"":0.2749999985098839},{""stimulus"":""run_exp/static/images/task_images/land.jpg"",""time"":950.7100000046194},{""stimulus"":""run_exp/static/images/task_images/dig.jpg"",""time"":1899.9399999156594}]",[],13,,,,,,,,,,,,,
harvest,381,923642,0.0-119.0-1.0,,null,run_exp/static/images/task_images/gems/9.jpg,null,,,,,,7,,,13,,,,,9,0.784000137,0.777777778,,,,,,
decision,382,923902,0.0-119.0-2.0,,257.855,run_exp/static/images/task_images/land.jpg,65,,,,,,7,,,13,,,,,,,,243409,2,12,FALSE,,
dig,383,926653,0.0-120.0-0.0,,,,,,,,,,,"[{""stimulus"":""run_exp/static/images/task_images/dig.jpg"",""time"":0.265000038780272},{""stimulus"":""run_exp/static/images/task_images/land.jpg"",""time"":916.2900000810623},{""stimulus"":""run_exp/static/images/task_images/dig.jpg"",""time"":1830.1050000591204}]",[],13,,,,,,,,,,,,,
harvest,384,927657,0.0-120.0-1.0,,null,run_exp/static/images/task_images/gems/7.jpg,null,,,,,,6,,,13,,,,,7,0.858927638,0.857142857,,,,,,
decision,385,927694,0.0-120.0-2.0,,34.46,run_exp/static/images/task_images/land.jpg,65,,,,,,6,,,13,,,,,,,,247201,2,13,FALSE,,
dig,386,930668,0.0-121.0-0.0,,,,,,,,,,,"[{""stimulus"":""run_exp/static/images/task_images/dig.jpg"",""time"":0.21500000730156898},{""stimulus"":""run_exp/static/images/task_images/land.jpg"",""time"":989.655000041239},{""stimulus"":""run_exp/static/images/task_images/dig.jpg"",""time"":1978.8799999514595}]",[],13,,,,,,,,,,,,,
harvest,387,931671,0.0-121.0-1.0,,null,run_exp/static/images/task_images/gems/6.jpg,null,,,,,,5,,,13,,,,,6,0.824997805,0.833333333,,,,,,
decision,388,934674,0.0-121.0-2.0,,null,run_exp/static/images/task_images/land.jpg,null,,,,,,5,,,13,,,,,,,,254181,2,14,FALSE,,
time_out,389,936684,0.0-122.0-0.0,,null,run_exp/static/images/task_images/time_out.jpg,null,,,,,,5,,,,,,,,,,,,,,,,
decision,390,936702,0.0-122.0-1.0,,16.405,run_exp/static/images/task_images/land.jpg,65,,,,,,5,,,13,,,,,,,,256210,2,14,FALSE,,
dig,391,939695,0.0-123.0-0.0,,,,,,,,,,,"[{""stimulus"":""run_exp/static/images/task_images/dig.jpg"",""time"":0.434999936260283},{""stimulus"":""run_exp/static/images/task_images/land.jpg"",""time"":996.3049999205396},{""stimulus"":""run_exp/static/images/task_images/dig.jpg"",""time"":1990.5499999877065}]",[],13,,,,,,,,,,,,,
harvest,392,940698,0.0-123.0-1.0,,null,run_exp/static/images/task_images/gems/5.jpg,null,,,,,,4,,,13,,,,,5,0.797170581,0.8,,,,,,
decision,393,940814,0.0-123.0-2.0,,113.1900001,run_exp/static/images/task_images/land.jpg,65,,,,,,4,,,13,,,,,,,,260321,2,15,FALSE,,
dig,394,943709,0.0-124.0-0.0,,,,,,,,,,,"[{""stimulus"":""run_exp/static/images/task_images/dig.jpg"",""time"":0.26000000070780516},{""stimulus"":""run_exp/static/images/task_images/land.jpg"",""time"":964.0600000275299},{""stimulus"":""run_exp/static/images/task_images/dig.jpg"",""time"":1925.8250000420958}]",[],13,,,,,,,,,,,,,
harvest,395,944714,0.0-124.0-1.0,,null,run_exp/static/images/task_images/gems/4.jpg,null,,,,,,3,,,13,,,,,4,0.78283203,0.75,,,,,,
decision,396,945006,0.0-124.0-2.0,,287.715,run_exp/static/images/task_images/land.jpg,65,,,,,,3,,,13,,,,,,,,264513,2,16,FALSE,,
dig,397,947729,0.0-125.0-0.0,,,,,,,,,,,"[{""stimulus"":""run_exp/static/images/task_images/dig.jpg"",""time"":0.29500003438442945},{""stimulus"":""run_exp/static/images/task_images/land.jpg"",""time"":905.960000003688},{""stimulus"":""run_exp/static/images/task_images/dig.jpg"",""time"":1810.9000000404194}]",[],13,,,,,,,,,,,,,
harvest,398,948732,0.0-125.0-1.0,,null,run_exp/static/images/task_images/gems/3.jpg,null,,,,,,2,,,13,,,,,3,0.814936477,0.666666667,,,,,,
decision,399,949926,0.0-125.0-2.0,,1191.01,run_exp/static/images/task_images/land.jpg,76,,,,,,2,,,13,,,,,,,,269433,2,17,TRUE,,
travel,400,958737,0.0-126.0-0.0,,,,,,,,,,,"[{""stimulus"":""run_exp/static/images/task_images/rocket-01.jpg"",""time"":0.31999999191612005},{""stimulus"":""run_exp/static/images/task_images/rocket-02.jpg"",""time"":979.8550000414252},{""stimulus"":""run_exp/static/images/task_images/rocket-03.jpg"",""time"":1958.4950000280514},{""stimulus"":""run_exp/static/images/task_images/rocket-04.jpg"",""time"":2935.9849999891594},{""stimulus"":""run_exp/static/images/task_images/rocket-05.jpg"",""time"":3914.4599999999627},{""stimulus"":""run_exp/static/images/task_images/rocket-06.jpg"",""time"":4891.99000003282},{""stimulus"":""run_exp/static/images/task_images/rocket-07.jpg"",""time"":5870.480000041425},{""stimulus"":""run_exp/static/images/task_images/rocket-08.jpg"",""time"":6848.700000089593},{""stimulus"":""run_exp/static/images/task_images/rocket-09.jpg"",""time"":7826.160000055097}]",[],13,,,,,,,,,,,,,
alien_welcome,401,963740,0.0-126.0-1.0,,null,run_exp/static/images/task_images/aliens/old_aliens/planet/alien_planet-64.jpg,null,,,,,,,,,,,,64,"65,24,2,71,1,12,50,39,48,61,54,16,53,64,76,70,3,73,31,28,56,19,69,33,18,20,34",,,,,,,,,
land,402,964243,0.0-126.0-2.0,,null,run_exp/static/images/task_images/land.jpg,null,,,,,,89,,,14,,,,,,,,,,,,,
dig,403,966248,0.0-126.0-3.0,,,,,,,,,,,"[{""stimulus"":""run_exp/static/images/task_images/dig.jpg"",""time"":0.35500002559274435},{""stimulus"":""run_exp/static/images/task_images/land.jpg"",""time"":668.9150000456721},{""stimulus"":""run_exp/static/images/task_images/dig.jpg"",""time"":1336.1800001002848}]",[],14,,,,,,,,,,,,,
harvest,404,967251,0.0-126.0-4.0,,null,run_exp/static/images/task_images/gems/89.jpg,null,,,,,,72,,,14,,,,,89,0.81362283,0.808988764,,,,,,
decision,405,967940,0.0-126.0-5.0,,687.13,run_exp/static/images/task_images/land.jpg,65,,,,,,72,,,14,,,,,,,,287448,2,0,FALSE,,
dig,406,970261,0.0-127.0-0.0,,,,,,,,,,,"[{""stimulus"":""run_exp/static/images/task_images/dig.jpg"",""time"":0.28000003658235073},{""stimulus"":""run_exp/static/images/task_images/land.jpg"",""time"":772.1550000132993},{""stimulus"":""run_exp/static/images/task_images/dig.jpg"",""time"":1542.4849999835715}]",[],14,,,,,,,,,,,,,
harvest,407,971264,0.0-127.0-1.0,,null,run_exp/static/images/task_images/gems/72.jpg,null,,,,,,59,,,14,,,,,72,0.813835706,0.819444444,,,,,,
decision,408,971317,0.0-127.0-2.0,,50.19999994,run_exp/static/images/task_images/land.jpg,65,,,,,,59,,,14,,,,,,,,290824,2,1,FALSE,,
dig,409,974273,0.0-128.0-0.0,,,,,,,,,,,"[{""stimulus"":""run_exp/static/images/task_images/dig.jpg"",""time"":0.1949999714270234},{""stimulus"":""run_exp/static/images/task_images/land.jpg"",""time"":984.9849999882281},{""stimulus"":""run_exp/static/images/task_images/dig.jpg"",""time"":1967.7199999568984}]",[],14,,,,,,,,,,,,,
harvest,410,975276,0.0-128.0-1.0,,null,run_exp/static/images/task_images/gems/59.jpg,null,,,,,,47,,,14,,,,,59,0.804912203,0.796610169,,,,,,
decision,411,975317,0.0-128.0-2.0,,38.36000001,run_exp/static/images/task_images/land.jpg,65,,,,,,47,,,14,,,,,,,,294824,2,2,FALSE,,
dig,412,978284,0.0-129.0-0.0,,,,,,,,,,,"[{""stimulus"":""run_exp/static/images/task_images/dig.jpg"",""time"":0.3000000724568963},{""stimulus"":""run_exp/static/images/task_images/land.jpg"",""time"":988.5850000428036},{""stimulus"":""run_exp/static/images/task_images/dig.jpg"",""time"":1976.9250000827014}]",[],14,,,,,,,,,,,,,
harvest,413,979288,0.0-129.0-1.0,,null,run_exp/static/images/task_images/gems/47.jpg,null,,,,,,38,,,14,,,,,47,0.802940544,0.808510638,,,,,,
decision,414,979733,0.0-129.0-2.0,,440.95,run_exp/static/images/task_images/land.jpg,65,,,,,,38,,,14,,,,,,,,299240,2,3,FALSE,,
dig,415,982303,0.0-130.0-0.0,,,,,,,,,,,"[{""stimulus"":""run_exp/static/images/task_images/dig.jpg"",""time"":0.265000038780272},{""stimulus"":""run_exp/static/images/task_images/land.jpg"",""time"":855.6150000076741},{""stimulus"":""run_exp/static/images/task_images/dig.jpg"",""time"":1707.8749999636784}]",[],14,,,,,,,,,,,,,
harvest,416,983305,0.0-130.0-1.0,,null,run_exp/static/images/task_images/gems/38.jpg,null,,,,,,30,,,14,,,,,38,0.780758312,0.789473684,,,,,,
decision,417,983477,0.0-130.0-2.0,,169.725,run_exp/static/images/task_images/land.jpg,65,,,,,,30,,,14,,,,,,,,302984,2,4,TRUE,,
end_of_block_continue,418,992353,0.0-131.0-0.0,,null,run_exp/static/audio/clip_32_block_end.m4a,,,,,,null,,,,,,,,,,,,,,,,,
alien_welcome,419,997366,0.0-132.0-0.0,,null,run_exp/static/images/task_images/aliens/old_aliens/planet/alien_planet-76.jpg,null,,,,,,,,,,,,76,"65,24,2,71,1,12,50,39,48,61,54,16,53,64,76,70,3,73,31,28,56,19,69,33,18,20,34",,,,,,,,,
land,420,997869,0.0-132.0-1.0,,null,run_exp/static/images/task_images/land.jpg,null,,,,,,95,,,15,,,,,,,,,,,,,
dig,421,999874,0.0-132.0-2.0,,,,,,,,,,,"[{""stimulus"":""run_exp/static/images/task_images/dig.jpg"",""time"":0.3499999875202775},{""stimulus"":""run_exp/static/images/task_images/land.jpg"",""time"":669.6099999826401},{""stimulus"":""run_exp/static/images/task_images/dig.jpg"",""time"":1336.7050000233576}]",[],15,,,,,,,,,,,,,
harvest,422,1000877,0.0-132.0-3.0,,null,run_exp/static/images/task_images/gems/95.jpg,null,,,,,,46,,,15,,,,,95,0.484467398,0.484210526,,,,,,
decision,423,1002620,0.0-132.0-4.0,,1740.42,run_exp/static/images/task_images/land.jpg,65,,,,,,46,,,15,,,,,,,,10258,3,0,FALSE,,
dig,424,1003887,0.0-133.0-0.0,,,,,,,,,,,"[{""stimulus"":""run_exp/static/images/task_images/dig.jpg"",""time"":0.28499995823949575},{""stimulus"":""run_exp/static/images/task_images/land.jpg"",""time"":421.3799999561161},{""stimulus"":""run_exp/static/images/task_images/dig.jpg"",""time"":839.5449999952689}]",[],15,,,,,,,,,,,,,
harvest,425,1004890,0.0-133.0-1.0,,null,run_exp/static/images/task_images/gems/46.jpg,null,,,,,,25,,,15,,,,,46,0.536492703,0.543478261,,,,,,
decision,426,1007420,0.0-133.0-2.0,,2527.185,run_exp/static/images/task_images/land.jpg,65,,,,,,25,,,15,,,,,,,,15058,3,1,FALSE,,
dig,427,1007902,0.0-134.0-0.0,,,,,,,,,,,"[{""stimulus"":""run_exp/static/images/task_images/dig.jpg"",""time"":0.2899999963119626},{""stimulus"":""run_exp/static/images/task_images/land.jpg"",""time"":159.8000000230968},{""stimulus"":""run_exp/static/images/task_images/dig.jpg"",""time"":315.43499999679625}]",[],15,,,,,,,,,,,,,
