trial_type,trial_index,time_elapsed,internal_node_id,interactions,blur_events,focus_events,fullscreenenter_events,fullscreenexit_events,success,rt,stimulus,key_press,prompt,subject_id,participant_id,age,gender,button_pressed,next_reward,animation_sequence,responses,planet,curr_prac_trial,n_prac_rounds,alien,aliens,reward_received,decay_rate_actual,decay_rate_exp,time_in_block,block_num,prt,last_trial_on_planet,button_html,bonus,num_failures
pavlovia,0,27,0.0-0.0,"""event"",""trial"",""time""
""fullscreenenter"",""1"",""3845""
","
","
","""event"",""trial"",""time""
""fullscreenenter"",""1"",""3845""
","
",,,,,,,,,,,,,,,,,,,,,,,,,,,,
fullscreen,1,4830,0.0-1.0,"""event"",""trial"",""time""
""fullscreenenter"",""1"",""3845""
","
","
","""event"",""trial"",""time""
""fullscreenenter"",""1"",""3845""
","
",TRUE,,,,,,,,,,,,,,,,,,,,,,,,,,,
instruc_welcome,2,14857,0.0-2.0,"""event"",""trial"",""time""
""fullscreenenter"",""1"",""3845""
","
","
","""event"",""trial"",""time""
""fullscreenenter"",""1"",""3845""
","
",,null,run_exp/static/audio/clip_1_welcome.m4a,null,"<p>Howdy! In this experiment, you’ll be an explorer traveling through space to collect space treasure.</p><p>Your mission is to collect as much treasure as possible.</p><br><br><p><img src='run_exp/static/images/task_images/opening_img-01.jpg' height='300' width='auto'></p>",12633,5177,18.92,Female,,,,,,,,,,,,,,,,,,,
audio-keyboard-response,3,31886,0.0-3.0,"""event"",""trial"",""time""
""fullscreenenter"",""1"",""3845""
","
","
","""event"",""trial"",""time""
""fullscreenenter"",""1"",""3845""
","
",,null,run_exp/static/audio/clip_2_move.m4a,null,,,,,,,,,,,,,,,,,,,,,,,,
welcome_dec,4,33973,0.0-4.0,"""event"",""trial"",""time""
""fullscreenenter"",""1"",""3845""
","
","
","""event"",""trial"",""time""
""fullscreenenter"",""1"",""3845""
","
",,2073.2,"<p>Howdy! In this experiment, you’ll be an explorer traveling through space to collect space treasure.</p><p>Your mission is to collect as much treasure as possible.</p><br><br><p><img src='run_exp/static/images/task_images/opening_img-01.jpg' height='300' width='auto'></p>",,,,,,,1,,,,,,,,,,,,,,,,,,
html-keyboard-response,5,34653,0.0-5.0,"""event"",""trial"",""time""
""fullscreenenter"",""1"",""3845""
","
","
","""event"",""trial"",""time""
""fullscreenenter"",""1"",""3845""
","
",,673.8,"<p>Howdy! In this experiment, you’ll be an explorer traveling through space to collect space treasure.</p><p>Your mission is to collect as much treasure as possible.</p><br><br><p><img src='run_exp/static/images/task_images/opening_img-01.jpg' height='300' width='auto'></p><button class=""jspsych-html-btn-unchosen""><img src=""run_exp/static/images/task_images/planet-01.jpg"" height=""50""></button><button class=""jspsych-html-btn-chosen""><img src=""run_exp/static/images/task_images/planet-02.jpg"" height=""50""></button><p><b>[press the space bar to lock in your answer]<b><br></p>",32,,,,,,,,,,,,,,,,,,,,,,,,
instruc_goal,6,45074,0.0-6.0-0.0,"""event"",""trial"",""time""
""fullscreenenter"",""1"",""3845""
","
","
","""event"",""trial"",""time""
""fullscreenenter"",""1"",""3845""
","
",,null,run_exp/static/audio/clip_3_goal.m4a,null,"<p> As a space explorer, you’ll visit different planets to dig for space treasure, these pink gems.</p> <p> The more treasure you dig up, the more bonus money you’ll win! </p><br><br><p><img src='run_exp/static/images/task_images/pink_gem.jpg' height='300' width='auto'></p>",,,,,,,,,,,,,,,,,,,,,,,
instruc_goal,7,46487,0.0-6.0-1.0,"""event"",""trial"",""time""
""fullscreenenter"",""1"",""3845""
","
","
","""event"",""trial"",""time""
""fullscreenenter"",""1"",""3845""
","
",,1401.8,"<p> As a space explorer, you’ll visit different planets to dig for space treasure, these pink gems.</p> <p> The more treasure you dig up, the more bonus money you’ll win! </p><br><br><p><img src='run_exp/static/images/task_images/pink_gem.jpg' height='300' width='auto'></p>",,,,,,,1,,,,,,,,,,,,,,,,,,
html-keyboard-response,8,46787,0.0-6.0-2.0,"""event"",""trial"",""time""
""fullscreenenter"",""1"",""3845""
","
","
","""event"",""trial"",""time""
""fullscreenenter"",""1"",""3845""
","
",,296.2,"<p> As a space explorer, you’ll visit different planets to dig for space treasure, these pink gems.</p> <p> The more treasure you dig up, the more bonus money you’ll win! </p><br><br><p><img src='run_exp/static/images/task_images/pink_gem.jpg' height='300' width='auto'></p><button class=""jspsych-html-btn-unchosen""><img src=""run_exp/static/images/task_images/planet-01.jpg"" height=""50""></button><button class=""jspsych-html-btn-chosen""><img src=""run_exp/static/images/task_images/planet-02.jpg"" height=""50""></button><p><b>[press the space bar to lock in your answer]<b><br></p>",32,,,,,,,,,,,,,,,,,,,,,,,,
instruc_dig,9,63133,0.0-7.0-0.0,"""event"",""trial"",""time""
""fullscreenenter"",""1"",""3845""
","
","
","""event"",""trial"",""time""
""fullscreenenter"",""1"",""3845""
","
",,null,run_exp/static/audio/clip_4_dig.m4a,null,,,,,,,100,,,,,,,,,,,,,,,,,
instruc_dig_try,10,63562,0.0-7.0-1.0,"""event"",""trial"",""time""
""fullscreenenter"",""1"",""3845""
","
","
","""event"",""trial"",""time""
""fullscreenenter"",""1"",""3845""
","
",,420.7,"<p> When you’ve arrived at a new planet, you will dig once. </p> <p>Then, you get to decide if you want to stay on the planet and dig again or travel to a new planet and dig there.</p> <p> To stay and dig, press the letter <strong>‘A’</strong> on your keyboard. Try pressing it now! </p><p><img src='run_exp/static/images/task_images/land.jpg'  height='700' width='auto'></p>",65,"<p> When you’ve arrived at a new planet, you will dig once. </p> <p>Then, you get to decide if you want to stay on the planet and dig again or travel to a new planet and dig there.</p> <p> To stay and dig, press the letter <strong>‘A’</strong> on your keyboard. Try pressing it now! </p><p><img src='run_exp/static/images/task_images/land.jpg'  height='700' width='auto'></p>",,,,,,100,,,,,,,,,,,,,,,,,
dig_prac,11,65589,0.0-7.0-2.0,"""event"",""trial"",""time""
""fullscreenenter"",""1"",""3845""
","
","
","""event"",""trial"",""time""
""fullscreenenter"",""1"",""3845""
","
",,,,,,,,,,,,"[{""stimulus"":""run_exp/static/images/task_images/dig.jpg"",""time"":0.8000000007450581},{""stimulus"":""run_exp/static/images/task_images/land.jpg"",""time"":671.5999999977648},{""stimulus"":""run_exp/static/images/task_images/dig.jpg"",""time"":1337.5}]",[],,,,,,,,,,,,,,,
instruc_travel,12,102193,0.0-7.0-3.0,"""event"",""trial"",""time""
""fullscreenenter"",""1"",""3845""
","
","
","""event"",""trial"",""time""
""fullscreenenter"",""1"",""3845""
","
",,null,run_exp/static/audio/clip_5_travel.m4a,null,"<p>Every time you dig up gems, there are less gems on the planet, so the more you dig on a planet the fewer gems you’ll get with each dig.</p><p>When gems are running low, you may want to travel to a new planet. </p> <p>  Planets are very far apart in this galaxy, so it will take some time to travel between them. </p> <br><p>There are lots and lots of planets for you to visit, so you won’t be able to return to any planets you’ve seen before. </p><br><p>To leave this planet and travel to a new one, press the letter <strong>‘L’</strong> on your keyboard. Try pressing it now! </p><p><img src='run_exp/static/images/task_images/rocket-01.jpg'  height='600' width='auto'></p>",,,,,,,,,,,,,,,,,,,,,,,
instruc_travel_try,13,103443,0.0-7.0-4.0,"""event"",""trial"",""time""
""fullscreenenter"",""1"",""3845""
","
","
","""event"",""trial"",""time""
""fullscreenenter"",""1"",""3845""
","
",,1245.6,"<p>Every time you dig up gems, there are less gems on the planet, so the more you dig on a planet the fewer gems you’ll get with each dig.</p><p>When gems are running low, you may want to travel to a new planet. </p> <p>  Planets are very far apart in this galaxy, so it will take some time to travel between them. </p> <br><p>There are lots and lots of planets for you to visit, so you won’t be able to return to any planets you’ve seen before. </p><br><p>To leave this planet and travel to a new one, press the letter <strong>‘L’</strong> on your keyboard. Try pressing it now! </p><p><img src='run_exp/static/images/task_images/rocket-01.jpg'  height='600' width='auto'></p>",76,"<p>Every time you dig up gems, there are less gems on the planet, so the more you dig on a planet the fewer gems you’ll get with each dig.</p><p>When gems are running low, you may want to travel to a new planet. </p> <p>  Planets are very far apart in this galaxy, so it will take some time to travel between them. </p> <br><p>There are lots and lots of planets for you to visit, so you won’t be able to return to any planets you’ve seen before. </p><br><p>To leave this planet and travel to a new one, press the letter <strong>‘L’</strong> on your keyboard. Try pressing it now! </p><p><img src='run_exp/static/images/task_images/rocket-01.jpg'  height='600' width='auto'></p>",,,,,,,,,,,,,,,,,,,,,,,
travel_prac,14,113450,0.0-7.0-5.0,"""event"",""trial"",""time""
""fullscreenenter"",""1"",""3845""
","
","
","""event"",""trial"",""time""
""fullscreenenter"",""1"",""3845""
","
",,,,,,,,,,,,"[{""stimulus"":""run_exp/static/images/task_images/rocket-01.jpg"",""time"":0.7000000029802322},{""stimulus"":""run_exp/static/images/task_images/rocket-02.jpg"",""time"":1115.6000000014901},{""stimulus"":""run_exp/static/images/task_images/rocket-03.jpg"",""time"":2224.300000000745},{""stimulus"":""run_exp/static/images/task_images/rocket-04.jpg"",""time"":3336},{""stimulus"":""run_exp/static/images/task_images/rocket-05.jpg"",""time"":4446.800000000745},{""stimulus"":""run_exp/static/images/task_images/rocket-06.jpg"",""time"":5559.300000000745},{""stimulus"":""run_exp/static/images/task_images/rocket-07.jpg"",""time"":6669.20000000298},{""stimulus"":""run_exp/static/images/task_images/rocket-08.jpg"",""time"":7779.900000002235},{""stimulus"":""run_exp/static/images/task_images/rocket-09.jpg"",""time"":8892.20000000298}]",[],0,,,,,,,,,,,,,,
instruc_alien_greet,15,140955,0.0-7.0-6.0,"""event"",""trial"",""time""
""fullscreenenter"",""1"",""3845""
","
","
","""event"",""trial"",""time""
""fullscreenenter"",""1"",""3845""
","
",,null,run_exp/static/audio/clip_6_alien.m4a,null,"<p>When you arrive at a new planet, the alien who owns the treasure mine on that planet will greet you!</p><p>The better an alien takes care of their mine the easier it is to dig for gems. Some aliens take better care of their mine than others. So, you won’t get exactly the same amount of gems on each planet.</p><p>What the alien looks like does not tell you anything about how many gems there are on the planet.</p><br><p><img src=""run_exp/static/images/task_images/aliens/instructions_aliens/planet/alien_planet-1.jpg""  height=""600"" width=""auto""></p>",,,,,,,,,,,,,,,,,,,,,,,
instruc_alien_greet,16,143329,0.0-7.0-7.0,"""event"",""trial"",""time""
""fullscreenenter"",""1"",""3845""
","
","
","""event"",""trial"",""time""
""fullscreenenter"",""1"",""3845""
","
",,2366.8,"<p>When you arrive at a new planet, the alien who owns the treasure mine on that planet will greet you!</p><p>The better an alien takes care of their mine the easier it is to dig for gems. Some aliens take better care of their mine than others. So, you won’t get exactly the same amount of gems on each planet.</p><p>What the alien looks like does not tell you anything about how many gems there are on the planet.</p><br><p><img src=""run_exp/static/images/task_images/aliens/instructions_aliens/planet/alien_planet-1.jpg""  height=""600"" width=""auto""></p>",,,,,,,1,,,,,,,,,,,,,,,,,,
html-keyboard-response,17,144508,0.0-7.0-8.0,"""event"",""trial"",""time""
""fullscreenenter"",""1"",""3845""
","
","
","""event"",""trial"",""time""
""fullscreenenter"",""1"",""3845""
","
",,1172.2,"<p>When you arrive at a new planet, the alien who owns the treasure mine on that planet will greet you!</p><p>The better an alien takes care of their mine the easier it is to dig for gems. Some aliens take better care of their mine than others. So, you won’t get exactly the same amount of gems on each planet.</p><p>What the alien looks like does not tell you anything about how many gems there are on the planet.</p><br><p><img src=""run_exp/static/images/task_images/aliens/instructions_aliens/planet/alien_planet-1.jpg""  height=""600"" width=""auto""></p><button class=""jspsych-html-btn-unchosen""><img src=""run_exp/static/images/task_images/planet-01.jpg"" height=""50""></button><button class=""jspsych-html-btn-chosen""><img src=""run_exp/static/images/task_images/planet-02.jpg"" height=""50""></button><p><b>[press the space bar to lock in your answer]<b><br></p>",32,,,,,,,,,,,,,,,,,,,,,,,,
time_out,18,155938,0.0-8.0-0.0,"""event"",""trial"",""time""
""fullscreenenter"",""1"",""3845""
","
","
","""event"",""trial"",""time""
""fullscreenenter"",""1"",""3845""
","
",,null,run_exp/static/audio/clip_7_timeout.m4a,null,"<p>If you don't make your choice fast enough, you’ll have to wait a few seconds before you can make another one.</p><p>You can’t dig for more gems or travel to new planets. You just have to sit and wait.</p><br><p><img src='run_exp/static/images/task_images/time_out.jpg'  height='600' width='auto'></p>",,,,,,,,,,,,,,,,,,,,,,,
time_out,19,158349,0.0-8.0-1.0,"""event"",""trial"",""time""
""fullscreenenter"",""1"",""3845""
","
","
","""event"",""trial"",""time""
""fullscreenenter"",""1"",""3845""
","
",,2403.9,"<p>If you don't make your choice fast enough, you’ll have to wait a few seconds before you can make another one.</p><p>You can’t dig for more gems or travel to new planets. You just have to sit and wait.</p><br><p><img src='run_exp/static/images/task_images/time_out.jpg'  height='600' width='auto'></p>",,,,,,,1,,,,,,,,,,,,,,,,,,
html-keyboard-response,20,158618,0.0-8.0-2.0,"""event"",""trial"",""time""
""fullscreenenter"",""1"",""3845""
","
","
","""event"",""trial"",""time""
""fullscreenenter"",""1"",""3845""
","
",,264,"<p>If you don't make your choice fast enough, you’ll have to wait a few seconds before you can make another one.</p><p>You can’t dig for more gems or travel to new planets. You just have to sit and wait.</p><br><p><img src='run_exp/static/images/task_images/time_out.jpg'  height='600' width='auto'></p><button class=""jspsych-html-btn-unchosen""><img src=""run_exp/static/images/task_images/planet-01.jpg"" height=""50""></button><button class=""jspsych-html-btn-chosen""><img src=""run_exp/static/images/task_images/planet-02.jpg"" height=""50""></button><p><b>[press the space bar to lock in your answer]<b><br></p>",32,,,,,,,,,,,,,,,,,,,,,,,,
instruc_break,21,174632,0.0-9.0-0.0,"""event"",""trial"",""time""
""fullscreenenter"",""1"",""3845""
","
","
","""event"",""trial"",""time""
""fullscreenenter"",""1"",""3845""
","
",,null,run_exp/static/audio/clip_8_break.m4a,null,"<p> After digging and traveling for a while, you’ll be able to take a break at home base. </p><p>The game will last 20 minutes no matter what.</p><p>You will visit home base every 5 minutes, so, you will visit home base three times during the game.</p><br><p><img src='run_exp/static/images/task_images/home_base.jpg' height='600' width='auto'></p>",,,,,,,,,,,,,,,,,,,,,,,
instruc_break,22,180113,0.0-9.0-1.0,"""event"",""trial"",""time""
""fullscreenenter"",""1"",""3845""
","
","
","""event"",""trial"",""time""
""fullscreenenter"",""1"",""3845""
","
",,5466.5,"<p> After digging and traveling for a while, you’ll be able to take a break at home base. </p><p>The game will last 20 minutes no matter what.</p><p>You will visit home base every 5 minutes, so, you will visit home base three times during the game.</p><br><p><img src='run_exp/static/images/task_images/home_base.jpg' height='600' width='auto'></p>",,,,,,,1,,,,,,,,,,,,,,,,,,
html-keyboard-response,23,180246,0.0-9.0-2.0,"""event"",""trial"",""time""
""fullscreenenter"",""1"",""3845""
","
","
","""event"",""trial"",""time""
""fullscreenenter"",""1"",""3845""
","
",,128,"<p> After digging and traveling for a while, you’ll be able to take a break at home base. </p><p>The game will last 20 minutes no matter what.</p><p>You will visit home base every 5 minutes, so, you will visit home base three times during the game.</p><br><p><img src='run_exp/static/images/task_images/home_base.jpg' height='600' width='auto'></p><button class=""jspsych-html-btn-unchosen""><img src=""run_exp/static/images/task_images/planet-01.jpg"" height=""50""></button><button class=""jspsych-html-btn-chosen""><img src=""run_exp/static/images/task_images/planet-02.jpg"" height=""50""></button><p><b>[press the space bar to lock in your answer]<b><br></p>",32,,,,,,,,,,,,,,,,,,,,,,,,
instruc_prac_game,24,190773,0.0-10.0-0.0,"""event"",""trial"",""time""
""fullscreenenter"",""1"",""3845""
","
","
","""event"",""trial"",""time""
""fullscreenenter"",""1"",""3845""
","
",,null,run_exp/static/audio/clip_9_practice.m4a,null,"<p> Are you ready to play a practice game? </p> <p>In this practice game, you'll be digging up barrels of gems. But, in the real game, you'll be digging up the gems themselves. </p>",,,,,,,,,,,,,,,,,,,,,,,
html-button-response,25,193901,0.0-10.0-1.0,"""event"",""trial"",""time""
""fullscreenenter"",""1"",""3845""
","
","
","""event"",""trial"",""time""
""fullscreenenter"",""1"",""3845""
","
",,3122.2,"<p> Are you ready to play a practice game? </p> <p>In this practice game, you'll be digging up barrels of gems. But, in the real game, you'll be digging up the gems themselves. </p>",,,,,,,0,,,,,,,,,,,,,,,,,,
alien_welcome_prac,26,198912,0.0-11.0-0.0,"""event"",""trial"",""time""
""fullscreenenter"",""1"",""3845""
","
","
","""event"",""trial"",""time""
""fullscreenenter"",""1"",""3845""
","
",,null,run_exp/static/images/task_images/aliens/practice_aliens/planet/alien_planet-5.jpg,null,,,,,,,,,,,,,,,,,,,,,,,,
land_prac,27,199431,0.0-11.0-1.0,"""event"",""trial"",""time""
""fullscreenenter"",""1"",""3845""
","
","
","""event"",""trial"",""time""
""fullscreenenter"",""1"",""3845""
","
",,null,run_exp/static/images/task_images/land.jpg,null,,,,,,,101,,,0,,,,,,,,,,,,,,
dig_prac,28,201441,0.0-11.0-2.0,"""event"",""trial"",""time""
""fullscreenenter"",""1"",""3845""
","
","
","""event"",""trial"",""time""
""fullscreenenter"",""1"",""3845""
","
",,,,,,,,,,,,"[{""stimulus"":""run_exp/static/images/task_images/dig.jpg"",""time"":0.6000000014901161},{""stimulus"":""run_exp/static/images/task_images/land.jpg"",""time"":670.6999999992549},{""stimulus"":""run_exp/static/images/task_images/dig.jpg"",""time"":1337.6000000014901}]",[],,,,,,,,,,,,,,,
harvest_prac,29,202446,0.0-11.0-3.0,"""event"",""trial"",""time""
""fullscreenenter"",""1"",""3845""
","
","
","""event"",""trial"",""time""
""fullscreenenter"",""1"",""3845""
","
",,null,run_exp/static/images/task_images/barrel_text.jpg,null,,,,,,,,,,,,,,,,,,,,,,,,
decision_prac,30,202768,0.0-11.0-4.0,"""event"",""trial"",""time""
""fullscreenenter"",""1"",""3845""
","
","
","""event"",""trial"",""time""
""fullscreenenter"",""1"",""3845""
","
",,316,run_exp/static/images/task_images/land.jpg,65,,,,,,,,,,,1,,,,,,,,,,,,,
dig_prac,31,204787,0.0-12.0-0.0,"""event"",""trial"",""time""
""fullscreenenter"",""1"",""3845""
","
","
","""event"",""trial"",""time""
""fullscreenenter"",""1"",""3845""
","
",,,,,,,,,,,,"[{""stimulus"":""run_exp/static/images/task_images/dig.jpg"",""time"":0.7000000029802322},{""stimulus"":""run_exp/static/images/task_images/land.jpg"",""time"":671.2000000029802},{""stimulus"":""run_exp/static/images/task_images/dig.jpg"",""time"":1338.2000000029802}]",[],,,,,,,,,,,,,,,
harvest_prac,32,205791,0.0-12.0-1.0,"""event"",""trial"",""time""
""fullscreenenter"",""1"",""3845""
","
","
","""event"",""trial"",""time""
""fullscreenenter"",""1"",""3845""
","
",,null,run_exp/static/images/task_images/barrel_text.jpg,null,,,,,,,,,,,,,,,,,,,,,,,,
decision_prac,33,206825,0.0-12.0-2.0,"""event"",""trial"",""time""
""fullscreenenter"",""1"",""3845""
","
","
","""event"",""trial"",""time""
""fullscreenenter"",""1"",""3845""
","
",,1027.9,run_exp/static/images/task_images/land.jpg,65,,,,,,,,,,,2,,,,,,,,,,,,,
dig_prac,34,208840,0.0-13.0-0.0,"""event"",""trial"",""time""
""fullscreenenter"",""1"",""3845""
","
","
","""event"",""trial"",""time""
""fullscreenenter"",""1"",""3845""
","
",,,,,,,,,,,,"[{""stimulus"":""run_exp/static/images/task_images/dig.jpg"",""time"":0.6000000014901161},{""stimulus"":""run_exp/static/images/task_images/land.jpg"",""time"":673.3000000007451},{""stimulus"":""run_exp/static/images/task_images/dig.jpg"",""time"":1341.5}]",[],,,,,,,,,,,,,,,
harvest_prac,35,209845,0.0-13.0-1.0,"""event"",""trial"",""time""
""fullscreenenter"",""1"",""3845""
","
","
","""event"",""trial"",""time""
""fullscreenenter"",""1"",""3845""
","
",,null,run_exp/static/images/task_images/barrel_text.jpg,null,,,,,,,,,,,,,,,,,,,,,,,,
decision_prac,36,211472,0.0-13.0-2.0,"""event"",""trial"",""time""
""fullscreenenter"",""1"",""3845""
","
","
","""event"",""trial"",""time""
""fullscreenenter"",""1"",""3845""
","
",,1619,run_exp/static/images/task_images/land.jpg,65,,,,,,,,,,,3,,,,,,,,,,,,,
dig_prac,37,213487,0.0-14.0-0.0,"""event"",""trial"",""time""
""fullscreenenter"",""1"",""3845""
","
","
","""event"",""trial"",""time""
""fullscreenenter"",""1"",""3845""
","
",,,,,,,,,,,,"[{""stimulus"":""run_exp/static/images/task_images/dig.jpg"",""time"":0.5999999977648258},{""stimulus"":""run_exp/static/images/task_images/land.jpg"",""time"":670.3000000007451},{""stimulus"":""run_exp/static/images/task_images/dig.jpg"",""time"":1337}]",[],,,,,,,,,,,,,,,
harvest_prac,38,214494,0.0-14.0-1.0,"""event"",""trial"",""time""
""fullscreenenter"",""1"",""3845""
","
","
","""event"",""trial"",""time""
""fullscreenenter"",""1"",""3845""
","
",,null,run_exp/static/images/task_images/barrel_text.jpg,null,,,,,,,,,,,,,,,,,,,,,,,,
decision_prac,39,214921,0.0-14.0-2.0,"""event"",""trial"",""time""
""fullscreenenter"",""1"",""3845""
","
","
","""event"",""trial"",""time""
""fullscreenenter"",""1"",""3845""
","
",,421.4,run_exp/static/images/task_images/land.jpg,65,,,,,,,,,,,4,,,,,,,,,,,,,
dig_prac,40,216937,0.0-15.0-0.0,"""event"",""trial"",""time""
""fullscreenenter"",""1"",""3845""
","
","
","""event"",""trial"",""time""
""fullscreenenter"",""1"",""3845""
","
",,,,,,,,,,,,"[{""stimulus"":""run_exp/static/images/task_images/dig.jpg"",""time"":2.5},{""stimulus"":""run_exp/static/images/task_images/land.jpg"",""time"":671.8999999985099},{""stimulus"":""run_exp/static/images/task_images/dig.jpg"",""time"":1338.300000000745}]",[],,,,,,,,,,,,,,,
harvest_prac,41,217942,0.0-15.0-1.0,"""event"",""trial"",""time""
""fullscreenenter"",""1"",""3845""
","
","
","""event"",""trial"",""time""
""fullscreenenter"",""1"",""3845""
","
",,null,run_exp/static/images/task_images/barrel_text.jpg,null,,,,,,,,,,,,,,,,,,,,,,,,
decision_prac,42,218992,0.0-15.0-2.0,"""event"",""trial"",""time""
""fullscreenenter"",""1"",""3845""
","
","
","""event"",""trial"",""time""
""fullscreenenter"",""1"",""3845""
","
",,1044.1,run_exp/static/images/task_images/land.jpg,65,,,,,,,,,,,,1,,,,,,,,,,,,
quiz_instruc,43,240233,0.0-16.0-0.0,"""event"",""trial"",""time""
""fullscreenenter"",""1"",""3845""
","
","
","""event"",""trial"",""time""
""fullscreenenter"",""1"",""3845""
","
",,21226.3,run_exp/static/audio/clip_10_quiz.m4a,,,,,,,0,,,,,,,,,,,,,,,,,,
instruc_repeat,44,283413,0.0-16.0-1.0,"""event"",""trial"",""time""
""fullscreenenter"",""1"",""3845""
","
","
","""event"",""trial"",""time""
""fullscreenenter"",""1"",""3845""
","
",,null,"<p> Are you ready to play a practice game? </p> <p>In this practice game, you'll be digging up barrels of gems. But, in the real game, you'll be digging up the gems themselves. </p>",null,"<p>In this game, your goal is to collect as many gems as you can. That’s how you will win bonus money. </p> <p>The entire game will last 20 minutes no matter how many gems you collect or how many planets you visit. </p><p>To stay on a planet and dig again, press the letter A on your keyboard. To leave for a new planet, press the letter L.</p><p>The more you dig on a planet, the fewer gems you’ll get with each dig which is why you might consider leaving for a new planet. </p><p>When you arrive at a new planet, you’ll be greeted by an alien. What the alien looks like does not tell you anything about how much treasure is on the planet. </p>",,,,,,,,,,,,,,,,,,,,,,,
instruc_repeat_continue,45,292684,0.0-16.0-2.0,"""event"",""trial"",""time""
""fullscreenenter"",""1"",""3845""
","
","
","""event"",""trial"",""time""
""fullscreenenter"",""1"",""3845""
","
",,9262.9,"<p> Are you ready to play a practice game? </p> <p>In this practice game, you'll be digging up barrels of gems. But, in the real game, you'll be digging up the gems themselves. </p>",,,,,,,0,,,,,,,,,,,,,,,,,,
quiz_q_1_ask,46,297881,0.0-16.0-3.0,"""event"",""trial"",""time""
""fullscreenenter"",""1"",""3845""
","
","
","""event"",""trial"",""time""
""fullscreenenter"",""1"",""3845""
","
",,5182.5,run_exp/static/audio/clip_11_q1_ask.m4a,,,,,,,2,,,,,,,,,,,,,,,,,,
quiz_q_1_fb_correct,47,302103,0.0-17.0-0.0,"""event"",""trial"",""time""
""fullscreenenter"",""1"",""3845""
","
","
","""event"",""trial"",""time""
""fullscreenenter"",""1"",""3845""
","
",,null,run_exp/static/audio/clip_12_q1_correct.m4a,null,<p>That’s correct. You win extra money by collecting more gems.</p>,,,,,,,,,,,,,,,,,,,,,,,
quiz_q_2_ask,48,308170,0.0-17.0-1.0,"""event"",""trial"",""time""
""fullscreenenter"",""1"",""3845""
","
","
","""event"",""trial"",""time""
""fullscreenenter"",""1"",""3845""
","
",,6056.4,run_exp/static/audio/clip_14_q2_ask.m4a,,,,,,,1,,,,,,,,,,,,,,,,,,
quiz_q_2_fb_correct,49,312353,0.0-18.0-0.0,"""event"",""trial"",""time""
""fullscreenenter"",""1"",""3845""
","
","
","""event"",""trial"",""time""
""fullscreenenter"",""1"",""3845""
","
",,null,run_exp/static/audio/clip_15_q2_correct.m4a,null,<p>That’s correct. The experiment is 20 minutes no matter what.</p>,,,,,,,,,,,,,,,,,,,,,,,
quiz_q_3_ask,50,334904,0.0-18.0-1.0,"""event"",""trial"",""time""
""fullscreenenter"",""1"",""3845""
","
","
","""event"",""trial"",""time""
""fullscreenenter"",""1"",""3845""
","
",,22542.3,run_exp/static/audio/clip_17_q3_ask.m4a,,,,,,,1,,,,,,,,,,,,,,,,,,
quiz_q_3_fb_correct,51,339046,0.0-19.0-0.0,"""event"",""trial"",""time""
""fullscreenenter"",""1"",""3845""
","
","
","""event"",""trial"",""time""
""fullscreenenter"",""1"",""3845""
","
",,null,run_exp/static/audio/clip_18_q3_correct.m4a,null,<p> That’s correct. You press the letter L to travel to a new planet.</p>,,,,,,,,,,,,,,,,,,,,,,,
quiz_q_4_ask,52,346191,0.0-19.0-1.0,"""event"",""trial"",""time""
""fullscreenenter"",""1"",""3845""
","
","
","""event"",""trial"",""time""
""fullscreenenter"",""1"",""3845""
","
",,7136.9,run_exp/static/audio/clip_20_q4_ask.m4a,,,,,,,1,,,,,,,,,,,,,,,,,,
quiz_q_4_fb_incorrect,53,352367,0.0-20.0-0.0,"""event"",""trial"",""time""
""fullscreenenter"",""1"",""3845""
","
","
","""event"",""trial"",""time""
""fullscreenenter"",""1"",""3845""
","
",,null,run_exp/static/audio/clip_22_q4_incorrect.m4a,null,<p>That’s incorrect.  The more you dig on a planet the fewer gems you’ll get with each dig.</p>,,,,,,,,,,,,,,,,,,,,,,,
quiz_q_5_ask,54,359557,0.0-20.0-1.0,"""event"",""trial"",""time""
""fullscreenenter"",""1"",""3845""
","
","
","""event"",""trial"",""time""
""fullscreenenter"",""1"",""3845""
","
",,7181.7,run_exp/static/audio/clip_23_q5_ask.m4a,,,,,,,1,,,,,,,,,,,,,,,,,,
quiz_q_5_fb_correct,55,364921,0.0-21.0-0.0,"""event"",""trial"",""time""
""fullscreenenter"",""1"",""3845""
","
","
","""event"",""trial"",""time""
""fullscreenenter"",""1"",""3845""
","
",,null,run_exp/static/audio/clip_24_q5_correct.m4a,null,<p> That’s correct. The alien tells you nothing about how much treasure is on the planet.</p>,,,,,,,,,,,,,,,,,,,,,,,
quiz_incorrect,56,370808,0.0-22.0-0.0,"""event"",""trial"",""time""
""fullscreenenter"",""1"",""3845""
","
","
","""event"",""trial"",""time""
""fullscreenenter"",""1"",""3845""
","
",,null,run_exp/static/audio/clip_27_incorrect_quiz.m4a,null,,,,,,,,,,,,,,,,,,,,,,,,
quiz_incorrect_continue,57,372622,0.0-22.0-1.0,"""event"",""trial"",""time""
""fullscreenenter"",""1"",""3845""
","
","
","""event"",""trial"",""time""
""fullscreenenter"",""1"",""3845""
","
",,1806.5,"<p>Oops, you missed some questions.</p><p>Now that you’ve heard the correct answers. Try the quiz again!</p>",,,,,,,0,,,,,,,,,,,,,,,,,,
quiz_q_1_ask,58,375610,0.0-22.0-2.0,"""event"",""trial"",""time""
""fullscreenenter"",""1"",""3845""
","
","
","""event"",""trial"",""time""
""fullscreenenter"",""1"",""3845""
","
",,2976,run_exp/static/audio/clip_11_q1_ask.m4a,,,,,,,2,,,,,,,,,,,,,,,,,,
quiz_q_1_fb_correct,59,379772,0.0-23.0-0.0,"""event"",""trial"",""time""
""fullscreenenter"",""1"",""3845""
","
","
","""event"",""trial"",""time""
""fullscreenenter"",""1"",""3845""
","
",,null,run_exp/static/audio/clip_12_q1_correct.m4a,null,<p>That’s correct. You win extra money by collecting more gems.</p>,,,,,,,,,,,,,,,,,,,,,,,
quiz_q_2_ask,60,381422,0.0-23.0-1.0,"""event"",""trial"",""time""
""fullscreenenter"",""1"",""3845""
","
","
","""event"",""trial"",""time""
""fullscreenenter"",""1"",""3845""
","
",,1643.4,run_exp/static/audio/clip_14_q2_ask.m4a,,,,,,,1,,,,,,,,,,,,,,,,,,
quiz_q_2_fb_correct,61,385663,0.0-24.0-0.0,"""event"",""trial"",""time""
""fullscreenenter"",""1"",""3845""
","
","
","""event"",""trial"",""time""
""fullscreenenter"",""1"",""3845""
","
",,null,run_exp/static/audio/clip_15_q2_correct.m4a,null,<p>That’s correct. The experiment is 20 minutes no matter what.</p>,,,,,,,,,,,,,,,,,,,,,,,
quiz_q_3_ask,62,388816,0.0-24.0-1.0,"""event"",""trial"",""time""
""fullscreenenter"",""1"",""3845""
","
","
","""event"",""trial"",""time""
""fullscreenenter"",""1"",""3845""
","
",,3142.1,run_exp/static/audio/clip_17_q3_ask.m4a,,,,,,,1,,,,,,,,,,,,,,,,,,
quiz_q_3_fb_correct,63,393092,0.0-25.0-0.0,"""event"",""trial"",""time""
""fullscreenenter"",""1"",""3845""
","
","
","""event"",""trial"",""time""
""fullscreenenter"",""1"",""3845""
","
",,null,run_exp/static/audio/clip_18_q3_correct.m4a,null,<p> That’s correct. You press the letter L to travel to a new planet.</p>,,,,,,,,,,,,,,,,,,,,,,,
quiz_q_4_ask,64,396330,0.0-25.0-1.0,"""event"",""trial"",""time""
""fullscreenenter"",""1"",""3845""
","
","
","""event"",""trial"",""time""
""fullscreenenter"",""1"",""3845""
","
",,3229.9,run_exp/static/audio/clip_20_q4_ask.m4a,,,,,,,0,,,,,,,,,,,,,,,,,,
quiz_q_4_fb_correct,65,402060,0.0-26.0-0.0,"""event"",""trial"",""time""
""fullscreenenter"",""1"",""3845""
","
","
","""event"",""trial"",""time""
""fullscreenenter"",""1"",""3845""
","
",,null,run_exp/static/audio/clip_21_q4_correct.m4a,null,<p> That’s correct. The more you dig on a planet the fewer gems you’ll get with each dig. </p>,,,,,,,,,,,,,,,,,,,,,,,
quiz_q_5_ask,66,407902,0.0-26.0-1.0,"""event"",""trial"",""time""
""fullscreenenter"",""1"",""3845""
","
","
","""event"",""trial"",""time""
""fullscreenenter"",""1"",""3845""
","
",,5837,run_exp/static/audio/clip_23_q5_ask.m4a,,,,,,,1,,,,,,,,,,,,,,,,,,
quiz_q_5_fb_correct,67,413196,0.0-27.0-0.0,"""event"",""trial"",""time""
""fullscreenenter"",""1"",""3845""
","
","
","""event"",""trial"",""time""
""fullscreenenter"",""1"",""3845""
","
",,null,run_exp/static/audio/clip_24_q5_correct.m4a,null,<p> That’s correct. The alien tells you nothing about how much treasure is on the planet.</p>,,,,,,,,,,,,,,,,,,,,,,,
quiz_correct,68,417039,0.0-28.0-0.0,"""event"",""trial"",""time""
""fullscreenenter"",""1"",""3845""
","
","
","""event"",""trial"",""time""
""fullscreenenter"",""1"",""3845""
","
",,null,run_exp/static/audio/clip_26_correct_quiz.m4a,null,,,,,,,,,,,,,,,,,,,,,,,,
quiz_correct_continue,69,418189,0.0-28.0-1.0,"""event"",""trial"",""time""
""fullscreenenter"",""1"",""3845""
","
","
","""event"",""trial"",""time""
""fullscreenenter"",""1"",""3845""
","
",,1142.3,<p>Good job! You're now ready to move on to the real game!</p>,,,,,,,0,,,,,,,,,,,,,,,,,,
audio-keyboard-response,70,428691,0.0-28.0-2.0,"""event"",""trial"",""time""
""fullscreenenter"",""1"",""3845""
","
","
","""event"",""trial"",""time""
""fullscreenenter"",""1"",""3845""
","
",,null,run_exp/static/audio/clip_28_real_game.m4a,null,,,,,,,,,,,,,,,,,,,,,,,,
instruc_begin_exp_contine,71,430662,0.0-28.0-3.0,"""event"",""trial"",""time""
""fullscreenenter"",""1"",""3845""
","
","
","""event"",""trial"",""time""
""fullscreenenter"",""1"",""3845""
","
",,1961.5,"<p>Now that you know how  to dig for space treasure and travel to new planets,you can start exploring! </p><p>Do you want to go over the instructions again or get started with the real game?</p>",,,,,,,1,,,,,,1,,,,,,,,,,,,
alien_welcome,72,435676,0.0-29.0-0.0,"""event"",""trial"",""time""
""fullscreenenter"",""1"",""3845""
","
","
","""event"",""trial"",""time""
""fullscreenenter"",""1"",""3845""
","
",,null,run_exp/static/images/task_images/aliens/old_aliens/planet/alien_planet-77.jpg,null,,,,,,,,,,,,,77,"77,57,52,42,61,29,30,25,23,69,6,47,65,56,40,44,55,20,68,39,18,71",,,,,,,,,,
land,73,436191,0.0-29.0-1.0,"""event"",""trial"",""time""
""fullscreenenter"",""1"",""3845""
","
","
","""event"",""trial"",""time""
""fullscreenenter"",""1"",""3845""
","
",,null,run_exp/static/images/task_images/land.jpg,null,,,,,,,100,,,1,,,,,,,,,,,,,,
dig,74,438201,0.0-29.0-2.0,"""event"",""trial"",""time""
""fullscreenenter"",""1"",""3845""
","
","
","""event"",""trial"",""time""
""fullscreenenter"",""1"",""3845""
","
",,,,,,,,,,,,"[{""stimulus"":""run_exp/static/images/task_images/dig.jpg"",""time"":0.6000000014901161},{""stimulus"":""run_exp/static/images/task_images/land.jpg"",""time"":671.6999999992549},{""stimulus"":""run_exp/static/images/task_images/dig.jpg"",""time"":1338}]",[],1,,,,,,,,,,,,,,
harvest,75,439211,0.0-29.0-3.0,"""event"",""trial"",""time""
""fullscreenenter"",""1"",""3845""
","
","
","""event"",""trial"",""time""
""fullscreenenter"",""1"",""3845""
","
",,null,run_exp/static/images/task_images/gems/100.jpg,null,,,,,,,17,,,1,,,,,100,0.167297632,0.17,,,,,,,
decision,76,439259,0.0-29.0-4.0,"""event"",""trial"",""time""
""fullscreenenter"",""1"",""3845""
","
","
","""event"",""trial"",""time""
""fullscreenenter"",""1"",""3845""
","
",,45.3,run_exp/static/images/task_images/land.jpg,65,,,,,,,17,,,1,,,,,,,,8591,1,0,FALSE,,,
dig,77,442245,0.0-30.0-0.0,"""event"",""trial"",""time""
""fullscreenenter"",""1"",""3845""
","
","
","""event"",""trial"",""time""
""fullscreenenter"",""1"",""3845""
","
",,,,,,,,,,,,"[{""stimulus"":""run_exp/static/images/task_images/dig.jpg"",""time"":0.6999999992549419},{""stimulus"":""run_exp/static/images/task_images/land.jpg"",""time"":990},{""stimulus"":""run_exp/static/images/task_images/dig.jpg"",""time"":1971}]",[],1,,,,,,,,,,,,,,
harvest,78,443250,0.0-30.0-1.0,"""event"",""trial"",""time""
""fullscreenenter"",""1"",""3845""
","
","
","""event"",""trial"",""time""
""fullscreenenter"",""1"",""3845""
","
",,null,run_exp/static/images/task_images/gems/17.jpg,null,,,,,,,4,,,1,,,,,17,0.218937707,0.235294118,,,,,,,
decision,79,443356,0.0-30.0-2.0,"""event"",""trial"",""time""
""fullscreenenter"",""1"",""3845""
","
","
","""event"",""trial"",""time""
""fullscreenenter"",""1"",""3845""
","
",,102.7,run_exp/static/images/task_images/land.jpg,65,,,,,,,4,,,1,,,,,,,,12687,1,1,FALSE,,,
dig,80,446264,0.0-31.0-0.0,"""event"",""trial"",""time""
""fullscreenenter"",""1"",""3845""
","
","
","""event"",""trial"",""time""
""fullscreenenter"",""1"",""3845""
","
",,,,,,,,,,,,"[{""stimulus"":""run_exp/static/images/task_images/dig.jpg"",""time"":0.6000000014901161},{""stimulus"":""run_exp/static/images/task_images/land.jpg"",""time"":967.6999999992549},{""stimulus"":""run_exp/static/images/task_images/dig.jpg"",""time"":1933.9000000022352}]",[],1,,,,,,,,,,,,,,
harvest,81,447268,0.0-31.0-1.0,"""event"",""trial"",""time""
""fullscreenenter"",""1"",""3845""
","
","
","""event"",""trial"",""time""
""fullscreenenter"",""1"",""3845""
","
",,null,run_exp/static/images/task_images/gems/4.jpg,null,,,,,,,1,,,1,,,,,4,0.166435571,0.25,,,,,,,
decision,82,448354,0.0-31.0-2.0,"""event"",""trial"",""time""
""fullscreenenter"",""1"",""3845""
","
","
","""event"",""trial"",""time""
""fullscreenenter"",""1"",""3845""
","
",,1081.5,run_exp/static/images/task_images/land.jpg,65,,,,,,,1,,,1,,,,,,,,17685,1,2,FALSE,,,
dig,83,450288,0.0-32.0-0.0,"""event"",""trial"",""time""
""fullscreenenter"",""1"",""3845""
","
","
","""event"",""trial"",""time""
""fullscreenenter"",""1"",""3845""
","
",,,,,,,,,,,,"[{""stimulus"":""run_exp/static/images/task_images/dig.jpg"",""time"":0.6999999992549419},{""stimulus"":""run_exp/static/images/task_images/land.jpg"",""time"":645.8000000007451},{""stimulus"":""run_exp/static/images/task_images/dig.jpg"",""time"":1281.699999999255}]",[],1,,,,,,,,,,,,,,
harvest,84,451293,0.0-32.0-1.0,"""event"",""trial"",""time""
""fullscreenenter"",""1"",""3845""
","
","
","""event"",""trial"",""time""
""fullscreenenter"",""1"",""3845""
","
",,null,run_exp/static/images/task_images/gems/1.jpg,null,,,,,,,0,,,1,,,,,1,0.174759534,0,,,,,,,
decision,85,452038,0.0-32.0-2.0,"""event"",""trial"",""time""
""fullscreenenter"",""1"",""3845""
","
","
","""event"",""trial"",""time""
""fullscreenenter"",""1"",""3845""
","
",,737.8,run_exp/static/images/task_images/land.jpg,65,,,,,,,0,,,1,,,,,,,,21369,1,3,FALSE,,,
dig,86,454314,0.0-33.0-0.0,"""event"",""trial"",""time""
""fullscreenenter"",""1"",""3845""
","
","
","""event"",""trial"",""time""
""fullscreenenter"",""1"",""3845""
","
",,,,,,,,,,,,"[{""stimulus"":""run_exp/static/images/task_images/dig.jpg"",""time"":0.8000000007450581},{""stimulus"":""run_exp/static/images/task_images/land.jpg"",""time"":756.8000000007451},{""stimulus"":""run_exp/static/images/task_images/dig.jpg"",""time"":1511.5}]",[],1,,,,,,,,,,,,,,
harvest,87,455319,0.0-33.0-1.0,"""event"",""trial"",""time""
""fullscreenenter"",""1"",""3845""
","
","
","""event"",""trial"",""time""
""fullscreenenter"",""1"",""3845""
","
",,null,run_exp/static/images/task_images/gems/0.jpg,null,,,,,,,0,,,1,,,,,0,0.100517183,NaN,,,,,,,
decision,88,455444,0.0-33.0-2.0,"""event"",""trial"",""time""
""fullscreenenter"",""1"",""3845""
","
","
","""event"",""trial"",""time""
""fullscreenenter"",""1"",""3845""
","
",,118.8,run_exp/static/images/task_images/land.jpg,65,,,,,,,0,,,1,,,,,,,,24775,1,4,FALSE,,,
dig,89,458341,0.0-34.0-0.0,"""event"",""trial"",""time""
""fullscreenenter"",""1"",""3845""
","
","
","""event"",""trial"",""time""
""fullscreenenter"",""1"",""3845""
","
",,,,,,,,,,,,"[{""stimulus"":""run_exp/static/images/task_images/dig.jpg"",""time"":0.6999999992549419},{""stimulus"":""run_exp/static/images/task_images/land.jpg"",""time"":963.1000000014901},{""stimulus"":""run_exp/static/images/task_images/dig.jpg"",""time"":1924.800000000745}]",[],1,,,,,,,,,,,,,,
harvest,90,459349,0.0-34.0-1.0,"""event"",""trial"",""time""
""fullscreenenter"",""1"",""3845""
","
","
","""event"",""trial"",""time""
""fullscreenenter"",""1"",""3845""
","
",,null,run_exp/static/images/task_images/gems/0.jpg,null,,,,,,,0,,,1,,,,,0,0.135252738,NaN,,,,,,,
decision,91,459447,0.0-34.0-2.0,"""event"",""trial"",""time""
""fullscreenenter"",""1"",""3845""
","
","
","""event"",""trial"",""time""
""fullscreenenter"",""1"",""3845""
","
",,91.1,run_exp/static/images/task_images/land.jpg,65,,,,,,,0,,,1,,,,,,,,28778,1,5,FALSE,,,
dig,92,462372,0.0-35.0-0.0,"""event"",""trial"",""time""
""fullscreenenter"",""1"",""3845""
","
","
","""event"",""trial"",""time""
""fullscreenenter"",""1"",""3845""
","
",,,,,,,,,,,,"[{""stimulus"":""run_exp/static/images/task_images/dig.jpg"",""time"":0.6000000014901161},{""stimulus"":""run_exp/static/images/task_images/land.jpg"",""time"":971.3000000007451},{""stimulus"":""run_exp/static/images/task_images/dig.jpg"",""time"":1942.6000000014901}]",[],1,,,,,,,,,,,,,,
harvest,93,463383,0.0-35.0-1.0,"""event"",""trial"",""time""
""fullscreenenter"",""1"",""3845""
","
","
","""event"",""trial"",""time""
""fullscreenenter"",""1"",""3845""
","
",,null,run_exp/static/images/task_images/gems/0.jpg,null,,,,,,,0,,,1,,,,,0,0.172978141,NaN,,,,,,,
decision,94,464424,0.0-35.0-2.0,"""event"",""trial"",""time""
""fullscreenenter"",""1"",""3845""
","
","
","""event"",""trial"",""time""
""fullscreenenter"",""1"",""3845""
","
",,1033.1,run_exp/static/images/task_images/land.jpg,76,,,,,,,0,,,1,,,,,,,,33755,1,6,TRUE,,,
travel,95,473405,0.0-36.0-0.0,"""event"",""trial"",""time""
""fullscreenenter"",""1"",""3845""
","
","
","""event"",""trial"",""time""
""fullscreenenter"",""1"",""3845""
","
",,,,,,,,,,,,"[{""stimulus"":""run_exp/static/images/task_images/rocket-01.jpg"",""time"":0.9000000022351742},{""stimulus"":""run_exp/static/images/task_images/rocket-02.jpg"",""time"":1001.4000000022352},{""stimulus"":""run_exp/static/images/task_images/rocket-03.jpg"",""time"":1997.5},{""stimulus"":""run_exp/static/images/task_images/rocket-04.jpg"",""time"":2993.10000000149},{""stimulus"":""run_exp/static/images/task_images/rocket-05.jpg"",""time"":3990},{""stimulus"":""run_exp/static/images/task_images/rocket-06.jpg"",""time"":4984},{""stimulus"":""run_exp/static/images/task_images/rocket-07.jpg"",""time"":5981.60000000149},{""stimulus"":""run_exp/static/images/task_images/rocket-08.jpg"",""time"":6978.199999999255},{""stimulus"":""run_exp/static/images/task_images/rocket-09.jpg"",""time"":7974.900000002235}]",[],1,,,,,,,,,,,,,,
alien_welcome,96,478411,0.0-36.0-1.0,"""event"",""trial"",""time""
""fullscreenenter"",""1"",""3845""
","
","
","""event"",""trial"",""time""
""fullscreenenter"",""1"",""3845""
","
",,null,run_exp/static/images/task_images/aliens/old_aliens/planet/alien_planet-57.jpg,null,,,,,,,,,,,,,57,"77,57,52,42,61,29,30,25,23,69,6,47,65,56,40,44,55,20,68,39,18,71",,,,,,,,,,
land,97,478918,0.0-36.0-2.0,"""event"",""trial"",""time""
""fullscreenenter"",""1"",""3845""
","
","
","""event"",""trial"",""time""
""fullscreenenter"",""1"",""3845""
","
",,null,run_exp/static/images/task_images/land.jpg,null,,,,,,,108,,,2,,,,,,,,,,,,,,
dig,98,480932,0.0-36.0-3.0,"""event"",""trial"",""time""
""fullscreenenter"",""1"",""3845""
","
","
","""event"",""trial"",""time""
""fullscreenenter"",""1"",""3845""
","
",,,,,,,,,,,,"[{""stimulus"":""run_exp/static/images/task_images/dig.jpg"",""time"":0.8999999985098839},{""stimulus"":""run_exp/static/images/task_images/land.jpg"",""time"":670.8999999985099},{""stimulus"":""run_exp/static/images/task_images/dig.jpg"",""time"":1337.5}]",[],2,,,,,,,,,,,,,,
harvest,99,481940,0.0-36.0-4.0,"""event"",""trial"",""time""
""fullscreenenter"",""1"",""3845""
","
","
","""event"",""trial"",""time""
""fullscreenenter"",""1"",""3845""
","
",,null,run_exp/static/images/task_images/gems/108.jpg,null,,,,,,,22,,,2,,,,,108,0.207320908,0.203703704,,,,,,,
decision,100,482706,0.0-36.0-5.0,"""event"",""trial"",""time""
""fullscreenenter"",""1"",""3845""
","
","
","""event"",""trial"",""time""
""fullscreenenter"",""1"",""3845""
","
",,759.2,run_exp/static/images/task_images/land.jpg,65,,,,,,,22,,,2,,,,,,,,52037,1,0,FALSE,,,
dig,101,484985,0.0-37.0-0.0,"""event"",""trial"",""time""
""fullscreenenter"",""1"",""3845""
","
","
","""event"",""trial"",""time""
""fullscreenenter"",""1"",""3845""
","
",,,,,,,,,,,,"[{""stimulus"":""run_exp/static/images/task_images/dig.jpg"",""time"":0.6999999992549419},{""stimulus"":""run_exp/static/images/task_images/land.jpg"",""time"":750.6999999992549},{""stimulus"":""run_exp/static/images/task_images/dig.jpg"",""time"":1496.199999999255}]",[],2,,,,,,,,,,,,,,
harvest,102,485987,0.0-37.0-1.0,"""event"",""trial"",""time""
""fullscreenenter"",""1"",""3845""
","
","
","""event"",""trial"",""time""
""fullscreenenter"",""1"",""3845""
","
",,null,run_exp/static/images/task_images/gems/22.jpg,null,,,,,,,3,,,2,,,,,22,0.126515015,0.136363636,,,,,,,
decision,103,486386,0.0-37.0-2.0,"""event"",""trial"",""time""
""fullscreenenter"",""1"",""3845""
","
","
","""event"",""trial"",""time""
""fullscreenenter"",""1"",""3845""
","
",,395.1,run_exp/static/images/task_images/land.jpg,65,,,,,,,3,,,2,,,,,,,,55717,1,1,FALSE,,,
dig,104,489007,0.0-38.0-0.0,"""event"",""trial"",""time""
""fullscreenenter"",""1"",""3845""
","
","
","""event"",""trial"",""time""
""fullscreenenter"",""1"",""3845""
","
",,,,,,,,,,,,"[{""stimulus"":""run_exp/static/images/task_images/dig.jpg"",""time"":0.6999999992549419},{""stimulus"":""run_exp/static/images/task_images/land.jpg"",""time"":873.3999999985099},{""stimulus"":""run_exp/static/images/task_images/dig.jpg"",""time"":1739.300000000745}]",[],2,,,,,,,,,,,,,,
harvest,105,490011,0.0-38.0-1.0,"""event"",""trial"",""time""
""fullscreenenter"",""1"",""3845""
","
","
","""event"",""trial"",""time""
""fullscreenenter"",""1"",""3845""
","
",,null,run_exp/static/images/task_images/gems/3.jpg,null,,,,,,,1,,,2,,,,,3,0.168808035,0.333333333,,,,,,,
decision,106,490470,0.0-38.0-2.0,"""event"",""trial"",""time""
""fullscreenenter"",""1"",""3845""
","
","
","""event"",""trial"",""time""
""fullscreenenter"",""1"",""3845""
","
",,454.7,run_exp/static/images/task_images/land.jpg,65,,,,,,,1,,,2,,,,,,,,59801,1,2,FALSE,,,
dig,107,493030,0.0-39.0-0.0,"""event"",""trial"",""time""
""fullscreenenter"",""1"",""3845""
","
","
","""event"",""trial"",""time""
""fullscreenenter"",""1"",""3845""
","
",,,,,,,,,,,,"[{""stimulus"":""run_exp/static/images/task_images/dig.jpg"",""time"":0.8000000007450581},{""stimulus"":""run_exp/static/images/task_images/land.jpg"",""time"":853.8000000007451},{""stimulus"":""run_exp/static/images/task_images/dig.jpg"",""time"":1701.300000000745}]",[],2,,,,,,,,,,,,,,
harvest,108,494037,0.0-39.0-1.0,"""event"",""trial"",""time""
""fullscreenenter"",""1"",""3845""
","
","
","""event"",""trial"",""time""
""fullscreenenter"",""1"",""3845""
","
",,null,run_exp/static/images/task_images/gems/1.jpg,null,,,,,,,0,,,2,,,,,1,0.259595229,0,,,,,,,
decision,109,494614,0.0-39.0-2.0,"""event"",""trial"",""time""
""fullscreenenter"",""1"",""3845""
","
","
","""event"",""trial"",""time""
""fullscreenenter"",""1"",""3845""
","
",,570.4,run_exp/static/images/task_images/land.jpg,65,,,,,,,0,,,2,,,,,,,,63946,1,3,FALSE,,,
dig,110,497056,0.0-40.0-0.0,"""event"",""trial"",""time""
""fullscreenenter"",""1"",""3845""
","
","
","""event"",""trial"",""time""
""fullscreenenter"",""1"",""3845""
","
",,,,,,,,,,,,"[{""stimulus"":""run_exp/static/images/task_images/dig.jpg"",""time"":0.7999999970197678},{""stimulus"":""run_exp/static/images/task_images/land.jpg"",""time"":818.2999999970198},{""stimulus"":""run_exp/static/images/task_images/dig.jpg"",""time"":1624.0999999977648}]",[],2,,,,,,,,,,,,,,
harvest,111,498062,0.0-40.0-1.0,"""event"",""trial"",""time""
""fullscreenenter"",""1"",""3845""
","
","
","""event"",""trial"",""time""
""fullscreenenter"",""1"",""3845""
","
",,null,run_exp/static/images/task_images/gems/0.jpg,null,,,,,,,0,,,2,,,,,0,0.18540536,NaN,,,,,,,
decision,112,499057,0.0-40.0-2.0,"""event"",""trial"",""time""
""fullscreenenter"",""1"",""3845""
","
","
","""event"",""trial"",""time""
""fullscreenenter"",""1"",""3845""
","
",,988.6,run_exp/static/images/task_images/land.jpg,65,,,,,,,0,,,2,,,,,,,,68389,1,4,FALSE,,,
dig,113,501084,0.0-41.0-0.0,"""event"",""trial"",""time""
""fullscreenenter"",""1"",""3845""
","
","
","""event"",""trial"",""time""
""fullscreenenter"",""1"",""3845""
","
",,,,,,,,,,,,"[{""stimulus"":""run_exp/static/images/task_images/dig.jpg"",""time"":0.6999999992549419},{""stimulus"":""run_exp/static/images/task_images/land.jpg"",""time"":674.1999999992549},{""stimulus"":""run_exp/static/images/task_images/dig.jpg"",""time"":1343.5999999977648}]",[],2,,,,,,,,,,,,,,
harvest,114,502089,0.0-41.0-1.0,"""event"",""trial"",""time""
""fullscreenenter"",""1"",""3845""
","
","
","""event"",""trial"",""time""
""fullscreenenter"",""1"",""3845""
","
",,null,run_exp/static/images/task_images/gems/0.jpg,null,,,,,,,0,,,2,,,,,0,0.297597161,NaN,,,,,,,
decision,115,502872,0.0-41.0-2.0,"""event"",""trial"",""time""
""fullscreenenter"",""1"",""3845""
","
","
","""event"",""trial"",""time""
""fullscreenenter"",""1"",""3845""
","
",,776.2,run_exp/static/images/task_images/land.jpg,65,,,,,,,0,,,2,,,,,,,,72203,1,5,FALSE,,,
dig,116,505117,0.0-42.0-0.0,"""event"",""trial"",""time""
""fullscreenenter"",""1"",""3845""
","
","
","""event"",""trial"",""time""
""fullscreenenter"",""1"",""3845""
","
",,,,,,,,,,,,"[{""stimulus"":""run_exp/static/images/task_images/dig.jpg"",""time"":1.1000000014901161},{""stimulus"":""run_exp/static/images/task_images/land.jpg"",""time"":746.6999999992549},{""stimulus"":""run_exp/static/images/task_images/dig.jpg"",""time"":1486.4000000022352}]",[],2,,,,,,,,,,,,,,
harvest,117,506122,0.0-42.0-1.0,"""event"",""trial"",""time""
""fullscreenenter"",""1"",""3845""
","
","
","""event"",""trial"",""time""
""fullscreenenter"",""1"",""3845""
","
",,null,run_exp/static/images/task_images/gems/0.jpg,null,,,,,,,0,,,2,,,,,0,0.26036561,NaN,,,,,,,
decision,118,506172,0.0-42.0-2.0,"""event"",""trial"",""time""
""fullscreenenter"",""1"",""3845""
","
","
","""event"",""trial"",""time""
""fullscreenenter"",""1"",""3845""
","
",,43,run_exp/static/images/task_images/land.jpg,65,,,,,,,0,,,2,,,,,,,,75503,1,6,FALSE,,,
dig,119,509142,0.0-43.0-0.0,"""event"",""trial"",""time""
""fullscreenenter"",""1"",""3845""
","
","
","""event"",""trial"",""time""
""fullscreenenter"",""1"",""3845""
","
",,,,,,,,,,,,"[{""stimulus"":""run_exp/static/images/task_images/dig.jpg"",""time"":0.6999999992549419},{""stimulus"":""run_exp/static/images/task_images/land.jpg"",""time"":988},{""stimulus"":""run_exp/static/images/task_images/dig.jpg"",""time"":1974.5}]",[],2,,,,,,,,,,,,,,
harvest,120,510152,0.0-43.0-1.0,"""event"",""trial"",""time""
""fullscreenenter"",""1"",""3845""
","
","
","""event"",""trial"",""time""
""fullscreenenter"",""1"",""3845""
","
",,null,run_exp/static/images/task_images/gems/0.jpg,null,,,,,,,0,,,2,,,,,0,0.141259049,NaN,,,,,,,
decision,121,510658,0.0-43.0-2.0,"""event"",""trial"",""time""
""fullscreenenter"",""1"",""3845""
","
","
","""event"",""trial"",""time""
""fullscreenenter"",""1"",""3845""
","
",,493.2,run_exp/static/images/task_images/land.jpg,76,,,,,,,0,,,2,,,,,,,,79989,1,7,TRUE,,,
travel,122,520180,0.0-44.0-0.0,"""event"",""trial"",""time""
""fullscreenenter"",""1"",""3845""
","
","
","""event"",""trial"",""time""
""fullscreenenter"",""1"",""3845""
","
",,,,,,,,,,,,"[{""stimulus"":""run_exp/static/images/task_images/rocket-01.jpg"",""time"":0.8000000007450581},{""stimulus"":""run_exp/static/images/task_images/rocket-02.jpg"",""time"":1061.3999999985099},{""stimulus"":""run_exp/static/images/task_images/rocket-03.jpg"",""time"":2117.199999999255},{""stimulus"":""run_exp/static/images/task_images/rocket-04.jpg"",""time"":3173.5},{""stimulus"":""run_exp/static/images/task_images/rocket-05.jpg"",""time"":4230.89999999851},{""stimulus"":""run_exp/static/images/task_images/rocket-06.jpg"",""time"":5285.699999999255},{""stimulus"":""run_exp/static/images/task_images/rocket-07.jpg"",""time"":6339},{""stimulus"":""run_exp/static/images/task_images/rocket-08.jpg"",""time"":7396.099999997765},{""stimulus"":""run_exp/static/images/task_images/rocket-09.jpg"",""time"":8453.300000000745}]",[],2,,,,,,,,,,,,,,
alien_welcome,123,525195,0.0-44.0-1.0,"""event"",""trial"",""time""
""fullscreenenter"",""1"",""3845""
","
","
","""event"",""trial"",""time""
""fullscreenenter"",""1"",""3845""
","
",,null,run_exp/static/images/task_images/aliens/old_aliens/planet/alien_planet-52.jpg,null,,,,,,,,,,,,,52,"77,57,52,42,61,29,30,25,23,69,6,47,65,56,40,44,55,20,68,39,18,71",,,,,,,,,,
land,124,525706,0.0-44.0-2.0,"""event"",""trial"",""time""
""fullscreenenter"",""1"",""3845""
","
","
","""event"",""trial"",""time""
""fullscreenenter"",""1"",""3845""
","
",,null,run_exp/static/images/task_images/land.jpg,null,,,,,,,106,,,3,,,,,,,,,,,,,,
dig,125,527723,0.0-44.0-3.0,"""event"",""trial"",""time""
""fullscreenenter"",""1"",""3845""
","
","
","""event"",""trial"",""time""
""fullscreenenter"",""1"",""3845""
","
",,,,,,,,,,,,"[{""stimulus"":""run_exp/static/images/task_images/dig.jpg"",""time"":0.8000000007450581},{""stimulus"":""run_exp/static/images/task_images/land.jpg"",""time"":671.3000000007451},{""stimulus"":""run_exp/static/images/task_images/dig.jpg"",""time"":1337.8999999985099}]",[],3,,,,,,,,,,,,,,
harvest,126,528727,0.0-44.0-4.0,"""event"",""trial"",""time""
""fullscreenenter"",""1"",""3845""
","
","
","""event"",""trial"",""time""
""fullscreenenter"",""1"",""3845""
","
",,null,run_exp/static/images/task_images/gems/106.jpg,null,,,,,,,49,,,3,,,,,106,0.464757009,0.462264151,,,,,,,
decision,127,529354,0.0-44.0-5.0,"""event"",""trial"",""time""
""fullscreenenter"",""1"",""3845""
","
","
","""event"",""trial"",""time""
""fullscreenenter"",""1"",""3845""
","
",,622.8,run_exp/static/images/task_images/land.jpg,65,,,,,,,49,,,3,,,,,,,,98685,1,0,FALSE,,,
dig,128,531752,0.0-45.0-0.0,"""event"",""trial"",""time""
""fullscreenenter"",""1"",""3845""
","
","
","""event"",""trial"",""time""
""fullscreenenter"",""1"",""3845""
","
",,,,,,,,,,,,"[{""stimulus"":""run_exp/static/images/task_images/dig.jpg"",""time"":0.8000000007450581},{""stimulus"":""run_exp/static/images/task_images/land.jpg"",""time"":803},{""stimulus"":""run_exp/static/images/task_images/dig.jpg"",""time"":1590}]",[],3,,,,,,,,,,,,,,
harvest,129,532757,0.0-45.0-1.0,"""event"",""trial"",""time""
""fullscreenenter"",""1"",""3845""
","
","
","""event"",""trial"",""time""
""fullscreenenter"",""1"",""3845""
","
",,null,run_exp/static/images/task_images/gems/49.jpg,null,,,,,,,22,,,3,,,,,49,0.452887525,0.448979592,,,,,,,
decision,130,532995,0.0-45.0-2.0,"""event"",""trial"",""time""
""fullscreenenter"",""1"",""3845""
","
","
","""event"",""trial"",""time""
""fullscreenenter"",""1"",""3845""
","
",,232.1,run_exp/static/images/task_images/land.jpg,65,,,,,,,22,,,3,,,,,,,,102326,1,1,FALSE,,,
dig,131,535777,0.0-46.0-0.0,"""event"",""trial"",""time""
""fullscreenenter"",""1"",""3845""
","
","
","""event"",""trial"",""time""
""fullscreenenter"",""1"",""3845""
","
",,,,,,,,,,,,"[{""stimulus"":""run_exp/static/images/task_images/dig.jpg"",""time"":0.6999999992549419},{""stimulus"":""run_exp/static/images/task_images/land.jpg"",""time"":925.6000000014901},{""stimulus"":""run_exp/static/images/task_images/dig.jpg"",""time"":1848.800000000745}]",[],3,,,,,,,,,,,,,,
harvest,132,536785,0.0-46.0-1.0,"""event"",""trial"",""time""
""fullscreenenter"",""1"",""3845""
","
","
","""event"",""trial"",""time""
""fullscreenenter"",""1"",""3845""
","
",,null,run_exp/static/images/task_images/gems/22.jpg,null,,,,,,,13,,,3,,,,,22,0.571720308,0.590909091,,,,,,,
decision,133,537453,0.0-46.0-2.0,"""event"",""trial"",""time""
""fullscreenenter"",""1"",""3845""
","
","
","""event"",""trial"",""time""
""fullscreenenter"",""1"",""3845""
","
",,658,run_exp/static/images/task_images/land.jpg,65,,,,,,,13,,,3,,,,,,,,106784,1,2,FALSE,,,
dig,134,539805,0.0-47.0-0.0,"""event"",""trial"",""time""
""fullscreenenter"",""1"",""3845""
","
","
","""event"",""trial"",""time""
""fullscreenenter"",""1"",""3845""
","
",,,,,,,,,,,,"[{""stimulus"":""run_exp/static/images/task_images/dig.jpg"",""time"":0.6999999992549419},{""stimulus"":""run_exp/static/images/task_images/land.jpg"",""time"":784.1000000014901},{""stimulus"":""run_exp/static/images/task_images/dig.jpg"",""time"":1564.3999999985099}]",[],3,,,,,,,,,,,,,,
harvest,135,540808,0.0-47.0-1.0,"""event"",""trial"",""time""
""fullscreenenter"",""1"",""3845""
","
","
","""event"",""trial"",""time""
""fullscreenenter"",""1"",""3845""
","
",,null,run_exp/static/images/task_images/gems/13.jpg,null,,,,,,,6,,,3,,,,,13,0.490417152,0.461538462,,,,,,,
decision,136,541212,0.0-47.0-2.0,"""event"",""trial"",""time""
""fullscreenenter"",""1"",""3845""
","
","
","""event"",""trial"",""time""
""fullscreenenter"",""1"",""3845""
","
",,398.2,run_exp/static/images/task_images/land.jpg,65,,,,,,,6,,,3,,,,,,,,110543,1,3,FALSE,,,
dig,137,543835,0.0-48.0-0.0,"""event"",""trial"",""time""
""fullscreenenter"",""1"",""3845""
","
","
","""event"",""trial"",""time""
""fullscreenenter"",""1"",""3845""
","
",,,,,,,,,,,,"[{""stimulus"":""run_exp/static/images/task_images/dig.jpg"",""time"":0.6999999992549419},{""stimulus"":""run_exp/static/images/task_images/land.jpg"",""time"":871.3999999985099},{""stimulus"":""run_exp/static/images/task_images/dig.jpg"",""time"":1738.800000000745}]",[],3,,,,,,,,,,,,,,
harvest,138,544840,0.0-48.0-1.0,"""event"",""trial"",""time""
""fullscreenenter"",""1"",""3845""
","
","
","""event"",""trial"",""time""
""fullscreenenter"",""1"",""3845""
","
",,null,run_exp/static/images/task_images/gems/6.jpg,null,,,,,,,3,,,3,,,,,6,0.56143404,0.5,,,,,,,
decision,139,545352,0.0-48.0-2.0,"""event"",""trial"",""time""
""fullscreenenter"",""1"",""3845""
","
","
","""event"",""trial"",""time""
""fullscreenenter"",""1"",""3845""
","
",,506.6,run_exp/static/images/task_images/land.jpg,65,,,,,,,3,,,3,,,,,,,,114684,1,4,FALSE,,,
dig,140,547865,0.0-49.0-0.0,"""event"",""trial"",""time""
""fullscreenenter"",""1"",""3845""
","
","
","""event"",""trial"",""time""
""fullscreenenter"",""1"",""3845""
","
",,,,,,,,,,,,"[{""stimulus"":""run_exp/static/images/task_images/dig.jpg"",""time"":0.6999999992549419},{""stimulus"":""run_exp/static/images/task_images/land.jpg"",""time"":834.8000000007451},{""stimulus"":""run_exp/static/images/task_images/dig.jpg"",""time"":1666.4000000022352}]",[],3,,,,,,,,,,,,,,
harvest,141,548872,0.0-49.0-1.0,"""event"",""trial"",""time""
""fullscreenenter"",""1"",""3845""
","
","
","""event"",""trial"",""time""
""fullscreenenter"",""1"",""3845""
","
",,null,run_exp/static/images/task_images/gems/3.jpg,null,,,,,,,1,,,3,,,,,3,0.401921568,0.333333333,,,,,,,
decision,142,549435,0.0-49.0-2.0,"""event"",""trial"",""time""
""fullscreenenter"",""1"",""3845""
","
","
","""event"",""trial"",""time""
""fullscreenenter"",""1"",""3845""
","
",,556.6,run_exp/static/images/task_images/land.jpg,65,,,,,,,1,,,3,,,,,,,,118767,1,5,FALSE,,,
dig,143,551893,0.0-50.0-0.0,"""event"",""trial"",""time""
""fullscreenenter"",""1"",""3845""
","
","
","""event"",""trial"",""time""
""fullscreenenter"",""1"",""3845""
","
",,,,,,,,,,,,"[{""stimulus"":""run_exp/static/images/task_images/dig.jpg"",""time"":0.8999999985098839},{""stimulus"":""run_exp/static/images/task_images/land.jpg"",""time"":819.6999999992549},{""stimulus"":""run_exp/static/images/task_images/dig.jpg"",""time"":1633.199999999255}]",[],3,,,,,,,,,,,,,,
harvest,144,552898,0.0-50.0-1.0,"""event"",""trial"",""time""
""fullscreenenter"",""1"",""3845""
","
","
","""event"",""trial"",""time""
""fullscreenenter"",""1"",""3845""
","
",,null,run_exp/static/images/task_images/gems/1.jpg,null,,,,,,,1,,,3,,,,,1,0.526507078,1,,,,,,,
decision,145,553015,0.0-50.0-2.0,"""event"",""trial"",""time""
""fullscreenenter"",""1"",""3845""
","
","
","""event"",""trial"",""time""
""fullscreenenter"",""1"",""3845""
","
",,111.1,run_exp/static/images/task_images/land.jpg,65,,,,,,,1,,,3,,,,,,,,122346,1,6,FALSE,,,
dig,146,555921,0.0-51.0-0.0,"""event"",""trial"",""time""
""fullscreenenter"",""1"",""3845""
","
","
","""event"",""trial"",""time""
""fullscreenenter"",""1"",""3845""
","
",,,,,,,,,,,,"[{""stimulus"":""run_exp/static/images/task_images/dig.jpg"",""time"":0.6999999992549419},{""stimulus"":""run_exp/static/images/task_images/land.jpg"",""time"":966.8999999985099},{""stimulus"":""run_exp/static/images/task_images/dig.jpg"",""time"":1928.699999999255}]",[],3,,,,,,,,,,,,,,
harvest,147,556926,0.0-51.0-1.0,"""event"",""trial"",""time""
""fullscreenenter"",""1"",""3845""
","
","
","""event"",""trial"",""time""
""fullscreenenter"",""1"",""3845""
","
",,null,run_exp/static/images/task_images/gems/1.jpg,null,,,,,,,0,,,3,,,,,1,0.492558625,0,,,,,,,
decision,148,557533,0.0-51.0-2.0,"""event"",""trial"",""time""
""fullscreenenter"",""1"",""3845""
","
","
","""event"",""trial"",""time""
""fullscreenenter"",""1"",""3845""
","
",,600.6,run_exp/static/images/task_images/land.jpg,65,,,,,,,0,,,3,,,,,,,,126865,1,7,FALSE,,,
dig,149,559951,0.0-52.0-0.0,"""event"",""trial"",""time""
""fullscreenenter"",""1"",""3845""
","
","
","""event"",""trial"",""time""
""fullscreenenter"",""1"",""3845""
","
",,,,,,,,,,,,"[{""stimulus"":""run_exp/static/images/task_images/dig.jpg"",""time"":1.800000000745058},{""stimulus"":""run_exp/static/images/task_images/land.jpg"",""time"":804.8000000007451},{""stimulus"":""run_exp/static/images/task_images/dig.jpg"",""time"":1604.300000000745}]",[],3,,,,,,,,,,,,,,
harvest,150,560959,0.0-52.0-1.0,"""event"",""trial"",""time""
""fullscreenenter"",""1"",""3845""
","
","
","""event"",""trial"",""time""
""fullscreenenter"",""1"",""3845""
","
",,null,run_exp/static/images/task_images/gems/0.jpg,null,,,,,,,0,,,3,,,,,0,0.510536646,NaN,,,,,,,
decision,151,561143,0.0-52.0-2.0,"""event"",""trial"",""time""
""fullscreenenter"",""1"",""3845""
","
","
","""event"",""trial"",""time""
""fullscreenenter"",""1"",""3845""
","
",,175.8,run_exp/static/images/task_images/land.jpg,65,,,,,,,0,,,3,,,,,,,,130474,1,8,FALSE,,,
dig,152,563983,0.0-53.0-0.0,"""event"",""trial"",""time""
""fullscreenenter"",""1"",""3845""
","
","
","""event"",""trial"",""time""
""fullscreenenter"",""1"",""3845""
","
",,,,,,,,,,,,"[{""stimulus"":""run_exp/static/images/task_images/dig.jpg"",""time"":0.6000000014901161},{""stimulus"":""run_exp/static/images/task_images/land.jpg"",""time"":948.8000000007451},{""stimulus"":""run_exp/static/images/task_images/dig.jpg"",""time"":1886.7000000029802}]",[],3,,,,,,,,,,,,,,
harvest,153,564988,0.0-53.0-1.0,"""event"",""trial"",""time""
""fullscreenenter"",""1"",""3845""
","
","
","""event"",""trial"",""time""
""fullscreenenter"",""1"",""3845""
","
",,null,run_exp/static/images/task_images/gems/0.jpg,null,,,,,,,0,,,3,,,,,0,0.525136702,NaN,,,,,,,
decision,154,565128,0.0-53.0-2.0,"""event"",""trial"",""time""
""fullscreenenter"",""1"",""3845""
","
","
","""event"",""trial"",""time""
""fullscreenenter"",""1"",""3845""
","
",,134,run_exp/static/images/task_images/land.jpg,65,,,,,,,0,,,3,,,,,,,,134459,1,9,FALSE,,,
dig,155,568012,0.0-54.0-0.0,"""event"",""trial"",""time""
""fullscreenenter"",""1"",""3845""
","
","
","""event"",""trial"",""time""
""fullscreenenter"",""1"",""3845""
","
",,,,,,,,,,,,"[{""stimulus"":""run_exp/static/images/task_images/dig.jpg"",""time"":0.8000000007450581},{""stimulus"":""run_exp/static/images/task_images/land.jpg"",""time"":961.7000000029802},{""stimulus"":""run_exp/static/images/task_images/dig.jpg"",""time"":1916}]",[],3,,,,,,,,,,,,,,
harvest,156,569020,0.0-54.0-1.0,"""event"",""trial"",""time""
""fullscreenenter"",""1"",""3845""
","
","
","""event"",""trial"",""time""
""fullscreenenter"",""1"",""3845""
","
",,null,run_exp/static/images/task_images/gems/0.jpg,null,,,,,,,0,,,3,,,,,0,0.507075651,NaN,,,,,,,
decision,157,569592,0.0-54.0-2.0,"""event"",""trial"",""time""
""fullscreenenter"",""1"",""3845""
","
","
","""event"",""trial"",""time""
""fullscreenenter"",""1"",""3845""
","
",,567,run_exp/static/images/task_images/land.jpg,65,,,,,,,0,,,3,,,,,,,,138925,1,10,FALSE,,,
dig,158,572047,0.0-55.0-0.0,"""event"",""trial"",""time""
""fullscreenenter"",""1"",""3845""
","
","
","""event"",""trial"",""time""
""fullscreenenter"",""1"",""3845""
","
",,,,,,,,,,,,"[{""stimulus"":""run_exp/static/images/task_images/dig.jpg"",""time"":0.8999999985098839},{""stimulus"":""run_exp/static/images/task_images/land.jpg"",""time"":818.1000000014901},{""stimulus"":""run_exp/static/images/task_images/dig.jpg"",""time"":1625.3999999985099}]",[],3,,,,,,,,,,,,,,
harvest,159,573053,0.0-55.0-1.0,"""event"",""trial"",""time""
""fullscreenenter"",""1"",""3845""
","
","
","""event"",""trial"",""time""
""fullscreenenter"",""1"",""3845""
","
",,null,run_exp/static/images/task_images/gems/0.jpg,null,,,,,,,0,,,3,,,,,0,0.543849601,NaN,,,,,,,
decision,160,573496,0.0-55.0-2.0,"""event"",""trial"",""time""
""fullscreenenter"",""1"",""3845""
","
","
","""event"",""trial"",""time""
""fullscreenenter"",""1"",""3845""
","
",,438.5,run_exp/static/images/task_images/land.jpg,76,,,,,,,0,,,3,,,,,,,,142828,1,11,TRUE,,,
travel,161,583071,0.0-56.0-0.0,"""event"",""trial"",""time""
""fullscreenenter"",""1"",""3845""
","
","
","""event"",""trial"",""time""
""fullscreenenter"",""1"",""3845""
","
",,,,,,,,,,,,"[{""stimulus"":""run_exp/static/images/task_images/rocket-01.jpg"",""time"":0.6999999992549419},{""stimulus"":""run_exp/static/images/task_images/rocket-02.jpg"",""time"":1066},{""stimulus"":""run_exp/static/images/task_images/rocket-03.jpg"",""time"":2129.800000000745},{""stimulus"":""run_exp/static/images/task_images/rocket-04.jpg"",""time"":3193},{""stimulus"":""run_exp/static/images/task_images/rocket-05.jpg"",""time"":4253.60000000149},{""stimulus"":""run_exp/static/images/task_images/rocket-06.jpg"",""time"":5313.5},{""stimulus"":""run_exp/static/images/task_images/rocket-07.jpg"",""time"":6375.5},{""stimulus"":""run_exp/static/images/task_images/rocket-08.jpg"",""time"":7438.5},{""stimulus"":""run_exp/static/images/task_images/rocket-09.jpg"",""time"":8501.39999999851}]",[],3,,,,,,,,,,,,,,
alien_welcome,162,588083,0.0-56.0-1.0,"""event"",""trial"",""time""
""fullscreenenter"",""1"",""3845""
","
","
","""event"",""trial"",""time""
""fullscreenenter"",""1"",""3845""
","
",,null,run_exp/static/images/task_images/aliens/old_aliens/planet/alien_planet-42.jpg,null,,,,,,,,,,,,,42,"77,57,52,42,61,29,30,25,23,69,6,47,65,56,40,44,55,20,68,39,18,71",,,,,,,,,,
land,163,588596,0.0-56.0-2.0,"""event"",""trial"",""time""
""fullscreenenter"",""1"",""3845""
","
","
","""event"",""trial"",""time""
""fullscreenenter"",""1"",""3845""
","
",,null,run_exp/static/images/task_images/land.jpg,null,,,,,,,105,,,4,,,,,,,,,,,,,,
dig,164,590608,0.0-56.0-3.0,"""event"",""trial"",""time""
""fullscreenenter"",""1"",""3845""
","
","
","""event"",""trial"",""time""
""fullscreenenter"",""1"",""3845""
","
",,,,,,,,,,,,"[{""stimulus"":""run_exp/static/images/task_images/dig.jpg"",""time"":0.8000000007450581},{""stimulus"":""run_exp/static/images/task_images/land.jpg"",""time"":669.8999999985099},{""stimulus"":""run_exp/static/images/task_images/dig.jpg"",""time"":1341.8999999985099}]",[],4,,,,,,,,,,,,,,
harvest,165,591616,0.0-56.0-4.0,"""event"",""trial"",""time""
""fullscreenenter"",""1"",""3845""
","
","
","""event"",""trial"",""time""
""fullscreenenter"",""1"",""3845""
","
",,null,run_exp/static/images/task_images/gems/105.jpg,null,,,,,,,49,,,4,,,,,105,0.464647731,0.466666667,,,,,,,
decision,166,592259,0.0-56.0-5.0,"""event"",""trial"",""time""
""fullscreenenter"",""1"",""3845""
","
","
","""event"",""trial"",""time""
""fullscreenenter"",""1"",""3845""
","
",,637.2,run_exp/static/images/task_images/land.jpg,65,,,,,,,49,,,4,,,,,,,,161590,1,0,FALSE,,,
dig,167,594635,0.0-57.0-0.0,"""event"",""trial"",""time""
""fullscreenenter"",""1"",""3845""
","
","
","""event"",""trial"",""time""
""fullscreenenter"",""1"",""3845""
","
",,,,,,,,,,,,"[{""stimulus"":""run_exp/static/images/task_images/dig.jpg"",""time"":0.6999999992549419},{""stimulus"":""run_exp/static/images/task_images/land.jpg"",""time"":790.6999999992549},{""stimulus"":""run_exp/static/images/task_images/dig.jpg"",""time"":1580}]",[],4,,,,,,,,,,,,,,
harvest,168,595641,0.0-57.0-1.0,"""event"",""trial"",""time""
""fullscreenenter"",""1"",""3845""
","
","
","""event"",""trial"",""time""
""fullscreenenter"",""1"",""3845""
","
",,null,run_exp/static/images/task_images/gems/49.jpg,null,,,,,,,19,,,4,,,,,49,0.394267405,0.387755102,,,,,,,
decision,169,596142,0.0-57.0-2.0,"""event"",""trial"",""time""
""fullscreenenter"",""1"",""3845""
","
","
","""event"",""trial"",""time""
""fullscreenenter"",""1"",""3845""
","
",,492.3,run_exp/static/images/task_images/land.jpg,65,,,,,,,19,,,4,,,,,,,,165473,1,1,FALSE,,,
dig,170,598661,0.0-58.0-0.0,"""event"",""trial"",""time""
""fullscreenenter"",""1"",""3845""
","
","
","""event"",""trial"",""time""
""fullscreenenter"",""1"",""3845""
","
",,,,,,,,,,,,"[{""stimulus"":""run_exp/static/images/task_images/dig.jpg"",""time"":0.8000000007450581},{""stimulus"":""run_exp/static/images/task_images/land.jpg"",""time"":841.3000000007451},{""stimulus"":""run_exp/static/images/task_images/dig.jpg"",""time"":1674}]",[],4,,,,,,,,,,,,,,
harvest,171,599669,0.0-58.0-1.0,"""event"",""trial"",""time""
""fullscreenenter"",""1"",""3845""
","
","
","""event"",""trial"",""time""
""fullscreenenter"",""1"",""3845""
","
",,null,run_exp/static/images/task_images/gems/19.jpg,null,,,,,,,10,,,4,,,,,19,0.504915986,0.526315789,,,,,,,
decision,172,599689,0.0-58.0-2.0,"""event"",""trial"",""time""
""fullscreenenter"",""1"",""3845""
","
","
","""event"",""trial"",""time""
""fullscreenenter"",""1"",""3845""
","
",,17.3,run_exp/static/images/task_images/land.jpg,65,,,,,,,10,,,4,,,,,,,,169020,1,2,FALSE,,,
dig,173,602687,0.0-59.0-0.0,"""event"",""trial"",""time""
""fullscreenenter"",""1"",""3845""
","
","
","""event"",""trial"",""time""
""fullscreenenter"",""1"",""3845""
","
",,,,,,,,,,,,"[{""stimulus"":""run_exp/static/images/task_images/dig.jpg"",""time"":0.5999999977648258},{""stimulus"":""run_exp/static/images/task_images/land.jpg"",""time"":996.5},{""stimulus"":""run_exp/static/images/task_images/dig.jpg"",""time"":1993.699999999255}]",[],4,,,,,,,,,,,,,,
harvest,174,603692,0.0-59.0-1.0,"""event"",""trial"",""time""
""fullscreenenter"",""1"",""3845""
""blur"",""175"",""604239""
","""event"",""trial"",""time""
""blur"",""175"",""604239""
","
","""event"",""trial"",""time""
""fullscreenenter"",""1"",""3845""
","
",,null,run_exp/static/images/task_images/gems/10.jpg,null,,,,,,,5,,,4,,,,,10,0.510128762,0.5,,,,,,,
decision,175,606695,0.0-59.0-2.0,"""event"",""trial"",""time""
""fullscreenenter"",""1"",""3845""
""blur"",""175"",""604239""
""focus"",""176"",""606814""
","""event"",""trial"",""time""
""blur"",""175"",""604239""
","""event"",""trial"",""time""
""focus"",""176"",""606814""
","""event"",""trial"",""time""
""fullscreenenter"",""1"",""3845""
","
",,null,run_exp/static/images/task_images/land.jpg,null,,,,,,,5,,,4,,,,,,,,176026,1,3,FALSE,,,
time_out,176,608710,0.0-60.0-0.0,"""event"",""trial"",""time""
""fullscreenenter"",""1"",""3845""
""blur"",""175"",""604239""
""focus"",""176"",""606814""
","""event"",""trial"",""time""
""blur"",""175"",""604239""
","""event"",""trial"",""time""
""focus"",""176"",""606814""
","""event"",""trial"",""time""
""fullscreenenter"",""1"",""3845""
","
",,null,run_exp/static/images/task_images/time_out.jpg,null,,,,,,,5,,,,,,,,,,,,,,,,,
decision,177,608803,0.0-60.0-1.0,"""event"",""trial"",""time""
""fullscreenenter"",""1"",""3845""
""blur"",""175"",""604239""
""focus"",""176"",""606814""
","""event"",""trial"",""time""
""blur"",""175"",""604239""
","""event"",""trial"",""time""
""focus"",""176"",""606814""
","""event"",""trial"",""time""
""fullscreenenter"",""1"",""3845""
","
",,89.1,run_exp/static/images/task_images/land.jpg,65,,,,,,,5,,,4,,,,,,,,178136,1,3,FALSE,,,
dig,178,611731,0.0-61.0-0.0,"""event"",""trial"",""time""
""fullscreenenter"",""1"",""3845""
""blur"",""175"",""604239""
""focus"",""176"",""606814""
","""event"",""trial"",""time""
""blur"",""175"",""604239""
","""event"",""trial"",""time""
""focus"",""176"",""606814""
","""event"",""trial"",""time""
""fullscreenenter"",""1"",""3845""
","
",,,,,,,,,,,,"[{""stimulus"":""run_exp/static/images/task_images/dig.jpg"",""time"":0.6000000014901161},{""stimulus"":""run_exp/static/images/task_images/land.jpg"",""time"":972.1999999992549},{""stimulus"":""run_exp/static/images/task_images/dig.jpg"",""time"":1944.8999999985099}]",[],4,,,,,,,,,,,,,,
harvest,179,612737,0.0-61.0-1.0,"""event"",""trial"",""time""
""fullscreenenter"",""1"",""3845""
""blur"",""175"",""604239""
""focus"",""176"",""606814""
","""event"",""trial"",""time""
""blur"",""175"",""604239""
","""event"",""trial"",""time""
""focus"",""176"",""606814""
","""event"",""trial"",""time""
""fullscreenenter"",""1"",""3845""
","
",,null,run_exp/static/images/task_images/gems/5.jpg,null,,,,,,,3,,,4,,,,,5,0.55621731,0.6,,,,,,,
decision,180,613011,0.0-61.0-2.0,"""event"",""trial"",""time""
""fullscreenenter"",""1"",""3845""
""blur"",""175"",""604239""
""focus"",""176"",""606814""
","""event"",""trial"",""time""
""blur"",""175"",""604239""
","""event"",""trial"",""time""
""focus"",""176"",""606814""
","""event"",""trial"",""time""
""fullscreenenter"",""1"",""3845""
","
",,266.8,run_exp/static/images/task_images/land.jpg,65,,,,,,,3,,,4,,,,,,,,182342,1,4,FALSE,,,
dig,181,615757,0.0-62.0-0.0,"""event"",""trial"",""time""
""fullscreenenter"",""1"",""3845""
""blur"",""175"",""604239""
""focus"",""176"",""606814""
","""event"",""trial"",""time""
""blur"",""175"",""604239""
","""event"",""trial"",""time""
""focus"",""176"",""606814""
","""event"",""trial"",""time""
""fullscreenenter"",""1"",""3845""
","
",,,,,,,,,,,,"[{""stimulus"":""run_exp/static/images/task_images/dig.jpg"",""time"":0.8000000007450581},{""stimulus"":""run_exp/static/images/task_images/land.jpg"",""time"":915.7000000029802},{""stimulus"":""run_exp/static/images/task_images/dig.jpg"",""time"":1826.300000000745}]",[],4,,,,,,,,,,,,,,
harvest,182,616763,0.0-62.0-1.0,"""event"",""trial"",""time""
""fullscreenenter"",""1"",""3845""
""blur"",""175"",""604239""
""focus"",""176"",""606814""
","""event"",""trial"",""time""
""blur"",""175"",""604239""
","""event"",""trial"",""time""
""focus"",""176"",""606814""
","""event"",""trial"",""time""
""fullscreenenter"",""1"",""3845""
","
",,null,run_exp/static/images/task_images/gems/3.jpg,null,,,,,,,2,,,4,,,,,3,0.501049219,0.666666667,,,,,,,
decision,183,616956,0.0-62.0-2.0,"""event"",""trial"",""time""
""fullscreenenter"",""1"",""3845""
""blur"",""175"",""604239""
""focus"",""176"",""606814""
","""event"",""trial"",""time""
""blur"",""175"",""604239""
","""event"",""trial"",""time""
""focus"",""176"",""606814""
","""event"",""trial"",""time""
""fullscreenenter"",""1"",""3845""
","
",,189.3,run_exp/static/images/task_images/land.jpg,65,,,,,,,2,,,4,,,,,,,,186287,1,5,FALSE,,,
dig,184,619781,0.0-63.0-0.0,"""event"",""trial"",""time""
""fullscreenenter"",""1"",""3845""
""blur"",""175"",""604239""
""focus"",""176"",""606814""
","""event"",""trial"",""time""
""blur"",""175"",""604239""
","""event"",""trial"",""time""
""focus"",""176"",""606814""
","""event"",""trial"",""time""
""fullscreenenter"",""1"",""3845""
","
",,,,,,,,,,,,"[{""stimulus"":""run_exp/static/images/task_images/dig.jpg"",""time"":0.6000000014901161},{""stimulus"":""run_exp/static/images/task_images/land.jpg"",""time"":939.6999999992549},{""stimulus"":""run_exp/static/images/task_images/dig.jpg"",""time"":1876.6000000014901}]",[],4,,,,,,,,,,,,,,
harvest,185,620789,0.0-63.0-1.0,"""event"",""trial"",""time""
""fullscreenenter"",""1"",""3845""
""blur"",""175"",""604239""
""focus"",""176"",""606814""
","""event"",""trial"",""time""
""blur"",""175"",""604239""
","""event"",""trial"",""time""
""focus"",""176"",""606814""
","""event"",""trial"",""time""
""fullscreenenter"",""1"",""3845""
","
",,null,run_exp/static/images/task_images/gems/2.jpg,null,,,,,,,1,,,4,,,,,2,0.512335032,0.5,,,,,,,
decision,186,620997,0.0-63.0-2.0,"""event"",""trial"",""time""
""fullscreenenter"",""1"",""3845""
""blur"",""175"",""604239""
""focus"",""176"",""606814""
","""event"",""trial"",""time""
""blur"",""175"",""604239""
","""event"",""trial"",""time""
""focus"",""176"",""606814""
","""event"",""trial"",""time""
""fullscreenenter"",""1"",""3845""
","
",,201.1,run_exp/static/images/task_images/land.jpg,65,,,,,,,1,,,4,,,,,,,,190329,1,6,FALSE,,,
dig,187,623811,0.0-64.0-0.0,"""event"",""trial"",""time""
""fullscreenenter"",""1"",""3845""
""blur"",""175"",""604239""
""focus"",""176"",""606814""
","""event"",""trial"",""time""
""blur"",""175"",""604239""
","""event"",""trial"",""time""
""focus"",""176"",""606814""
","""event"",""trial"",""time""
""fullscreenenter"",""1"",""3845""
","
",,,,,,,,,,,,"[{""stimulus"":""run_exp/static/images/task_images/dig.jpg"",""time"":0.6999999992549419},{""stimulus"":""run_exp/static/images/task_images/land.jpg"",""time"":936.5},{""stimulus"":""run_exp/static/images/task_images/dig.jpg"",""time"":1867.6000000014901}]",[],4,,,,,,,,,,,,,,
harvest,188,624819,0.0-64.0-1.0,"""event"",""trial"",""time""
""fullscreenenter"",""1"",""3845""
""blur"",""175"",""604239""
""focus"",""176"",""606814""
","""event"",""trial"",""time""
""blur"",""175"",""604239""
","""event"",""trial"",""time""
""focus"",""176"",""606814""
","""event"",""trial"",""time""
""fullscreenenter"",""1"",""3845""
","
",,null,run_exp/static/images/task_images/gems/1.jpg,null,,,,,,,1,,,4,,,,,1,0.537131781,1,,,,,,,
decision,189,625082,0.0-64.0-2.0,"""event"",""trial"",""time""
""fullscreenenter"",""1"",""3845""
""blur"",""175"",""604239""
""focus"",""176"",""606814""
","""event"",""trial"",""time""
""blur"",""175"",""604239""
","""event"",""trial"",""time""
""focus"",""176"",""606814""
","""event"",""trial"",""time""
""fullscreenenter"",""1"",""3845""
","
",,258.8,run_exp/static/images/task_images/land.jpg,65,,,,,,,1,,,4,,,,,,,,194414,1,7,FALSE,,,
dig,190,627835,0.0-65.0-0.0,"""event"",""trial"",""time""
""fullscreenenter"",""1"",""3845""
""blur"",""175"",""604239""
""focus"",""176"",""606814""
","""event"",""trial"",""time""
""blur"",""175"",""604239""
","""event"",""trial"",""time""
""focus"",""176"",""606814""
","""event"",""trial"",""time""
""fullscreenenter"",""1"",""3845""
","
",,,,,,,,,,,,"[{""stimulus"":""run_exp/static/images/task_images/dig.jpg"",""time"":0.5999999977648258},{""stimulus"":""run_exp/static/images/task_images/land.jpg"",""time"":915.1999999992549},{""stimulus"":""run_exp/static/images/task_images/dig.jpg"",""time"":1830.5}]",[],4,,,,,,,,,,,,,,
harvest,191,628841,0.0-65.0-1.0,"""event"",""trial"",""time""
""fullscreenenter"",""1"",""3845""
""blur"",""175"",""604239""
""focus"",""176"",""606814""
","""event"",""trial"",""time""
""blur"",""175"",""604239""
","""event"",""trial"",""time""
""focus"",""176"",""606814""
","""event"",""trial"",""time""
""fullscreenenter"",""1"",""3845""
","
",,null,run_exp/static/images/task_images/gems/1.jpg,null,,,,,,,0,,,4,,,,,1,0.426597745,0,,,,,,,
decision,192,629018,0.0-65.0-2.0,"""event"",""trial"",""time""
""fullscreenenter"",""1"",""3845""
""blur"",""175"",""604239""
""focus"",""176"",""606814""
","""event"",""trial"",""time""
""blur"",""175"",""604239""
","""event"",""trial"",""time""
""focus"",""176"",""606814""
","""event"",""trial"",""time""
""fullscreenenter"",""1"",""3845""
","
",,170,run_exp/static/images/task_images/land.jpg,65,,,,,,,0,,,4,,,,,,,,198349,1,8,FALSE,,,
dig,193,631860,0.0-66.0-0.0,"""event"",""trial"",""time""
""fullscreenenter"",""1"",""3845""
""blur"",""175"",""604239""
""focus"",""176"",""606814""
","""event"",""trial"",""time""
""blur"",""175"",""604239""
","""event"",""trial"",""time""
""focus"",""176"",""606814""
","""event"",""trial"",""time""
""fullscreenenter"",""1"",""3845""
","
",,,,,,,,,,,,"[{""stimulus"":""run_exp/static/images/task_images/dig.jpg"",""time"":0.6000000014901161},{""stimulus"":""run_exp/static/images/task_images/land.jpg"",""time"":946.9000000022352},{""stimulus"":""run_exp/static/images/task_images/dig.jpg"",""time"":1888.9000000022352}]",[],4,,,,,,,,,,,,,,
harvest,194,632868,0.0-66.0-1.0,"""event"",""trial"",""time""
""fullscreenenter"",""1"",""3845""
""blur"",""175"",""604239""
""focus"",""176"",""606814""
","""event"",""trial"",""time""
""blur"",""175"",""604239""
","""event"",""trial"",""time""
""focus"",""176"",""606814""
","""event"",""trial"",""time""
""fullscreenenter"",""1"",""3845""
","
",,null,run_exp/static/images/task_images/gems/0.jpg,null,,,,,,,0,,,4,,,,,0,0.522517673,NaN,,,,,,,
decision,195,633087,0.0-66.0-2.0,"""event"",""trial"",""time""
""fullscreenenter"",""1"",""3845""
""blur"",""175"",""604239""
""focus"",""176"",""606814""
","""event"",""trial"",""time""
""blur"",""175"",""604239""
","""event"",""trial"",""time""
""focus"",""176"",""606814""
","""event"",""trial"",""time""
""fullscreenenter"",""1"",""3845""
","
",,212.2,run_exp/static/images/task_images/land.jpg,65,,,,,,,0,,,4,,,,,,,,202418,1,9,FALSE,,,
dig,196,635892,0.0-67.0-0.0,"""event"",""trial"",""time""
""fullscreenenter"",""1"",""3845""
""blur"",""175"",""604239""
""focus"",""176"",""606814""
","""event"",""trial"",""time""
""blur"",""175"",""604239""
","""event"",""trial"",""time""
""focus"",""176"",""606814""
","""event"",""trial"",""time""
""fullscreenenter"",""1"",""3845""
","
",,,,,,,,,,,,"[{""stimulus"":""run_exp/static/images/task_images/dig.jpg"",""time"":0.8000000007450581},{""stimulus"":""run_exp/static/images/task_images/land.jpg"",""time"":932.7000000029802},{""stimulus"":""run_exp/static/images/task_images/dig.jpg"",""time"":1861}]",[],4,,,,,,,,,,,,,,
harvest,197,636898,0.0-67.0-1.0,"""event"",""trial"",""time""
""fullscreenenter"",""1"",""3845""
""blur"",""175"",""604239""
""focus"",""176"",""606814""
","""event"",""trial"",""time""
""blur"",""175"",""604239""
","""event"",""trial"",""time""
""focus"",""176"",""606814""
","""event"",""trial"",""time""
""fullscreenenter"",""1"",""3845""
","
",,null,run_exp/static/images/task_images/gems/0.jpg,null,,,,,,,0,,,4,,,,,0,0.491609556,NaN,,,,,,,
decision,198,637329,0.0-67.0-2.0,"""event"",""trial"",""time""
""fullscreenenter"",""1"",""3845""
""blur"",""175"",""604239""
""focus"",""176"",""606814""
","""event"",""trial"",""time""
""blur"",""175"",""604239""
","""event"",""trial"",""time""
""focus"",""176"",""606814""
","""event"",""trial"",""time""
""fullscreenenter"",""1"",""3845""
","
",,426,run_exp/static/images/task_images/land.jpg,76,,,,,,,0,,,4,,,,,,,,206661,1,10,TRUE,,,
travel,199,646911,0.0-68.0-0.0,"""event"",""trial"",""time""
""fullscreenenter"",""1"",""3845""
""blur"",""175"",""604239""
""focus"",""176"",""606814""
","""event"",""trial"",""time""
""blur"",""175"",""604239""
","""event"",""trial"",""time""
""focus"",""176"",""606814""
","""event"",""trial"",""time""
""fullscreenenter"",""1"",""3845""
","
",,,,,,,,,,,,"[{""stimulus"":""run_exp/static/images/task_images/rocket-01.jpg"",""time"":0.7000000029802322},{""stimulus"":""run_exp/static/images/task_images/rocket-02.jpg"",""time"":1066.1000000014901},{""stimulus"":""run_exp/static/images/task_images/rocket-03.jpg"",""time"":2131.10000000149},{""stimulus"":""run_exp/static/images/task_images/rocket-04.jpg"",""time"":3191.60000000149},{""stimulus"":""run_exp/static/images/task_images/rocket-05.jpg"",""time"":4257.400000002235},{""stimulus"":""run_exp/static/images/task_images/rocket-06.jpg"",""time"":5320.400000002235},{""stimulus"":""run_exp/static/images/task_images/rocket-07.jpg"",""time"":6382.70000000298},{""stimulus"":""run_exp/static/images/task_images/rocket-08.jpg"",""time"":7445.900000002235},{""stimulus"":""run_exp/static/images/task_images/rocket-09.jpg"",""time"":8508.20000000298}]",[],4,,,,,,,,,,,,,,
alien_welcome,200,651922,0.0-68.0-1.0,"""event"",""trial"",""time""
""fullscreenenter"",""1"",""3845""
""blur"",""175"",""604239""
""focus"",""176"",""606814""
","""event"",""trial"",""time""
""blur"",""175"",""604239""
","""event"",""trial"",""time""
""focus"",""176"",""606814""
","""event"",""trial"",""time""
""fullscreenenter"",""1"",""3845""
","
",,null,run_exp/static/images/task_images/aliens/old_aliens/planet/alien_planet-61.jpg,null,,,,,,,,,,,,,61,"77,57,52,42,61,29,30,25,23,69,6,47,65,56,40,44,55,20,68,39,18,71",,,,,,,,,,
land,201,652432,0.0-68.0-2.0,"""event"",""trial"",""time""
""fullscreenenter"",""1"",""3845""
""blur"",""175"",""604239""
""focus"",""176"",""606814""
","""event"",""trial"",""time""
""blur"",""175"",""604239""
","""event"",""trial"",""time""
""focus"",""176"",""606814""
","""event"",""trial"",""time""
""fullscreenenter"",""1"",""3845""
","
",,null,run_exp/static/images/task_images/land.jpg,null,,,,,,,90,,,5,,,,,,,,,,,,,,
dig,202,654443,0.0-68.0-3.0,"""event"",""trial"",""time""
""fullscreenenter"",""1"",""3845""
""blur"",""175"",""604239""
""focus"",""176"",""606814""
","""event"",""trial"",""time""
""blur"",""175"",""604239""
","""event"",""trial"",""time""
""focus"",""176"",""606814""
","""event"",""trial"",""time""
""fullscreenenter"",""1"",""3845""
","
",,,,,,,,,,,,"[{""stimulus"":""run_exp/static/images/task_images/dig.jpg"",""time"":1.1000000014901161},{""stimulus"":""run_exp/static/images/task_images/land.jpg"",""time"":670.8000000007451},{""stimulus"":""run_exp/static/images/task_images/dig.jpg"",""time"":1338.300000000745}]",[],5,,,,,,,,,,,,,,
harvest,203,655449,0.0-68.0-4.0,"""event"",""trial"",""time""
""fullscreenenter"",""1"",""3845""
""blur"",""175"",""604239""
""focus"",""176"",""606814""
","""event"",""trial"",""time""
""blur"",""175"",""604239""
","""event"",""trial"",""time""
""focus"",""176"",""606814""
","""event"",""trial"",""time""
""fullscreenenter"",""1"",""3845""
","
",,null,run_exp/static/images/task_images/gems/90.jpg,null,,,,,,,49,,,5,,,,,90,0.543922599,0.544444444,,,,,,,
decision,204,656034,0.0-68.0-5.0,"""event"",""trial"",""time""
""fullscreenenter"",""1"",""3845""
""blur"",""175"",""604239""
""focus"",""176"",""606814""
","""event"",""trial"",""time""
""blur"",""175"",""604239""
","""event"",""trial"",""time""
""focus"",""176"",""606814""
","""event"",""trial"",""time""
""fullscreenenter"",""1"",""3845""
","
",,581.4,run_exp/static/images/task_images/land.jpg,65,,,,,,,49,,,5,,,,,,,,225365,1,0,FALSE,,,
dig,205,658467,0.0-69.0-0.0,"""event"",""trial"",""time""
""fullscreenenter"",""1"",""3845""
""blur"",""175"",""604239""
""focus"",""176"",""606814""
","""event"",""trial"",""time""
""blur"",""175"",""604239""
","""event"",""trial"",""time""
""focus"",""176"",""606814""
","""event"",""trial"",""time""
""fullscreenenter"",""1"",""3845""
","
",,,,,,,,,,,,"[{""stimulus"":""run_exp/static/images/task_images/dig.jpg"",""time"":1},{""stimulus"":""run_exp/static/images/task_images/land.jpg"",""time"":811.7999999970198},{""stimulus"":""run_exp/static/images/task_images/dig.jpg"",""time"":1616.5}]",[],5,,,,,,,,,,,,,,
harvest,206,659477,0.0-69.0-1.0,"""event"",""trial"",""time""
""fullscreenenter"",""1"",""3845""
""blur"",""175"",""604239""
""focus"",""176"",""606814""
","""event"",""trial"",""time""
""blur"",""175"",""604239""
","""event"",""trial"",""time""
""focus"",""176"",""606814""
","""event"",""trial"",""time""
""fullscreenenter"",""1"",""3845""
","
",,null,run_exp/static/images/task_images/gems/49.jpg,null,,,,,,,27,,,5,,,,,49,0.543858279,0.551020408,,,,,,,
decision,207,659794,0.0-69.0-2.0,"""event"",""trial"",""time""
""fullscreenenter"",""1"",""3845""
""blur"",""175"",""604239""
""focus"",""176"",""606814""
","""event"",""trial"",""time""
""blur"",""175"",""604239""
","""event"",""trial"",""time""
""focus"",""176"",""606814""
","""event"",""trial"",""time""
""fullscreenenter"",""1"",""3845""
","
",,309.1,run_exp/static/images/task_images/land.jpg,65,,,,,,,27,,,5,,,,,,,,229126,1,1,FALSE,,,
dig,208,662496,0.0-70.0-0.0,"""event"",""trial"",""time""
""fullscreenenter"",""1"",""3845""
""blur"",""175"",""604239""
""focus"",""176"",""606814""
","""event"",""trial"",""time""
""blur"",""175"",""604239""
","""event"",""trial"",""time""
""focus"",""176"",""606814""
","""event"",""trial"",""time""
""fullscreenenter"",""1"",""3845""
","
",,,,,,,,,,,,"[{""stimulus"":""run_exp/static/images/task_images/dig.jpg"",""time"":0.5999999977648258},{""stimulus"":""run_exp/static/images/task_images/land.jpg"",""time"":898.3999999985099},{""stimulus"":""run_exp/static/images/task_images/dig.jpg"",""time"":1796.2999999970198}]",[],5,,,,,,,,,,,,,,
harvest,209,663502,0.0-70.0-1.0,"""event"",""trial"",""time""
""fullscreenenter"",""1"",""3845""
""blur"",""175"",""604239""
""focus"",""176"",""606814""
","""event"",""trial"",""time""
""blur"",""175"",""604239""
","""event"",""trial"",""time""
""focus"",""176"",""606814""
","""event"",""trial"",""time""
""fullscreenenter"",""1"",""3845""
","
",,null,run_exp/static/images/task_images/gems/27.jpg,null,,,,,,,13,,,5,,,,,27,0.466856305,0.481481481,,,,,,,
decision,210,663647,0.0-70.0-2.0,"""event"",""trial"",""time""
""fullscreenenter"",""1"",""3845""
""blur"",""175"",""604239""
""focus"",""176"",""606814""
","""event"",""trial"",""time""
""blur"",""175"",""604239""
","""event"",""trial"",""time""
""focus"",""176"",""606814""
","""event"",""trial"",""time""
""fullscreenenter"",""1"",""3845""
","
",,141.9,run_exp/static/images/task_images/land.jpg,65,,,,,,,13,,,5,,,,,,,,232979,1,2,FALSE,,,
dig,211,666520,0.0-71.0-0.0,"""event"",""trial"",""time""
""fullscreenenter"",""1"",""3845""
""blur"",""175"",""604239""
""focus"",""176"",""606814""
","""event"",""trial"",""time""
""blur"",""175"",""604239""
","""event"",""trial"",""time""
""focus"",""176"",""606814""
","""event"",""trial"",""time""
""fullscreenenter"",""1"",""3845""
","
",,,,,,,,,,,,"[{""stimulus"":""run_exp/static/images/task_images/dig.jpg"",""time"":0.7000000029802322},{""stimulus"":""run_exp/static/images/task_images/land.jpg"",""time"":955.9000000022352},{""stimulus"":""run_exp/static/images/task_images/dig.jpg"",""time"":1909.800000000745}]",[],5,,,,,,,,,,,,,,
harvest,212,667528,0.0-71.0-1.0,"""event"",""trial"",""time""
""fullscreenenter"",""1"",""3845""
""blur"",""175"",""604239""
""focus"",""176"",""606814""
","""event"",""trial"",""time""
""blur"",""175"",""604239""
","""event"",""trial"",""time""
""focus"",""176"",""606814""
","""event"",""trial"",""time""
""fullscreenenter"",""1"",""3845""
","
",,null,run_exp/static/images/task_images/gems/13.jpg,null,,,,,,,7,,,5,,,,,13,0.531725626,0.538461538,,,,,,,
decision,213,667579,0.0-71.0-2.0,"""event"",""trial"",""time""
""fullscreenenter"",""1"",""3845""
""blur"",""175"",""604239""
""focus"",""176"",""606814""
","""event"",""trial"",""time""
""blur"",""175"",""604239""
","""event"",""trial"",""time""
""focus"",""176"",""606814""
","""event"",""trial"",""time""
""fullscreenenter"",""1"",""3845""
","
",,43.3,run_exp/static/images/task_images/land.jpg,65,,,,,,,7,,,5,,,,,,,,236910,1,3,FALSE,,,
dig,214,670549,0.0-72.0-0.0,"""event"",""trial"",""time""
""fullscreenenter"",""1"",""3845""
""blur"",""175"",""604239""
""focus"",""176"",""606814""
","""event"",""trial"",""time""
""blur"",""175"",""604239""
","""event"",""trial"",""time""
""focus"",""176"",""606814""
","""event"",""trial"",""time""
""fullscreenenter"",""1"",""3845""
","
",,,,,,,,,,,,"[{""stimulus"":""run_exp/static/images/task_images/dig.jpg"",""time"":0.6999999992549419},{""stimulus"":""run_exp/static/images/task_images/land.jpg"",""time"":987.6000000014901},{""stimulus"":""run_exp/static/images/task_images/dig.jpg"",""time"":1975.699999999255}]",[],5,,,,,,,,,,,,,,
harvest,215,671554,0.0-72.0-1.0,"""event"",""trial"",""time""
""fullscreenenter"",""1"",""3845""
""blur"",""175"",""604239""
""focus"",""176"",""606814""
","""event"",""trial"",""time""
""blur"",""175"",""604239""
","""event"",""trial"",""time""
""focus"",""176"",""606814""
","""event"",""trial"",""time""
""fullscreenenter"",""1"",""3845""
","
",,null,run_exp/static/images/task_images/gems/7.jpg,null,,,,,,,4,,,5,,,,,7,0.520855788,0.571428571,,,,,,,
decision,216,671934,0.0-72.0-2.0,"""event"",""trial"",""time""
""fullscreenenter"",""1"",""3845""
""blur"",""175"",""604239""
""focus"",""176"",""606814""
","""event"",""trial"",""time""
""blur"",""175"",""604239""
","""event"",""trial"",""time""
""focus"",""176"",""606814""
","""event"",""trial"",""time""
""fullscreenenter"",""1"",""3845""
","
",,376.7,run_exp/static/images/task_images/land.jpg,65,,,,,,,4,,,5,,,,,,,,241266,1,4,FALSE,,,
dig,217,674576,0.0-73.0-0.0,"""event"",""trial"",""time""
""fullscreenenter"",""1"",""3845""
""blur"",""175"",""604239""
""focus"",""176"",""606814""
","""event"",""trial"",""time""
""blur"",""175"",""604239""
","""event"",""trial"",""time""
""focus"",""176"",""606814""
","""event"",""trial"",""time""
""fullscreenenter"",""1"",""3845""
","
",,,,,,,,,,,,"[{""stimulus"":""run_exp/static/images/task_images/dig.jpg"",""time"":0.8999999985098839},{""stimulus"":""run_exp/static/images/task_images/land.jpg"",""time"":879.1000000014901},{""stimulus"":""run_exp/static/images/task_images/dig.jpg"",""time"":1753.6000000014901}]",[],5,,,,,,,,,,,,,,
harvest,218,675586,0.0-73.0-1.0,"""event"",""trial"",""time""
""fullscreenenter"",""1"",""3845""
""blur"",""175"",""604239""
""focus"",""176"",""606814""
","""event"",""trial"",""time""
""blur"",""175"",""604239""
","""event"",""trial"",""time""
""focus"",""176"",""606814""
","""event"",""trial"",""time""
""fullscreenenter"",""1"",""3845""
","
",,null,run_exp/static/images/task_images/gems/4.jpg,null,,,,,,,2,,,5,,,,,4,0.510516816,0.5,,,,,,,
decision,219,675603,0.0-73.0-2.0,"""event"",""trial"",""time""
""fullscreenenter"",""1"",""3845""
""blur"",""175"",""604239""
""focus"",""176"",""606814""
","""event"",""trial"",""time""
""blur"",""175"",""604239""
","""event"",""trial"",""time""
""focus"",""176"",""606814""
","""event"",""trial"",""time""
""fullscreenenter"",""1"",""3845""
","
",,12.6,run_exp/static/images/task_images/land.jpg,65,,,,,,,2,,,5,,,,,,,,244935,1,5,FALSE,,,
dig,220,678605,0.0-74.0-0.0,"""event"",""trial"",""time""
""fullscreenenter"",""1"",""3845""
""blur"",""175"",""604239""
""focus"",""176"",""606814""
","""event"",""trial"",""time""
""blur"",""175"",""604239""
","""event"",""trial"",""time""
""focus"",""176"",""606814""
","""event"",""trial"",""time""
""fullscreenenter"",""1"",""3845""
","
",,,,,,,,,,,,"[{""stimulus"":""run_exp/static/images/task_images/dig.jpg"",""time"":0.6999999992549419},{""stimulus"":""run_exp/static/images/task_images/land.jpg"",""time"":999},{""stimulus"":""run_exp/static/images/task_images/dig.jpg"",""time"":1992.7999999970198}]",[],5,,,,,,,,,,,,,,
harvest,221,679617,0.0-74.0-1.0,"""event"",""trial"",""time""
""fullscreenenter"",""1"",""3845""
""blur"",""175"",""604239""
""focus"",""176"",""606814""
","""event"",""trial"",""time""
""blur"",""175"",""604239""
","""event"",""trial"",""time""
""focus"",""176"",""606814""
","""event"",""trial"",""time""
""fullscreenenter"",""1"",""3845""
","
",,null,run_exp/static/images/task_images/gems/2.jpg,null,,,,,,,1,,,5,,,,,2,0.50018479,0.5,,,,,,,
decision,222,679850,0.0-74.0-2.0,"""event"",""trial"",""time""
""fullscreenenter"",""1"",""3845""
""blur"",""175"",""604239""
""focus"",""176"",""606814""
","""event"",""trial"",""time""
""blur"",""175"",""604239""
","""event"",""trial"",""time""
""focus"",""176"",""606814""
","""event"",""trial"",""time""
""fullscreenenter"",""1"",""3845""
","
",,226.7,run_exp/static/images/task_images/land.jpg,65,,,,,,,1,,,5,,,,,,,,249182,1,6,FALSE,,,
dig,223,682638,0.0-75.0-0.0,"""event"",""trial"",""time""
""fullscreenenter"",""1"",""3845""
""blur"",""175"",""604239""
""focus"",""176"",""606814""
","""event"",""trial"",""time""
""blur"",""175"",""604239""
","""event"",""trial"",""time""
""focus"",""176"",""606814""
","""event"",""trial"",""time""
""fullscreenenter"",""1"",""3845""
","
",,,,,,,,,,,,"[{""stimulus"":""run_exp/static/images/task_images/dig.jpg"",""time"":0.7999999970197678},{""stimulus"":""run_exp/static/images/task_images/land.jpg"",""time"":928.8999999985099},{""stimulus"":""run_exp/static/images/task_images/dig.jpg"",""time"":1852.0999999977648}]",[],5,,,,,,,,,,,,,,
harvest,224,683643,0.0-75.0-1.0,"""event"",""trial"",""time""
""fullscreenenter"",""1"",""3845""
""blur"",""175"",""604239""
""focus"",""176"",""606814""
","""event"",""trial"",""time""
""blur"",""175"",""604239""
","""event"",""trial"",""time""
""focus"",""176"",""606814""
","""event"",""trial"",""time""
""fullscreenenter"",""1"",""3845""
","
",,null,run_exp/static/images/task_images/gems/1.jpg,null,,,,,,,1,,,5,,,,,1,0.508219936,1,,,,,,,
decision,225,683712,0.0-75.0-2.0,"""event"",""trial"",""time""
""fullscreenenter"",""1"",""3845""
""blur"",""175"",""604239""
""focus"",""176"",""606814""
","""event"",""trial"",""time""
""blur"",""175"",""604239""
","""event"",""trial"",""time""
""focus"",""176"",""606814""
","""event"",""trial"",""time""
""fullscreenenter"",""1"",""3845""
","
",,63.9,run_exp/static/images/task_images/land.jpg,65,,,,,,,1,,,5,,,,,,,,253044,1,7,FALSE,,,
dig,226,686663,0.0-76.0-0.0,"""event"",""trial"",""time""
""fullscreenenter"",""1"",""3845""
""blur"",""175"",""604239""
""focus"",""176"",""606814""
","""event"",""trial"",""time""
""blur"",""175"",""604239""
","""event"",""trial"",""time""
""focus"",""176"",""606814""
","""event"",""trial"",""time""
""fullscreenenter"",""1"",""3845""
","
",,,,,,,,,,,,"[{""stimulus"":""run_exp/static/images/task_images/dig.jpg"",""time"":0.8000000007450581},{""stimulus"":""run_exp/static/images/task_images/land.jpg"",""time"":981.8999999985099},{""stimulus"":""run_exp/static/images/task_images/dig.jpg"",""time"":1963}]",[],5,,,,,,,,,,,,,,
harvest,227,687671,0.0-76.0-1.0,"""event"",""trial"",""time""
""fullscreenenter"",""1"",""3845""
""blur"",""175"",""604239""
""focus"",""176"",""606814""
","""event"",""trial"",""time""
""blur"",""175"",""604239""
","""event"",""trial"",""time""
""focus"",""176"",""606814""
","""event"",""trial"",""time""
""fullscreenenter"",""1"",""3845""
","
",,null,run_exp/static/images/task_images/gems/1.jpg,null,,,,,,,0,,,5,,,,,1,0.428976967,0,,,,,,,
decision,228,687715,0.0-76.0-2.0,"""event"",""trial"",""time""
""fullscreenenter"",""1"",""3845""
""blur"",""175"",""604239""
""focus"",""176"",""606814""
","""event"",""trial"",""time""
""blur"",""175"",""604239""
","""event"",""trial"",""time""
""focus"",""176"",""606814""
","""event"",""trial"",""time""
""fullscreenenter"",""1"",""3845""
","
",,37.4,run_exp/static/images/task_images/land.jpg,65,,,,,,,0,,,5,,,,,,,,257046,1,8,FALSE,,,
dig,229,690693,0.0-77.0-0.0,"""event"",""trial"",""time""
""fullscreenenter"",""1"",""3845""
""blur"",""175"",""604239""
""focus"",""176"",""606814""
","""event"",""trial"",""time""
""blur"",""175"",""604239""
","""event"",""trial"",""time""
""focus"",""176"",""606814""
","""event"",""trial"",""time""
""fullscreenenter"",""1"",""3845""
","
",,,,,,,,,,,,"[{""stimulus"":""run_exp/static/images/task_images/dig.jpg"",""time"":0.6999999992549419},{""stimulus"":""run_exp/static/images/task_images/land.jpg"",""time"":991.0999999977648},{""stimulus"":""run_exp/static/images/task_images/dig.jpg"",""time"":1977.5}]",[],5,,,,,,,,,,,,,,
harvest,230,691700,0.0-77.0-1.0,"""event"",""trial"",""time""
""fullscreenenter"",""1"",""3845""
""blur"",""175"",""604239""
""focus"",""176"",""606814""
","""event"",""trial"",""time""
""blur"",""175"",""604239""
","""event"",""trial"",""time""
""focus"",""176"",""606814""
","""event"",""trial"",""time""
""fullscreenenter"",""1"",""3845""
","
",,null,run_exp/static/images/task_images/gems/0.jpg,null,,,,,,,0,,,5,,,,,0,0.492410598,NaN,,,,,,,
decision,231,691927,0.0-77.0-2.0,"""event"",""trial"",""time""
""fullscreenenter"",""1"",""3845""
""blur"",""175"",""604239""
""focus"",""176"",""606814""
","""event"",""trial"",""time""
""blur"",""175"",""604239""
","""event"",""trial"",""time""
""focus"",""176"",""606814""
","""event"",""trial"",""time""
""fullscreenenter"",""1"",""3845""
","
",,221.3,run_exp/static/images/task_images/land.jpg,65,,,,,,,0,,,5,,,,,,,,261258,1,9,FALSE,,,
dig,232,694724,0.0-78.0-0.0,"""event"",""trial"",""time""
""fullscreenenter"",""1"",""3845""
""blur"",""175"",""604239""
""focus"",""176"",""606814""
","""event"",""trial"",""time""
""blur"",""175"",""604239""
","""event"",""trial"",""time""
""focus"",""176"",""606814""
","""event"",""trial"",""time""
""fullscreenenter"",""1"",""3845""
","
",,,,,,,,,,,,"[{""stimulus"":""run_exp/static/images/task_images/dig.jpg"",""time"":0.7000000029802322},{""stimulus"":""run_exp/static/images/task_images/land.jpg"",""time"":930.5},{""stimulus"":""run_exp/static/images/task_images/dig.jpg"",""time"":1855}]",[],5,,,,,,,,,,,,,,
harvest,233,695731,0.0-78.0-1.0,"""event"",""trial"",""time""
""fullscreenenter"",""1"",""3845""
""blur"",""175"",""604239""
""focus"",""176"",""606814""
","""event"",""trial"",""time""
""blur"",""175"",""604239""
","""event"",""trial"",""time""
""focus"",""176"",""606814""
