trial_type,trial_index,time_elapsed,internal_node_id,success,rt,stimulus,key_press,prompt,subject_id,age,gender,button_pressed,next_reward,animation_sequence,responses,planet,curr_prac_trial,n_prac_rounds,alien,aliens,reward_received,decay_rate_actual,decay_rate_exp,time_in_block,block_num,prt,last_trial_on_planet,button_html,bonus,num_failures
pavlovia,0,7,0.0-0.0,,,,,,,,,,,,,,,,,,,,,,,,,,,
fullscreen,1,54162,0.0-1.0,TRUE,,,,,,,,,,,,,,,,,,,,,,,,,,
instruc_welcome,2,64063,0.0-2.0,,null,run_exp/static/audio/clip_1_welcome.m4a,null,"<p>Howdy! In this experiment, you’ll be an explorer traveling through space to collect space treasure.</p><p>Your mission is to collect as much treasure as possible.</p><br><br><p><img src='run_exp/static/images/task_images/opening_img-01.jpg' height='300' width='auto'></p>",trEiwhVO8K99ZMh_a5Ke5UddwllDBGZ_MLRP_7a0L8nplXhiIgAK,11.5,male,,,,,,,,,,,,,,,,,,,
audio-keyboard-response,3,80642,0.0-3.0,,null,run_exp/static/audio/clip_2_move.m4a,null,,,,,,,,,,,,,,,,,,,,,,,
welcome_dec,4,98845,0.0-4.0,,18199.09,"<p>Howdy! In this experiment, you’ll be an explorer traveling through space to collect space treasure.</p><p>Your mission is to collect as much treasure as possible.</p><br><br><p><img src='run_exp/static/images/task_images/opening_img-01.jpg' height='300' width='auto'></p>",,,,,,1,,,,,,,,,,,,,,,,,,
html-keyboard-response,5,134185,0.0-5.0,,35334.77,"<p>Howdy! In this experiment, you’ll be an explorer traveling through space to collect space treasure.</p><p>Your mission is to collect as much treasure as possible.</p><br><br><p><img src='run_exp/static/images/task_images/opening_img-01.jpg' height='300' width='auto'></p><button class=""jspsych-html-btn-unchosen""><img src=""run_exp/static/images/task_images/planet-01.jpg"" height=""50""></button><button class=""jspsych-html-btn-chosen""><img src=""run_exp/static/images/task_images/planet-02.jpg"" height=""50""></button><p><b>[press the space bar to lock in your answer]<b><br></p>",32,,,,,,,,,,,,,,,,,,,,,,,
instruc_goal,6,144407,0.0-6.0-0.0,,null,run_exp/static/audio/clip_3_goal.m4a,null,"<p> As a space explorer, you’ll visit different planets to dig for space treasure, these pink gems.</p> <p> The more treasure you dig up, the more bonus money you’ll win! </p><br><br><p><img src='run_exp/static/images/task_images/pink_gem.jpg' height='300' width='auto'></p>",,,,,,,,,,,,,,,,,,,,,,
instruc_goal,7,151851,0.0-6.0-1.0,,7440.635,"<p> As a space explorer, you’ll visit different planets to dig for space treasure, these pink gems.</p> <p> The more treasure you dig up, the more bonus money you’ll win! </p><br><br><p><img src='run_exp/static/images/task_images/pink_gem.jpg' height='300' width='auto'></p>",,,,,,1,,,,,,,,,,,,,,,,,,
html-keyboard-response,8,154821,0.0-6.0-2.0,,2966.885,"<p> As a space explorer, you’ll visit different planets to dig for space treasure, these pink gems.</p> <p> The more treasure you dig up, the more bonus money you’ll win! </p><br><br><p><img src='run_exp/static/images/task_images/pink_gem.jpg' height='300' width='auto'></p><button class=""jspsych-html-btn-unchosen""><img src=""run_exp/static/images/task_images/planet-01.jpg"" height=""50""></button><button class=""jspsych-html-btn-chosen""><img src=""run_exp/static/images/task_images/planet-02.jpg"" height=""50""></button><p><b>[press the space bar to lock in your answer]<b><br></p>",32,,,,,,,,,,,,,,,,,,,,,,,
instruc_dig,9,170810,0.0-7.0-0.0,,null,run_exp/static/audio/clip_4_dig.m4a,null,,,,,,100,,,,,,,,,,,,,,,,,
instruc_dig_try,10,172079,0.0-7.0-1.0,,1267.235,"<p> When you’ve arrived at a new planet, you will dig once. </p> <p>Then, you get to decide if you want to stay on the planet and dig again or travel to a new planet and dig there.</p> <p> To stay and dig, press the letter <strong>‘A’</strong> on your keyboard. Try pressing it now! </p><p><img src='run_exp/static/images/task_images/land.jpg'  height='700' width='auto'></p>",65,"<p> When you’ve arrived at a new planet, you will dig once. </p> <p>Then, you get to decide if you want to stay on the planet and dig again or travel to a new planet and dig there.</p> <p> To stay and dig, press the letter <strong>‘A’</strong> on your keyboard. Try pressing it now! </p><p><img src='run_exp/static/images/task_images/land.jpg'  height='700' width='auto'></p>",,,,,100,,,,,,,,,,,,,,,,,
dig_prac,11,174097,0.0-7.0-2.0,,,,,,,,,,,"[{""stimulus"":""run_exp/static/images/task_images/dig.jpg"",""time"":0.6349999998928979},{""stimulus"":""run_exp/static/images/task_images/land.jpg"",""time"":678.8750000000582},{""stimulus"":""run_exp/static/images/task_images/dig.jpg"",""time"":1339.375000000029}]",[],,,,,,,,,,,,,,,
instruc_travel,12,210329,0.0-7.0-3.0,,null,run_exp/static/audio/clip_5_travel.m4a,null,"<p>Every time you dig up gems, there are less gems on the planet, so the more you dig on a planet the fewer gems you’ll get with each dig.</p><p>When gems are running low, you may want to travel to a new planet. </p> <p>  Planets are very far apart in this galaxy, so it will take some time to travel between them. </p> <br><p>There are lots and lots of planets for you to visit, so you won’t be able to return to any planets you’ve seen before. </p><br><p>To leave this planet and travel to a new one, press the letter <strong>‘L’</strong> on your keyboard. Try pressing it now! </p><p><img src='run_exp/static/images/task_images/rocket-01.jpg'  height='600' width='auto'></p>",,,,,,,,,,,,,,,,,,,,,,
instruc_travel_try,13,210787,0.0-7.0-4.0,,455.905,"<p>Every time you dig up gems, there are less gems on the planet, so the more you dig on a planet the fewer gems you’ll get with each dig.</p><p>When gems are running low, you may want to travel to a new planet. </p> <p>  Planets are very far apart in this galaxy, so it will take some time to travel between them. </p> <br><p>There are lots and lots of planets for you to visit, so you won’t be able to return to any planets you’ve seen before. </p><br><p>To leave this planet and travel to a new one, press the letter <strong>‘L’</strong> on your keyboard. Try pressing it now! </p><p><img src='run_exp/static/images/task_images/rocket-01.jpg'  height='600' width='auto'></p>",76,"<p>Every time you dig up gems, there are less gems on the planet, so the more you dig on a planet the fewer gems you’ll get with each dig.</p><p>When gems are running low, you may want to travel to a new planet. </p> <p>  Planets are very far apart in this galaxy, so it will take some time to travel between them. </p> <br><p>There are lots and lots of planets for you to visit, so you won’t be able to return to any planets you’ve seen before. </p><br><p>To leave this planet and travel to a new one, press the letter <strong>‘L’</strong> on your keyboard. Try pressing it now! </p><p><img src='run_exp/static/images/task_images/rocket-01.jpg'  height='600' width='auto'></p>",,,,,,,,,,,,,,,,,,,,,,
travel_prac,14,220797,0.0-7.0-5.0,,,,,,,,,,,"[{""stimulus"":""run_exp/static/images/task_images/rocket-01.jpg"",""time"":0.3050000000221189},{""stimulus"":""run_exp/static/images/task_images/rocket-02.jpg"",""time"":1119.460000000341},{""stimulus"":""run_exp/static/images/task_images/rocket-03.jpg"",""time"":2228.1450000000477},{""stimulus"":""run_exp/static/images/task_images/rocket-04.jpg"",""time"":3337.910000000178},{""stimulus"":""run_exp/static/images/task_images/rocket-05.jpg"",""time"":4446.8249999999825},{""stimulus"":""run_exp/static/images/task_images/rocket-06.jpg"",""time"":5557.970000000292},{""stimulus"":""run_exp/static/images/task_images/rocket-07.jpg"",""time"":6667.789999999979},{""stimulus"":""run_exp/static/images/task_images/rocket-08.jpg"",""time"":7779.14499999996},{""stimulus"":""run_exp/static/images/task_images/rocket-09.jpg"",""time"":8897.995000000257}]",[],0,,,,,,,,,,,,,,
instruc_alien_greet,15,247969,0.0-7.0-6.0,,null,run_exp/static/audio/clip_6_alien.m4a,null,"<p>When you arrive at a new planet, the alien who owns the treasure mine on that planet will greet you!</p><p>The better an alien takes care of their mine the easier it is to dig for gems. Some aliens take better care of their mine than others. So, you won’t get exactly the same amount of gems on each planet.</p><p>What the alien looks like does not tell you anything about how many gems there are on the planet.</p><br><p><img src=""run_exp/static/images/task_images/aliens/instructions_aliens/planet/alien_planet-1.jpg""  height=""600"" width=""auto""></p>",,,,,,,,,,,,,,,,,,,,,,
instruc_alien_greet,16,298465,0.0-7.0-7.0,,50492.37,"<p>When you arrive at a new planet, the alien who owns the treasure mine on that planet will greet you!</p><p>The better an alien takes care of their mine the easier it is to dig for gems. Some aliens take better care of their mine than others. So, you won’t get exactly the same amount of gems on each planet.</p><p>What the alien looks like does not tell you anything about how many gems there are on the planet.</p><br><p><img src=""run_exp/static/images/task_images/aliens/instructions_aliens/planet/alien_planet-1.jpg""  height=""600"" width=""auto""></p>",,,,,,1,,,,,,,,,,,,,,,,,,
html-keyboard-response,17,301320,0.0-7.0-8.0,,2852.295,"<p>When you arrive at a new planet, the alien who owns the treasure mine on that planet will greet you!</p><p>The better an alien takes care of their mine the easier it is to dig for gems. Some aliens take better care of their mine than others. So, you won’t get exactly the same amount of gems on each planet.</p><p>What the alien looks like does not tell you anything about how many gems there are on the planet.</p><br><p><img src=""run_exp/static/images/task_images/aliens/instructions_aliens/planet/alien_planet-1.jpg""  height=""600"" width=""auto""></p><button class=""jspsych-html-btn-unchosen""><img src=""run_exp/static/images/task_images/planet-01.jpg"" height=""50""></button><button class=""jspsych-html-btn-chosen""><img src=""run_exp/static/images/task_images/planet-02.jpg"" height=""50""></button><p><b>[press the space bar to lock in your answer]<b><br></p>",32,,,,,,,,,,,,,,,,,,,,,,,
time_out,18,312548,0.0-8.0-0.0,,null,run_exp/static/audio/clip_7_timeout.m4a,null,"<p>If you don't make your choice fast enough, you’ll have to wait a few seconds before you can make another one.</p><p>You can’t dig for more gems or travel to new planets. You just have to sit and wait.</p><br><p><img src='run_exp/static/images/task_images/time_out.jpg'  height='600' width='auto'></p>",,,,,,,,,,,,,,,,,,,,,,
time_out,19,319782,0.0-8.0-1.0,,7231.455,"<p>If you don't make your choice fast enough, you’ll have to wait a few seconds before you can make another one.</p><p>You can’t dig for more gems or travel to new planets. You just have to sit and wait.</p><br><p><img src='run_exp/static/images/task_images/time_out.jpg'  height='600' width='auto'></p>",,,,,,1,,,,,,,,,,,,,,,,,,
html-keyboard-response,20,321033,0.0-8.0-2.0,,1247.945,"<p>If you don't make your choice fast enough, you’ll have to wait a few seconds before you can make another one.</p><p>You can’t dig for more gems or travel to new planets. You just have to sit and wait.</p><br><p><img src='run_exp/static/images/task_images/time_out.jpg'  height='600' width='auto'></p><button class=""jspsych-html-btn-unchosen""><img src=""run_exp/static/images/task_images/planet-01.jpg"" height=""50""></button><button class=""jspsych-html-btn-chosen""><img src=""run_exp/static/images/task_images/planet-02.jpg"" height=""50""></button><p><b>[press the space bar to lock in your answer]<b><br></p>",32,,,,,,,,,,,,,,,,,,,,,,,
instruc_break,21,336708,0.0-9.0-0.0,,null,run_exp/static/audio/clip_8_break.m4a,null,"<p> After digging and traveling for a while, you’ll be able to take a break at home base. </p><p>The game will last 20 minutes no matter what.</p><p>You will visit home base every 5 minutes, so, you will visit home base three times during the game.</p><br><p><img src='run_exp/static/images/task_images/home_base.jpg' height='600' width='auto'></p>",,,,,,,,,,,,,,,,,,,,,,
instruc_break,22,338994,0.0-9.0-1.0,,2283.39,"<p> After digging and traveling for a while, you’ll be able to take a break at home base. </p><p>The game will last 20 minutes no matter what.</p><p>You will visit home base every 5 minutes, so, you will visit home base three times during the game.</p><br><p><img src='run_exp/static/images/task_images/home_base.jpg' height='600' width='auto'></p>",,,,,,1,,,,,,,,,,,,,,,,,,
html-keyboard-response,23,341633,0.0-9.0-2.0,,2636.72,"<p> After digging and traveling for a while, you’ll be able to take a break at home base. </p><p>The game will last 20 minutes no matter what.</p><p>You will visit home base every 5 minutes, so, you will visit home base three times during the game.</p><br><p><img src='run_exp/static/images/task_images/home_base.jpg' height='600' width='auto'></p><button class=""jspsych-html-btn-unchosen""><img src=""run_exp/static/images/task_images/planet-01.jpg"" height=""50""></button><button class=""jspsych-html-btn-chosen""><img src=""run_exp/static/images/task_images/planet-02.jpg"" height=""50""></button><p><b>[press the space bar to lock in your answer]<b><br></p>",32,,,,,,,,,,,,,,,,,,,,,,,
instruc_prac_game,24,351747,0.0-10.0-0.0,,null,run_exp/static/audio/clip_9_practice.m4a,null,"<p> Are you ready to play a practice game? </p> <p>In this practice game, you'll be digging up barrels of gems. But, in the real game, you'll be digging up the gems themselves. </p>",,,,,,,,,,,,,,,,,,,,,,
html-button-response,25,358760,0.0-10.0-1.0,,7009.96,"<p> Are you ready to play a practice game? </p> <p>In this practice game, you'll be digging up barrels of gems. But, in the real game, you'll be digging up the gems themselves. </p>",,,,,,0,,,,,,,,,,,,,,,,,,
alien_welcome_prac,26,363766,0.0-11.0-0.0,,null,run_exp/static/images/task_images/aliens/practice_aliens/planet/alien_planet-5.jpg,null,,,,,,,,,,,,,,,,,,,,,,,
land_prac,27,364268,0.0-11.0-1.0,,null,run_exp/static/images/task_images/land.jpg,null,,,,,,108,,,0,,,,,,,,,,,,,,
dig_prac,28,366289,0.0-11.0-2.0,,,,,,,,,,,"[{""stimulus"":""run_exp/static/images/task_images/dig.jpg"",""time"":0.29999999969732016},{""stimulus"":""run_exp/static/images/task_images/land.jpg"",""time"":678.4899999997579},{""stimulus"":""run_exp/static/images/task_images/dig.jpg"",""time"":1339.5399999999208}]",[],,,,,,,,,,,,,,,
harvest_prac,29,367299,0.0-11.0-3.0,,null,run_exp/static/images/task_images/barrel_text.jpg,null,,,,,,,,,,,,,,,,,,,,,,,
decision_prac,30,370305,0.0-11.0-4.0,,null,run_exp/static/images/task_images/land.jpg,null,,,,,,,,,,1,,,,,,,,,,,,,
time_out,31,372319,0.0-12.0-0.0,,null,run_exp/static/images/task_images/time_out.jpg,null,,,,,,,,,,,,,,,,,,,,,,,
decision_prac,32,372623,0.0-12.0-1.0,,301.68,run_exp/static/images/task_images/land.jpg,65,,,,,,,,,,2,,,,,,,,,,,,,
dig_prac,33,374629,0.0-13.0-0.0,,,,,,,,,,,"[{""stimulus"":""run_exp/static/images/task_images/dig.jpg"",""time"":0.21500000008381903},{""stimulus"":""run_exp/static/images/task_images/land.jpg"",""time"":673.2100000004284},{""stimulus"":""run_exp/static/images/task_images/dig.jpg"",""time"":1335.5150000002468}]",[],,,,,,,,,,,,,,,
harvest_prac,34,375650,0.0-13.0-1.0,,null,run_exp/static/images/task_images/barrel_text.jpg,null,,,,,,,,,,,,,,,,,,,,,,,
decision_prac,35,376375,0.0-13.0-2.0,,723.385,run_exp/static/images/task_images/land.jpg,65,,,,,,,,,,3,,,,,,,,,,,,,
dig_prac,36,378389,0.0-14.0-0.0,,,,,,,,,,,"[{""stimulus"":""run_exp/static/images/task_images/dig.jpg"",""time"":0.20999999972991645},{""stimulus"":""run_exp/static/images/task_images/land.jpg"",""time"":671.449999999837},{""stimulus"":""run_exp/static/images/task_images/dig.jpg"",""time"":1337.6749999997555}]",[],,,,,,,,,,,,,,,
harvest_prac,37,379400,0.0-14.0-1.0,,null,run_exp/static/images/task_images/barrel_text.jpg,null,,,,,,,,,,,,,,,,,,,,,,,
decision_prac,38,380616,0.0-14.0-2.0,,1214.87,run_exp/static/images/task_images/land.jpg,65,,,,,,,,,,4,,,,,,,,,,,,,
dig_prac,39,382630,0.0-15.0-0.0,,,,,,,,,,,"[{""stimulus"":""run_exp/static/images/task_images/dig.jpg"",""time"":0.32500000001164153},{""stimulus"":""run_exp/static/images/task_images/land.jpg"",""time"":669.8950000000186},{""stimulus"":""run_exp/static/images/task_images/dig.jpg"",""time"":1339.7050000003655}]",[],,,,,,,,,,,,,,,
harvest_prac,40,383640,0.0-15.0-1.0,,null,run_exp/static/images/task_images/barrel_text.jpg,null,,,,,,,,,,,,,,,,,,,,,,,
decision_prac,41,384564,0.0-15.0-2.0,,922.945,run_exp/static/images/task_images/land.jpg,65,,,,,,,,,,,1,,,,,,,,,,,,
quiz_instruc,42,386678,0.0-16.0-0.0,,2108.995,run_exp/static/audio/clip_10_quiz.m4a,,,,,,0,,,,,,,,,,,,,,,,,,
instruc_repeat,43,429440,0.0-16.0-1.0,,null,"<p> Are you ready to play a practice game? </p> <p>In this practice game, you'll be digging up barrels of gems. But, in the real game, you'll be digging up the gems themselves. </p>",null,"<p>In this game, your goal is to collect as many gems as you can. That’s how you will win bonus money. </p> <p>The entire game will last 20 minutes no matter how many gems you collect or how many planets you visit. </p><p>To stay on a planet and dig again, press the letter A on your keyboard. To leave for a new planet, press the letter L.</p><p>The more you dig on a planet, the fewer gems you’ll get with each dig which is why you might consider leaving for a new planet. </p><p>When you arrive at a new planet, you’ll be greeted by an alien. What the alien looks like does not tell you anything about how much treasure is on the planet. </p>",,,,,,,,,,,,,,,,,,,,,,
instruc_repeat_continue,44,433194,0.0-16.0-2.0,,3750.765,"<p> Are you ready to play a practice game? </p> <p>In this practice game, you'll be digging up barrels of gems. But, in the real game, you'll be digging up the gems themselves. </p>",,,,,,0,,,,,,,,,,,,,,,,,,
quiz_q_1_ask,45,443336,0.0-16.0-3.0,,10139.945,run_exp/static/audio/clip_11_q1_ask.m4a,,,,,,2,,,,,,,,,,,,,,,,,,
quiz_q_1_fb_correct,46,447180,0.0-17.0-0.0,,null,run_exp/static/audio/clip_12_q1_corrrect.m4a,null,<p>That’s correct. You win extra money by collecting more gems.</p>,,,,,,,,,,,,,,,,,,,,,,
quiz_q_2_ask,47,458931,0.0-17.0-1.0,,11748.26,run_exp/static/audio/clip_14_q2_ask.m4a,,,,,,1,,,,,,,,,,,,,,,,,,
quiz_q_2_fb_correct,48,462940,0.0-18.0-0.0,,null,run_exp/static/audio/clip_15_q2_correct.m4a,null,<p>That’s correct. The experiment is 20 minutes no matter what.</p>,,,,,,,,,,,,,,,,,,,,,,
quiz_q_3_ask,49,467380,0.0-18.0-1.0,,4438.03,run_exp/static/audio/clip_17_q3_ask.m4a,,,,,,1,,,,,,,,,,,,,,,,,,
quiz_q_3_fb_correct,50,471360,0.0-19.0-0.0,,null,run_exp/static/audio/clip_18_q3_correct.m4a,null,<p> That’s correct. You press the letter L to travel to a new planet.</p>,,,,,,,,,,,,,,,,,,,,,,
quiz_q_4_ask,51,475672,0.0-19.0-1.0,,4309.165,run_exp/static/audio/clip_20_q4_ask.m4a,,,,,,0,,,,,,,,,,,,,,,,,,
quiz_q_4_fb_correct,52,481000,0.0-20.0-0.0,,null,run_exp/static/audio/clip_21_q4_correct.m4a,null,<p> That’s correct. The more you dig on a planet the fewer gems you’ll get with each dig. </p>,,,,,,,,,,,,,,,,,,,,,,
quiz_q_5_ask,53,487342,0.0-20.0-1.0,,6338.495,run_exp/static/audio/clip_23_q5_ask.m4a,,,,,,1,,,,,,,,,,,,,,,,,,
quiz_q_5_fb_correct,54,492340,0.0-21.0-0.0,,null,run_exp/static/audio/clip_24_q5_correct.m4a,null,<p> That’s correct. The alien tells you nothing about how much treasure is on the planet.</p>,,,,,,,,,,,,,,,,,,,,,,
quiz_correct,55,495800,0.0-22.0-0.0,,null,run_exp/static/audio/clip_26_correct_quiz.m4a,null,,,,,,,,,,,,,,,,,,,,,,,
quiz_correct_continue,56,497313,0.0-22.0-1.0,,1509.775,<p>Good job! You're now ready to move on to the real game!</p>,,,,,,0,,,,,,,,,,,,,,,,,,
audio-keyboard-response,57,507440,0.0-22.0-2.0,,null,run_exp/static/audio/clip_28_real_game.m4a,null,,,,,,,,,,,,,,,,,,,,,,,
instruc_begin_exp_contine,58,508726,0.0-22.0-3.0,,1283.335,"<p>Now that you know how  to dig for space treasure and travel to new planets,you can start exploring! </p><p>Do you want to go over the instructions again or get started with the real game?</p>",,,,,,1,,,,,,1,,,,,,,,,,,,
alien_welcome,59,513734,0.0-23.0-0.0,,null,run_exp/static/images/task_images/aliens/old_aliens/planet/alien_planet-33.jpg,null,,,,,,,,,,,,33,"33,13,57,17,32,2,12,47,3,15,27,71,80,55,41,74,40,76,11,72,79,36,20,21,5,7",,,,,,,,,,
land,60,514239,0.0-23.0-1.0,,null,run_exp/static/images/task_images/land.jpg,null,,,,,,108,,,1,,,,,,,,,,,,,,
dig,61,516248,0.0-23.0-2.0,,,,,,,,,,,"[{""stimulus"":""run_exp/static/images/task_images/dig.jpg"",""time"":0.2900000000372529},{""stimulus"":""run_exp/static/images/task_images/land.jpg"",""time"":676.6849999999395},{""stimulus"":""run_exp/static/images/task_images/dig.jpg"",""time"":1337.6300000000047}]",[],1,,,,,,,,,,,,,,
harvest,62,517259,0.0-23.0-3.0,,null,run_exp/static/images/task_images/gems/108.jpg,null,,,,,,22,,,1,,,,,108,0.201404404,0.203703704,,,,,,,
decision,63,517883,0.0-23.0-4.0,,620.025,run_exp/static/images/task_images/land.jpg,65,,,,,,22,,,1,,,,,,,,9156,1,0,FALSE,,,
dig,64,520278,0.0-24.0-0.0,,,,,,,,,,,"[{""stimulus"":""run_exp/static/images/task_images/dig.jpg"",""time"":0.27000000001862645},{""stimulus"":""run_exp/static/images/task_images/land.jpg"",""time"":799.8399999996182},{""stimulus"":""run_exp/static/images/task_images/dig.jpg"",""time"":1588.3649999996414}]",[],1,,,,,,,,,,,,,,
harvest,65,521288,0.0-24.0-1.0,,null,run_exp/static/images/task_images/gems/22.jpg,null,,,,,,4,,,1,,,,,22,0.187908519,0.181818182,,,,,,,
decision,66,521366,0.0-24.0-2.0,,75.87,run_exp/static/images/task_images/land.jpg,65,,,,,,4,,,1,,,,,,,,12638,1,1,FALSE,,,
dig,67,524299,0.0-25.0-0.0,,,,,,,,,,,"[{""stimulus"":""run_exp/static/images/task_images/dig.jpg"",""time"":0.1900000001769513},{""stimulus"":""run_exp/static/images/task_images/land.jpg"",""time"":988.4050000000279},{""stimulus"":""run_exp/static/images/task_images/dig.jpg"",""time"":1958.4399999998277}]",[],1,,,,,,,,,,,,,,
harvest,68,525308,0.0-25.0-1.0,,null,run_exp/static/images/task_images/gems/4.jpg,null,,,,,,1,,,1,,,,,4,0.192129239,0.25,,,,,,,
decision,69,525570,0.0-25.0-2.0,,259.735,run_exp/static/images/task_images/land.jpg,65,,,,,,1,,,1,,,,,,,,16842,1,2,FALSE,,,
dig,70,528318,0.0-26.0-0.0,,,,,,,,,,,"[{""stimulus"":""run_exp/static/images/task_images/dig.jpg"",""time"":0.20500000019092113},{""stimulus"":""run_exp/static/images/task_images/land.jpg"",""time"":915.2600000001257},{""stimulus"":""run_exp/static/images/task_images/dig.jpg"",""time"":1845.0999999999767}]",[],1,,,,,,,,,,,,,,
harvest,71,529328,0.0-26.0-1.0,,null,run_exp/static/images/task_images/gems/1.jpg,null,,,,,,0,,,1,,,,,1,0.191313608,0,,,,,,,
decision,72,529717,0.0-26.0-2.0,,386.79,run_exp/static/images/task_images/land.jpg,65,,,,,,0,,,1,,,,,,,,20989,1,3,FALSE,,,
dig,73,532348,0.0-27.0-0.0,,,,,,,,,,,"[{""stimulus"":""run_exp/static/images/task_images/dig.jpg"",""time"":0.26500000013038516},{""stimulus"":""run_exp/static/images/task_images/land.jpg"",""time"":877.8550000002142},{""stimulus"":""run_exp/static/images/task_images/dig.jpg"",""time"":1747.515000000014}]",[],1,,,,,,,,,,,,,,
harvest,74,533358,0.0-27.0-1.0,,null,run_exp/static/images/task_images/gems/0.jpg,null,,,,,,0,,,1,,,,,0,0.203836708,NaN,,,,,,,
decision,75,536368,0.0-27.0-2.0,,null,run_exp/static/images/task_images/land.jpg,null,,,,,,0,,,1,,,,,,,,27640,1,4,FALSE,,,
time_out,76,538388,0.0-28.0-0.0,,null,run_exp/static/images/task_images/time_out.jpg,null,,,,,,0,,,,,,,,,,,,,,,,,
decision,77,539350,0.0-28.0-1.0,,959.37,run_exp/static/images/task_images/land.jpg,65,,,,,,0,,,1,,,,,,,,30622,1,4,FALSE,,,
dig,78,541399,0.0-29.0-0.0,,,,,,,,,,,"[{""stimulus"":""run_exp/static/images/task_images/dig.jpg"",""time"":0.2149999999674037},{""stimulus"":""run_exp/static/images/task_images/land.jpg"",""time"":685.1949999999488},{""stimulus"":""run_exp/static/images/task_images/dig.jpg"",""time"":1364.109999999986}]",[],1,,,,,,,,,,,,,,
harvest,79,542406,0.0-29.0-1.0,,null,run_exp/static/images/task_images/gems/0.jpg,null,,,,,,0,,,1,,,,,0,0.250641759,NaN,,,,,,,
decision,80,543640,0.0-29.0-2.0,,1233.03,run_exp/static/images/task_images/land.jpg,76,,,,,,0,,,1,,,,,,,,34913,1,5,TRUE,,,
travel,81,552428,0.0-30.0-0.0,,,,,,,,,,,"[{""stimulus"":""run_exp/static/images/task_images/rocket-01.jpg"",""time"":0.19999999995343387},{""stimulus"":""run_exp/static/images/task_images/rocket-02.jpg"",""time"":984.9399999998277},{""stimulus"":""run_exp/static/images/task_images/rocket-03.jpg"",""time"":1954.1850000000559},{""stimulus"":""run_exp/static/images/task_images/rocket-04.jpg"",""time"":2924.305000000051},{""stimulus"":""run_exp/static/images/task_images/rocket-05.jpg"",""time"":3905.054999999702},{""stimulus"":""run_exp/static/images/task_images/rocket-06.jpg"",""time"":4883.989999999874},{""stimulus"":""run_exp/static/images/task_images/rocket-07.jpg"",""time"":5854.239999999641},{""stimulus"":""run_exp/static/images/task_images/rocket-08.jpg"",""time"":6825.0800000000745},{""stimulus"":""run_exp/static/images/task_images/rocket-09.jpg"",""time"":7794.25999999966}]",[],1,,,,,,,,,,,,,,
alien_welcome,82,557439,0.0-30.0-1.0,,null,run_exp/static/images/task_images/aliens/old_aliens/planet/alien_planet-13.jpg,null,,,,,,,,,,,,13,"33,13,57,17,32,2,12,47,3,15,27,71,80,55,41,74,40,76,11,72,79,36,20,21,5,7",,,,,,,,,,
land,83,557948,0.0-30.0-2.0,,null,run_exp/static/images/task_images/land.jpg,null,,,,,,102,,,2,,,,,,,,,,,,,,
dig,84,559958,0.0-30.0-3.0,,,,,,,,,,,"[{""stimulus"":""run_exp/static/images/task_images/dig.jpg"",""time"":0.33000000030733645},{""stimulus"":""run_exp/static/images/task_images/land.jpg"",""time"":669.1949999999488},{""stimulus"":""run_exp/static/images/task_images/dig.jpg"",""time"":1339.380000000354}]",[],2,,,,,,,,,,,,,,
harvest,85,560968,0.0-30.0-4.0,,null,run_exp/static/images/task_images/gems/102.jpg,null,,,,,,21,,,2,,,,,102,0.208412014,0.205882353,,,,,,,
decision,86,561441,0.0-30.0-5.0,,470.415,run_exp/static/images/task_images/land.jpg,65,,,,,,21,,,2,,,,,,,,52713,1,0,FALSE,,,
dig,87,563979,0.0-31.0-0.0,,,,,,,,,,,"[{""stimulus"":""run_exp/static/images/task_images/dig.jpg"",""time"":0.2149999999674037},{""stimulus"":""run_exp/static/images/task_images/land.jpg"",""time"":863.6750000000466},{""stimulus"":""run_exp/static/images/task_images/dig.jpg"",""time"":1694.2250000002095}]",[],2,,,,,,,,,,,,,,
harvest,88,564989,0.0-31.0-1.0,,null,run_exp/static/images/task_images/gems/21.jpg,null,,,,,,5,,,2,,,,,21,0.222688824,0.238095238,,,,,,,
decision,89,565297,0.0-31.0-2.0,,303.38,run_exp/static/images/task_images/land.jpg,65,,,,,,5,,,2,,,,,,,,56569,1,1,FALSE,,,
dig,90,567998,0.0-32.0-0.0,,,,,,,,,,,"[{""stimulus"":""run_exp/static/images/task_images/dig.jpg"",""time"":0.22500000020954758},{""stimulus"":""run_exp/static/images/task_images/land.jpg"",""time"":904.8550000002142},{""stimulus"":""run_exp/static/images/task_images/dig.jpg"",""time"":1797.829999999958}]",[],2,,,,,,,,,,,,,,
harvest,91,569009,0.0-32.0-1.0,,null,run_exp/static/images/task_images/gems/5.jpg,null,,,,,,1,,,2,,,,,5,0.187254082,0.2,,,,,,,
decision,92,569084,0.0-32.0-2.0,,73.17,run_exp/static/images/task_images/land.jpg,65,,,,,,1,,,2,,,,,,,,60356,1,2,FALSE,,,
dig,93,572027,0.0-33.0-0.0,,,,,,,,,,,"[{""stimulus"":""run_exp/static/images/task_images/dig.jpg"",""time"":0.2550000003539026},{""stimulus"":""run_exp/static/images/task_images/land.jpg"",""time"":991.6700000003912},{""stimulus"":""run_exp/static/images/task_images/dig.jpg"",""time"":1959.7300000000978}]",[],2,,,,,,,,,,,,,,
harvest,94,573039,0.0-33.0-1.0,,null,run_exp/static/images/task_images/gems/1.jpg,null,,,,,,0,,,2,,,,,1,0.217518423,0,,,,,,,
decision,95,573460,0.0-33.0-2.0,,418.735,run_exp/static/images/task_images/land.jpg,76,,,,,,0,,,2,,,,,,,,64732,1,3,TRUE,,,
travel,96,583046,0.0-34.0-0.0,,,,,,,,,,,"[{""stimulus"":""run_exp/static/images/task_images/rocket-01.jpg"",""time"":0.21000000007916242},{""stimulus"":""run_exp/static/images/task_images/rocket-02.jpg"",""time"":1077.3399999997346},{""stimulus"":""run_exp/static/images/task_images/rocket-03.jpg"",""time"":2134.654999999795},{""stimulus"":""run_exp/static/images/task_images/rocket-04.jpg"",""time"":3194.554999999935},{""stimulus"":""run_exp/static/images/task_images/rocket-05.jpg"",""time"":4264.6699999999255},{""stimulus"":""run_exp/static/images/task_images/rocket-06.jpg"",""time"":5324.814999999944},{""stimulus"":""run_exp/static/images/task_images/rocket-07.jpg"",""time"":6394.6900000000605},{""stimulus"":""run_exp/static/images/task_images/rocket-08.jpg"",""time"":7454.865000000107},{""stimulus"":""run_exp/static/images/task_images/rocket-09.jpg"",""time"":8516.729999999749}]",[],2,,,,,,,,,,,,,,
alien_welcome,97,588058,0.0-34.0-1.0,,null,run_exp/static/images/task_images/aliens/old_aliens/planet/alien_planet-57.jpg,null,,,,,,,,,,,,57,"33,13,57,17,32,2,12,47,3,15,27,71,80,55,41,74,40,76,11,72,79,36,20,21,5,7",,,,,,,,,,
land,98,588568,0.0-34.0-2.0,,null,run_exp/static/images/task_images/land.jpg,null,,,,,,101,,,3,,,,,,,,,,,,,,
dig,99,590578,0.0-34.0-3.0,,,,,,,,,,,"[{""stimulus"":""run_exp/static/images/task_images/dig.jpg"",""time"":0.3150000001769513},{""stimulus"":""run_exp/static/images/task_images/land.jpg"",""time"":678.339999999851},{""stimulus"":""run_exp/static/images/task_images/dig.jpg"",""time"":1337.9349999999395}]",[],3,,,,,,,,,,,,,,
harvest,100,591588,0.0-34.0-4.0,,null,run_exp/static/images/task_images/gems/101.jpg,null,,,,,,50,,,3,,,,,101,0.497931918,0.495049505,,,,,,,
decision,101,591869,0.0-34.0-5.0,,278.135,run_exp/static/images/task_images/land.jpg,65,,,,,,50,,,3,,,,,,,,83141,1,0,FALSE,,,
dig,102,594605,0.0-35.0-0.0,,,,,,,,,,,"[{""stimulus"":""run_exp/static/images/task_images/dig.jpg"",""time"":0.20999999972991645},{""stimulus"":""run_exp/static/images/task_images/land.jpg"",""time"":915.1699999998091},{""stimulus"":""run_exp/static/images/task_images/dig.jpg"",""time"":1815.579999999958}]",[],3,,,,,,,,,,,,,,
harvest,103,595608,0.0-35.0-1.0,,null,run_exp/static/images/task_images/gems/50.jpg,null,,,,,,22,,,3,,,,,50,0.44169865,0.44,,,,,,,
decision,104,595766,0.0-35.0-2.0,,155.895,run_exp/static/images/task_images/land.jpg,65,,,,,,22,,,3,,,,,,,,87038,1,1,FALSE,,,
dig,105,598618,0.0-36.0-0.0,,,,,,,,,,,"[{""stimulus"":""run_exp/static/images/task_images/dig.jpg"",""time"":0.20999999961350113},{""stimulus"":""run_exp/static/images/task_images/land.jpg"",""time"":959.0749999997206},{""stimulus"":""run_exp/static/images/task_images/dig.jpg"",""time"":1898.9399999995949}]",[],3,,,,,,,,,,,,,,
harvest,106,599629,0.0-36.0-1.0,,null,run_exp/static/images/task_images/gems/22.jpg,null,,,,,,10,,,3,,,,,22,0.445638195,0.454545455,,,,,,,
decision,107,600026,0.0-36.0-2.0,,394.675,run_exp/static/images/task_images/land.jpg,65,,,,,,10,,,3,,,,,,,,91298,1,2,FALSE,,,
dig,108,602638,0.0-37.0-0.0,,,,,,,,,,,"[{""stimulus"":""run_exp/static/images/task_images/dig.jpg"",""time"":0.3100000004051253},{""stimulus"":""run_exp/static/images/task_images/land.jpg"",""time"":877.2700000000186},{""stimulus"":""run_exp/static/images/task_images/dig.jpg"",""time"":1747.0000000003492}]",[],3,,,,,,,,,,,,,,
harvest,109,603649,0.0-37.0-1.0,,null,run_exp/static/images/task_images/gems/10.jpg,null,,,,,,5,,,3,,,,,10,0.488867624,0.5,,,,,,,
decision,110,604241,0.0-37.0-2.0,,589.505,run_exp/static/images/task_images/land.jpg,65,,,,,,5,,,3,,,,,,,,95513,1,3,FALSE,,,
dig,111,606656,0.0-38.0-0.0,,,,,,,,,,,"[{""stimulus"":""run_exp/static/images/task_images/dig.jpg"",""time"":0.2249999997438863},{""stimulus"":""run_exp/static/images/task_images/land.jpg"",""time"":814.9600000000792},{""stimulus"":""run_exp/static/images/task_images/dig.jpg"",""time"":1614.8649999999907}]",[],3,,,,,,,,,,,,,,
harvest,112,607659,0.0-38.0-1.0,,null,run_exp/static/images/task_images/gems/5.jpg,null,,,,,,3,,,3,,,,,5,0.569511324,0.6,,,,,,,
decision,113,610123,0.0-38.0-2.0,,2462.44,run_exp/static/images/task_images/land.jpg,76,,,,,,3,,,3,,,,,,,,101395,1,4,TRUE,,,
travel,114,617666,0.0-39.0-0.0,,,,,,,,,,,"[{""stimulus"":""run_exp/static/images/task_images/rocket-01.jpg"",""time"":0.2599999998928979},{""stimulus"":""run_exp/static/images/task_images/rocket-02.jpg"",""time"":842.3749999997672},{""stimulus"":""run_exp/static/images/task_images/rocket-03.jpg"",""time"":1681.8249999997206},{""stimulus"":""run_exp/static/images/task_images/rocket-04.jpg"",""time"":2521.835000000079},{""stimulus"":""run_exp/static/images/task_images/rocket-05.jpg"",""time"":3352.7399999998743},{""stimulus"":""run_exp/static/images/task_images/rocket-06.jpg"",""time"":4191.335000000079},{""stimulus"":""run_exp/static/images/task_images/rocket-07.jpg"",""time"":5031.784999999683},{""stimulus"":""run_exp/static/images/task_images/rocket-08.jpg"",""time"":5861.844999999972},{""stimulus"":""run_exp/static/images/task_images/rocket-09.jpg"",""time"":6711.364999999758}]",[],3,,,,,,,,,,,,,,
alien_welcome,115,622677,0.0-39.0-1.0,,null,run_exp/static/images/task_images/aliens/old_aliens/planet/alien_planet-17.jpg,null,,,,,,,,,,,,17,"33,13,57,17,32,2,12,47,3,15,27,71,80,55,41,74,40,76,11,72,79,36,20,21,5,7",,,,,,,,,,
land,116,623187,0.0-39.0-2.0,,null,run_exp/static/images/task_images/land.jpg,null,,,,,,100,,,4,,,,,,,,,,,,,,
dig,117,625197,0.0-39.0-3.0,,,,,,,,,,,"[{""stimulus"":""run_exp/static/images/task_images/dig.jpg"",""time"":0.31000000028871},{""stimulus"":""run_exp/static/images/task_images/land.jpg"",""time"":668.9050000000279},{""stimulus"":""run_exp/static/images/task_images/dig.jpg"",""time"":1339.3650000002235}]",[],4,,,,,,,,,,,,,,
harvest,118,626204,0.0-39.0-4.0,,null,run_exp/static/images/task_images/gems/100.jpg,null,,,,,,52,,,4,,,,,100,0.51753481,0.52,,,,,,,
decision,119,627083,0.0-39.0-5.0,,877.085,run_exp/static/images/task_images/land.jpg,65,,,,,,52,,,4,,,,,,,,118355,1,0,FALSE,,,
dig,120,629216,0.0-40.0-0.0,,,,,,,,,,,"[{""stimulus"":""run_exp/static/images/task_images/dig.jpg"",""time"":0.2549999998882413},{""stimulus"":""run_exp/static/images/task_images/land.jpg"",""time"":718.9499999999534},{""stimulus"":""run_exp/static/images/task_images/dig.jpg"",""time"":1429.4899999999907}]",[],4,,,,,,,,,,,,,,
harvest,121,630226,0.0-40.0-1.0,,null,run_exp/static/images/task_images/gems/52.jpg,null,,,,,,29,,,4,,,,,52,0.55202935,0.557692308,,,,,,,
decision,122,630617,0.0-40.0-2.0,,387.045,run_exp/static/images/task_images/land.jpg,65,,,,,,29,,,4,,,,,,,,121889,1,1,FALSE,,,
dig,123,633237,0.0-41.0-0.0,,,,,,,,,,,"[{""stimulus"":""run_exp/static/images/task_images/dig.jpg"",""time"":0.19999999995343387},{""stimulus"":""run_exp/static/images/task_images/land.jpg"",""time"":882.4649999997346},{""stimulus"":""run_exp/static/images/task_images/dig.jpg"",""time"":1744.1399999998976}]",[],4,,,,,,,,,,,,,,
harvest,124,634246,0.0-41.0-1.0,,null,run_exp/static/images/task_images/gems/29.jpg,null,,,,,,16,,,4,,,,,29,0.537195454,0.551724138,,,,,,,
decision,125,634866,0.0-41.0-2.0,,617.275,run_exp/static/images/task_images/land.jpg,65,,,,,,16,,,4,,,,,,,,126138,1,2,FALSE,,,
dig,126,637257,0.0-42.0-0.0,,,,,,,,,,,"[{""stimulus"":""run_exp/static/images/task_images/dig.jpg"",""time"":0.21500000008381903},{""stimulus"":""run_exp/static/images/task_images/land.jpg"",""time"":797.4599999998463},{""stimulus"":""run_exp/static/images/task_images/dig.jpg"",""time"":1592.0249999999069}]",[],4,,,,,,,,,,,,,,
harvest,127,638267,0.0-42.0-1.0,,null,run_exp/static/images/task_images/gems/16.jpg,null,,,,,,8,,,4,,,,,16,0.499695738,0.5,,,,,,,
decision,128,638793,0.0-42.0-2.0,,523.015,run_exp/static/images/task_images/land.jpg,65,,,,,,8,,,4,,,,,,,,130065,1,3,FALSE,,,
dig,129,641274,0.0-43.0-0.0,,,,,,,,,,,"[{""stimulus"":""run_exp/static/images/task_images/dig.jpg"",""time"":0.20499999984167516},{""stimulus"":""run_exp/static/images/task_images/land.jpg"",""time"":830.2149999999674},{""stimulus"":""run_exp/static/images/task_images/dig.jpg"",""time"":1660.1649999998044}]",[],4,,,,,,,,,,,,,,
harvest,130,642276,0.0-43.0-1.0,,null,run_exp/static/images/task_images/gems/8.jpg,null,,,,,,4,,,4,,,,,8,0.468933413,0.5,,,,,,,
decision,131,643512,0.0-43.0-2.0,,1233.1,run_exp/static/images/task_images/land.jpg,65,,,,,,4,,,4,,,,,,,,134784,1,4,FALSE,,,
dig,132,645285,0.0-44.0-0.0,,,,,,,,,,,"[{""stimulus"":""run_exp/static/images/task_images/dig.jpg"",""time"":0.219999999855645},{""stimulus"":""run_exp/static/images/task_images/land.jpg"",""time"":591.1099999997532},{""stimulus"":""run_exp/static/images/task_images/dig.jpg"",""time"":1181.419999999809}]",[],4,,,,,,,,,,,,,,
harvest,133,646296,0.0-44.0-1.0,,null,run_exp/static/images/task_images/gems/4.jpg,null,,,,,,2,,,4,,,,,4,0.544502285,0.5,,,,,,,
decision,134,646380,0.0-44.0-2.0,,82.2,run_exp/static/images/task_images/land.jpg,65,,,,,,2,,,4,,,,,,,,137653,1,5,FALSE,,,
dig,135,649304,0.0-45.0-0.0,,,,,,,,,,,"[{""stimulus"":""run_exp/static/images/task_images/dig.jpg"",""time"":0.20499999984167516},{""stimulus"":""run_exp/static/images/task_images/land.jpg"",""time"":982.5949999998556},{""stimulus"":""run_exp/static/images/task_images/dig.jpg"",""time"":1952.714999999851}]",[],4,,,,,,,,,,,,,,
harvest,136,650307,0.0-45.0-1.0,,null,run_exp/static/images/task_images/gems/2.jpg,null,,,,,,1,,,4,,,,,2,0.503548469,0.5,,,,,,,
decision,137,651424,0.0-45.0-2.0,,1115.465,run_exp/static/images/task_images/land.jpg,76,,,,,,1,,,4,,,,,,,,142697,1,6,TRUE,,,
travel,138,660317,0.0-46.0-0.0,,,,,,,,,,,"[{""stimulus"":""run_exp/static/images/task_images/rocket-01.jpg"",""time"":0.24000000033993274},{""stimulus"":""run_exp/static/images/task_images/rocket-02.jpg"",""time"":989.4450000001816},{""stimulus"":""run_exp/static/images/task_images/rocket-03.jpg"",""time"":1978.035000000149},{""stimulus"":""run_exp/static/images/task_images/rocket-04.jpg"",""time"":2968.4050000001444},{""stimulus"":""run_exp/static/images/task_images/rocket-05.jpg"",""time"":3958.0599999999395},{""stimulus"":""run_exp/static/images/task_images/rocket-06.jpg"",""time"":4938.134999999893},{""stimulus"":""run_exp/static/images/task_images/rocket-07.jpg"",""time"":5937.830000000307},{""stimulus"":""run_exp/static/images/task_images/rocket-08.jpg"",""time"":6917.864999999991},{""stimulus"":""run_exp/static/images/task_images/rocket-09.jpg"",""time"":7898.005000000121}]",[],4,,,,,,,,,,,,,,
alien_welcome,139,665326,0.0-46.0-1.0,,null,run_exp/static/images/task_images/aliens/old_aliens/planet/alien_planet-32.jpg,null,,,,,,,,,,,,32,"33,13,57,17,32,2,12,47,3,15,27,71,80,55,41,74,40,76,11,72,79,36,20,21,5,7",,,,,,,,,,
land,140,665837,0.0-46.0-2.0,,null,run_exp/static/images/task_images/land.jpg,null,,,,,,94,,,5,,,,,,,,,,,,,,
dig,141,667845,0.0-46.0-3.0,,,,,,,,,,,"[{""stimulus"":""run_exp/static/images/task_images/dig.jpg"",""time"":0.2850000000325963},{""stimulus"":""run_exp/static/images/task_images/land.jpg"",""time"":677.7900000001537},{""stimulus"":""run_exp/static/images/task_images/dig.jpg"",""time"":1347.9850000003353}]",[],5,,,,,,,,,,,,,,
harvest,142,668857,0.0-46.0-4.0,,null,run_exp/static/images/task_images/gems/94.jpg,null,,,,,,51,,,5,,,,,94,0.542211059,0.542553191,,,,,,,
decision,143,669319,0.0-46.0-5.0,,459.985,run_exp/static/images/task_images/land.jpg,65,,,,,,51,,,5,,,,,,,,160591,1,0,FALSE,,,
dig,144,671870,0.0-47.0-0.0,,,,,,,,,,,"[{""stimulus"":""run_exp/static/images/task_images/dig.jpg"",""time"":0.19999999995343387},{""stimulus"":""run_exp/static/images/task_images/land.jpg"",""time"":853.6899999999441},{""stimulus"":""run_exp/static/images/task_images/dig.jpg"",""time"":1693.6350000001257}]",[],5,,,,,,,,,,,,,,
harvest,145,672880,0.0-47.0-1.0,,null,run_exp/static/images/task_images/gems/51.jpg,null,,,,,,19,,,5,,,,,51,0.375431519,0.37254902,,,,,,,
decision,146,673215,0.0-47.0-2.0,,332.53,run_exp/static/images/task_images/land.jpg,65,,,,,,19,,,5,,,,,,,,164487,1,1,FALSE,,,
dig,147,675890,0.0-48.0-0.0,,,,,,,,,,,"[{""stimulus"":""run_exp/static/images/task_images/dig.jpg"",""time"":0.20000000041909516},{""stimulus"":""run_exp/static/images/task_images/land.jpg"",""time"":891.6550000003772},{""stimulus"":""run_exp/static/images/task_images/dig.jpg"",""time"":1782.5850000004284}]",[],5,,,,,,,,,,,,,,
harvest,148,676901,0.0-48.0-1.0,,null,run_exp/static/images/task_images/gems/19.jpg,null,,,,,,9,,,5,,,,,19,0.456365027,0.473684211,,,,,,,
decision,149,677384,0.0-48.0-2.0,,481.73,run_exp/static/images/task_images/land.jpg,65,,,,,,9,,,5,,,,,,,,168657,1,2,FALSE,,,
dig,150,679910,0.0-49.0-0.0,,,,,,,,,,,"[{""stimulus"":""run_exp/static/images/task_images/dig.jpg"",""time"":0.29499999980907887},{""stimulus"":""run_exp/static/images/task_images/land.jpg"",""time"":846.2850000000326},{""stimulus"":""run_exp/static/images/task_images/dig.jpg"",""time"":1688.5499999998137}]",[],5,,,,,,,,,,,,,,
harvest,151,680920,0.0-49.0-1.0,,null,run_exp/static/images/task_images/gems/9.jpg,null,,,,,,5,,,5,,,,,9,0.562232877,0.555555556,,,,,,,
decision,152,681616,0.0-49.0-2.0,,693.275,run_exp/static/images/task_images/land.jpg,65,,,,,,5,,,5,,,,,,,,172888,1,3,FALSE,,,
dig,153,683930,0.0-50.0-0.0,,,,,,,,,,,"[{""stimulus"":""run_exp/static/images/task_images/dig.jpg"",""time"":0.2249999997438863},{""stimulus"":""run_exp/static/images/task_images/land.jpg"",""time"":769.7999999995809},{""stimulus"":""run_exp/static/images/task_images/dig.jpg"",""time"":1550.9549999997253}]",[],5,,,,,,,,,,,,,,
harvest,154,684941,0.0-50.0-1.0,,null,run_exp/static/images/task_images/gems/5.jpg,null,,,,,,2,,,5,,,,,5,0.476641205,0.4,,,,,,,
decision,155,687950,0.0-50.0-2.0,,null,run_exp/static/images/task_images/land.jpg,null,,,,,,2,,,5,,,,,,,,179223,1,4,FALSE,,,
time_out,156,689961,0.0-51.0-0.0,,null,run_exp/static/images/task_images/time_out.jpg,null,,,,,,2,,,,,,,,,,,,,,,,,
decision,157,690237,0.0-51.0-1.0,,272.62,run_exp/static/images/task_images/land.jpg,76,,,,,,2,,,5,,,,,,,,181509,1,4,TRUE,,,
travel,158,699977,0.0-52.0-0.0,,,,,,,,,,,"[{""stimulus"":""run_exp/static/images/task_images/rocket-01.jpg"",""time"":0.2800000002607703},{""stimulus"":""run_exp/static/images/task_images/rocket-02.jpg"",""time"":1083.8900000003632},{""stimulus"":""run_exp/static/images/task_images/rocket-03.jpg"",""time"":2163.2950000002747},{""stimulus"":""run_exp/static/images/task_images/rocket-04.jpg"",""time"":3243.930000000051},{""stimulus"":""run_exp/static/images/task_images/rocket-05.jpg"",""time"":4323.360000000335},{""stimulus"":""run_exp/static/images/task_images/rocket-06.jpg"",""time"":5403.560000000172},{""stimulus"":""run_exp/static/images/task_images/rocket-07.jpg"",""time"":6483.390000000363},{""stimulus"":""run_exp/static/images/task_images/rocket-08.jpg"",""time"":7563.32500000007},{""stimulus"":""run_exp/static/images/task_images/rocket-09.jpg"",""time"":8643.57500000007}]",[],5,,,,,,,,,,,,,,
alien_welcome,159,704981,0.0-52.0-1.0,,null,run_exp/static/images/task_images/aliens/old_aliens/planet/alien_planet-2.jpg,null,,,,,,,,,,,,2,"33,13,57,17,32,2,12,47,3,15,27,71,80,55,41,74,40,76,11,72,79,36,20,21,5,7",,,,,,,,,,
land,160,705487,0.0-52.0-2.0,,null,run_exp/static/images/task_images/land.jpg,null,,,,,,99,,,6,,,,,,,,,,,,,,
dig,161,707496,0.0-52.0-3.0,,,,,,,,,,,"[{""stimulus"":""run_exp/static/images/task_images/dig.jpg"",""time"":0.7949999999254942},{""stimulus"":""run_exp/static/images/task_images/land.jpg"",""time"":671.3650000001071},{""stimulus"":""run_exp/static/images/task_images/dig.jpg"",""time"":1341.2750000002561}]",[],6,,,,,,,,,,,,,,
harvest,162,708500,0.0-52.0-4.0,,null,run_exp/static/images/task_images/gems/99.jpg,null,,,,,,80,,,6,,,,,99,0.808846706,0.808080808,,,,,,,
decision,163,709209,0.0-52.0-5.0,,706.265,run_exp/static/images/task_images/land.jpg,65,,,,,,80,,,6,,,,,,,,200481,1,0,FALSE,,,
dig,164,711512,0.0-53.0-0.0,,,,,,,,,,,"[{""stimulus"":""run_exp/static/images/task_images/dig.jpg"",""time"":0.20499999984167516},{""stimulus"":""run_exp/static/images/task_images/land.jpg"",""time"":767.2600000001257},{""stimulus"":""run_exp/static/images/task_images/dig.jpg"",""time"":1537.3850000001257}]",[],6,,,,,,,,,,,,,,
harvest,165,712521,0.0-53.0-1.0,,null,run_exp/static/images/task_images/gems/80.jpg,null,,,,,,69,,,6,,,,,80,0.866817658,0.8625,,,,,,,
decision,166,712956,0.0-53.0-2.0,,432.865,run_exp/static/images/task_images/land.jpg,65,,,,,,69,,,6,,,,,,,,204229,1,1,FALSE,,,
dig,167,715530,0.0-54.0-0.0,,,,,,,,,,,"[{""stimulus"":""run_exp/static/images/task_images/dig.jpg"",""time"":0.4400000002933666},{""stimulus"":""run_exp/static/images/task_images/land.jpg"",""time"":859.3700000002282},{""stimulus"":""run_exp/static/images/task_images/dig.jpg"",""time"":1714.5200000000186}]",[],6,,,,,,,,,,,,,,
harvest,168,716540,0.0-54.0-1.0,,null,run_exp/static/images/task_images/gems/69.jpg,null,,,,,,53,,,6,,,,,69,0.770592522,0.768115942,,,,,,,
decision,169,717242,0.0-54.0-2.0,,699.495,run_exp/static/images/task_images/land.jpg,65,,,,,,53,,,6,,,,,,,,208514,1,2,FALSE,,,
dig,170,719550,0.0-55.0-0.0,,,,,,,,,,,"[{""stimulus"":""run_exp/static/images/task_images/dig.jpg"",""time"":0.1949999995995313},{""stimulus"":""run_exp/static/images/task_images/land.jpg"",""time"":774.4899999997579},{""stimulus"":""run_exp/static/images/task_images/dig.jpg"",""time"":1544.214999999851}]",[],6,,,,,,,,,,,,,,
harvest,171,720560,0.0-55.0-1.0,,null,run_exp/static/images/task_images/gems/53.jpg,null,,,,,,42,,,6,,,,,53,0.799114505,0.79245283,,,,,,,
decision,172,721913,0.0-55.0-2.0,,1350.36,run_exp/static/images/task_images/land.jpg,65,,,,,,42,,,6,,,,,,,,213185,1,3,FALSE,,,
dig,173,723570,0.0-56.0-0.0,,,,,,,,,,,"[{""stimulus"":""run_exp/static/images/task_images/dig.jpg"",""time"":0.1900000001769513},{""stimulus"":""run_exp/static/images/task_images/land.jpg"",""time"":553.925000000163},{""stimulus"":""run_exp/static/images/task_images/dig.jpg"",""time"":1103.0550000000512}]",[],6,,,,,,,,,,,,,,
harvest,174,724580,0.0-56.0-1.0,,null,run_exp/static/images/task_images/gems/42.jpg,null,,,,,,36,,,6,,,,,42,0.865176515,0.857142857,,,,,,,
decision,175,725263,0.0-56.0-2.0,,680.785,run_exp/static/images/task_images/land.jpg,65,,,,,,36,,,6,,,,,,,,216535,1,4,FALSE,,,
dig,176,727590,0.0-57.0-0.0,,,,,,,,,,,"[{""stimulus"":""run_exp/static/images/task_images/dig.jpg"",""time"":0.20499999984167516},{""stimulus"":""run_exp/static/images/task_images/land.jpg"",""time"":783.2099999996135},{""stimulus"":""run_exp/static/images/task_images/dig.jpg"",""time"":1553.309999999823}]",[],6,,,,,,,,,,,,,,
harvest,177,728600,0.0-57.0-1.0,,null,run_exp/static/images/task_images/gems/36.jpg,null,,,,,,30,,,6,,,,,36,0.84531849,0.833333333,,,,,,,
decision,178,728950,0.0-57.0-2.0,,348.355,run_exp/static/images/task_images/land.jpg,65,,,,,,30,,,6,,,,,,,,220223,1,5,FALSE,,,
dig,179,731610,0.0-58.0-0.0,,,,,,,,,,,"[{""stimulus"":""run_exp/static/images/task_images/dig.jpg"",""time"":0.21500000008381903},{""stimulus"":""run_exp/static/images/task_images/land.jpg"",""time"":885.6000000000931},{""stimulus"":""run_exp/static/images/task_images/dig.jpg"",""time"":1771.705000000191}]",[],6,,,,,,,,,,,,,,
harvest,180,732620,0.0-58.0-1.0,,null,run_exp/static/images/task_images/gems/30.jpg,null,,,,,,24,,,6,,,,,30,0.800324423,0.8,,,,,,,
decision,181,733934,0.0-58.0-2.0,,1311.825,run_exp/static/images/task_images/land.jpg,65,,,,,,24,,,6,,,,,,,,225206,1,6,FALSE,,,
dig,182,735630,0.0-59.0-0.0,,,,,,,,,,,"[{""stimulus"":""run_exp/static/images/task_images/dig.jpg"",""time"":0.21000000007916242},{""stimulus"":""run_exp/static/images/task_images/land.jpg"",""time"":572.160000000149},{""stimulus"":""run_exp/static/images/task_images/dig.jpg"",""time"":1128.8550000003306}]",[],6,,,,,,,,,,,,,,
harvest,183,736640,0.0-59.0-1.0,,null,run_exp/static/images/task_images/gems/24.jpg,null,,,,,,20,,,6,,,,,24,0.845118679,0.833333333,,,,,,,
decision,184,736808,0.0-59.0-2.0,,165.165,run_exp/static/images/task_images/land.jpg,65,,,,,,20,,,6,,,,,,,,228080,1,7,FALSE,,,
dig,185,739651,0.0-60.0-0.0,,,,,,,,,,,"[{""stimulus"":""run_exp/static/images/task_images/dig.jpg"",""time"":0.19999999995343387},{""stimulus"":""run_exp/static/images/task_images/land.jpg"",""time"":958.160000000149},{""stimulus"":""run_exp/static/images/task_images/dig.jpg"",""time"":1899.330000000191}]",[],6,,,,,,,,,,,,,,
harvest,186,740661,0.0-60.0-1.0,,null,run_exp/static/images/task_images/gems/20.jpg,null,,,,,,14,,,6,,,,,20,0.701783772,0.7,,,,,,,
decision,187,741922,0.0-60.0-2.0,,1258.985,run_exp/static/images/task_images/land.jpg,65,,,,,,14,,,6,,,,,,,,233194,1,8,FALSE,,,
dig,188,743670,0.0-61.0-0.0,,,,,,,,,,,"[{""stimulus"":""run_exp/static/images/task_images/dig.jpg"",""time"":0.21500000008381903},{""stimulus"":""run_exp/static/images/task_images/land.jpg"",""time"":584.5200000003679},{""stimulus"":""run_exp/static/images/task_images/dig.jpg"",""time"":1163.1700000002747}]",[],6,,,,,,,,,,,,,,
harvest,189,744681,0.0-61.0-1.0,,null,run_exp/static/images/task_images/gems/14.jpg,null,,,,,,12,,,6,,,,,14,0.850850444,0.857142857,,,,,,,
decision,190,745059,0.0-61.0-2.0,,376.54,run_exp/static/images/task_images/land.jpg,65,,,,,,12,,,6,,,,,,,,236332,1,9,FALSE,,,
dig,191,747690,0.0-62.0-0.0,,,,,,,,,,,"[{""stimulus"":""run_exp/static/images/task_images/dig.jpg"",""time"":0.23499999998603016},{""stimulus"":""run_exp/static/images/task_images/land.jpg"",""time"":876.949999999837},{""stimulus"":""run_exp/static/images/task_images/dig.jpg"",""time"":1756.390000000014}]",[],6,,,,,,,,,,,,,,
harvest,192,748695,0.0-62.0-1.0,,null,run_exp/static/images/task_images/gems/12.jpg,null,,,,,,9,,,6,,,,,12,0.767564245,0.75,,,,,,,
decision,193,748976,0.0-62.0-2.0,,279.135,run_exp/static/images/task_images/land.jpg,65,,,,,,9,,,6,,,,,,,,240248,1,10,FALSE,,,
dig,194,751716,0.0-63.0-0.0,,,,,,,,,,,"[{""stimulus"":""run_exp/static/images/task_images/dig.jpg"",""time"":0.23499999998603016},{""stimulus"":""run_exp/static/images/task_images/land.jpg"",""time"":910.1349999996601},{""stimulus"":""run_exp/static/images/task_images/dig.jpg"",""time"":1817.8450000000885}]",[],6,,,,,,,,,,,,,,
harvest,195,752730,0.0-63.0-1.0,,null,run_exp/static/images/task_images/gems/9.jpg,null,,,,,,8,,,6,,,,,9,0.860360943,0.888888889,,,,,,,
decision,196,752753,0.0-63.0-2.0,,21.235,run_exp/static/images/task_images/land.jpg,65,,,,,,8,,,6,,,,,,,,244025,1,11,FALSE,,,
dig,197,755740,0.0-64.0-0.0,,,,,,,,,,,"[{""stimulus"":""run_exp/static/images/task_images/dig.jpg"",""time"":0.23499999998603016},{""stimulus"":""run_exp/static/images/task_images/land.jpg"",""time"":1001.9750000000931},{""stimulus"":""run_exp/static/images/task_images/dig.jpg"",""time"":1991.4149999999208}]",[],6,,,,,,,,,,,,,,
harvest,198,756750,0.0-64.0-1.0,,null,run_exp/static/images/task_images/gems/8.jpg,null,,,,,,7,,,6,,,,,8,0.840003297,0.875,,,,,,,
decision,199,757013,0.0-64.0-2.0,,261.225,run_exp/static/images/task_images/land.jpg,65,,,,,,7,,,6,,,,,,,,248285,1,12,FALSE,,,
dig,200,759760,0.0-65.0-0.0,,,,,,,,,,,"[{""stimulus"":""run_exp/static/images/task_images/dig.jpg"",""time"":0.3200000001816079},{""stimulus"":""run_exp/static/images/task_images/land.jpg"",""time"":915.9199999999255},{""stimulus"":""run_exp/static/images/task_images/dig.jpg"",""time"":1831.7499999998836}]",[],6,,,,,,,,,,,,,,
harvest,201,760769,0.0-65.0-1.0,,null,run_exp/static/images/task_images/gems/7.jpg,null,,,,,,6,,,6,,,,,7,0.794713111,0.857142857,,,,,,,
decision,202,761079,0.0-65.0-2.0,,307.97,run_exp/static/images/task_images/land.jpg,65,,,,,,6,,,6,,,,,,,,252352,1,13,FALSE,,,
dig,203,763780,0.0-66.0-0.0,,,,,,,,,,,"[{""stimulus"":""run_exp/static/images/task_images/dig.jpg"",""time"":0.23000000009778887},{""stimulus"":""run_exp/static/images/task_images/land.jpg"",""time"":906.0699999999488},{""stimulus"":""run_exp/static/images/task_images/dig.jpg"",""time"":1806.1649999999208}]",[],6,,,,,,,,,,,,,,
harvest,204,764786,0.0-66.0-1.0,,null,run_exp/static/images/task_images/gems/6.jpg,null,,,,,,5,,,6,,,,,6,0.8511425,0.833333333,,,,,,,
decision,205,765151,0.0-66.0-2.0,,363.155,run_exp/static/images/task_images/land.jpg,65,,,,,,5,,,6,,,,,,,,256423,1,14,FALSE,,,
dig,206,767801,0.0-67.0-0.0,,,,,,,,,,,"[{""stimulus"":""run_exp/static/images/task_images/dig.jpg"",""time"":0.2200000003213063},{""stimulus"":""run_exp/static/images/task_images/land.jpg"",""time"":884.8400000000838},{""stimulus"":""run_exp/static/images/task_images/dig.jpg"",""time"":1765.1100000002189}]",[],6,,,,,,,,,,,,,,
harvest,207,768810,0.0-67.0-1.0,,null,run_exp/static/images/task_images/gems/5.jpg,null,,,,,,4,,,6,,,,,5,0.782468259,0.8,,,,,,,
decision,208,768922,0.0-67.0-2.0,,110.19,run_exp/static/images/task_images/land.jpg,65,,,,,,4,,,6,,,,,,,,260194,1,15,FALSE,,,
dig,209,771819,0.0-68.0-0.0,,,,,,,,,,,"[{""stimulus"":""run_exp/static/images/task_images/dig.jpg"",""time"":0.20499999984167516},{""stimulus"":""run_exp/static/images/task_images/land.jpg"",""time"":973.7949999998091},{""stimulus"":""run_exp/static/images/task_images/dig.jpg"",""time"":1934.4449999998324}]",[],6,,,,,,,,,,,,,,
harvest,210,772830,0.0-68.0-1.0,,null,run_exp/static/images/task_images/gems/4.jpg,null,,,,,,3,,,6,,,,,4,0.845181958,0.75,,,,,,,
decision,211,773671,0.0-68.0-2.0,,839.315,run_exp/static/images/task_images/land.jpg,76,,,,,,3,,,6,,,,,,,,264943,1,16,TRUE,,,
travel,212,782830,0.0-69.0-0.0,,,,,,,,,,,"[{""stimulus"":""run_exp/static/images/task_images/rocket-01.jpg"",""time"":0.219999999855645},{""stimulus"":""run_exp/static/images/task_images/rocket-02.jpg"",""time"":1024.969999999972},{""stimulus"":""run_exp/static/images/task_images/rocket-03.jpg"",""time"":2043.6249999997672},{""stimulus"":""run_exp/static/images/task_images/rocket-04.jpg"",""time"":3054.6299999996554},{""stimulus"":""run_exp/static/images/task_images/rocket-05.jpg"",""time"":4074.734999999637},{""stimulus"":""run_exp/static/images/task_images/rocket-06.jpg"",""time"":5090.714999999851},{""stimulus"":""run_exp/static/images/task_images/rocket-07.jpg"",""time"":6114.759999999893},{""stimulus"":""run_exp/static/images/task_images/rocket-08.jpg"",""time"":7125.234999999986},{""stimulus"":""run_exp/static/images/task_images/rocket-09.jpg"",""time"":8145.520000000019}]",[],6,,,,,,,,,,,,,,
alien_welcome,213,787840,0.0-69.0-1.0,,null,run_exp/static/images/task_images/aliens/old_aliens/planet/alien_planet-12.jpg,null,,,,,,,,,,,,12,"33,13,57,17,32,2,12,47,3,15,27,71,80,55,41,74,40,76,11,72,79,36,20,21,5,7",,,,,,,,,,
land,214,788351,0.0-69.0-2.0,,null,run_exp/static/images/task_images/land.jpg,null,,,,,,103,,,7,,,,,,,,,,,,,,
dig,215,790360,0.0-69.0-3.0,,,,,,,,,,,"[{""stimulus"":""run_exp/static/images/task_images/dig.jpg"",""time"":0.2850000000325963},{""stimulus"":""run_exp/static/images/task_images/land.jpg"",""time"":676.7650000001304},{""stimulus"":""run_exp/static/images/task_images/dig.jpg"",""time"":1337.434999999823}]",[],7,,,,,,,,,,,,,,
harvest,216,791371,0.0-69.0-4.0,,null,run_exp/static/images/task_images/gems/103.jpg,null,,,,,,77,,,7,,,,,103,0.750153163,0.747572816,,,,,,,
decision,217,792251,0.0-69.0-5.0,,877.695,run_exp/static/images/task_images/land.jpg,65,,,,,,77,,,7,,,,,,,,283524,1,0,FALSE,,,
dig,218,794388,0.0-70.0-0.0,,,,,,,,,,,"[{""stimulus"":""run_exp/static/images/task_images/dig.jpg"",""time"":0.2649999996647239},{""stimulus"":""run_exp/static/images/task_images/land.jpg"",""time"":725.2999999995809},{""stimulus"":""run_exp/static/images/task_images/dig.jpg"",""time"":1424.9199999999255}]",[],7,,,,,,,,,,,,,,
harvest,219,795399,0.0-70.0-1.0,,null,run_exp/static/images/task_images/gems/77.jpg,null,,,,,,64,,,7,,,,,77,0.834771576,0.831168831,,,,,,,
decision,220,796294,0.0-70.0-2.0,,893.46,run_exp/static/images/task_images/land.jpg,65,,,,,,64,,,7,,,,,,,,287567,1,1,FALSE,,,
dig,221,798409,0.0-71.0-0.0,,,,,,,,,,,"[{""stimulus"":""run_exp/static/images/task_images/dig.jpg"",""time"":0.22500000020954758},{""stimulus"":""run_exp/static/images/task_images/land.jpg"",""time"":709.7100000000792},{""stimulus"":""run_exp/static/images/task_images/dig.jpg"",""time"":1409.6400000003632}]",[],7,,,,,,,,,,,,,,
harvest,222,799419,0.0-71.0-1.0,,null,run_exp/static/images/task_images/gems/64.jpg,null,,,,,,48,,,7,,,,,64,0.756972965,0.75,,,,,,,
decision,223,799811,0.0-71.0-2.0,,389.78,run_exp/static/images/task_images/land.jpg,65,,,,,,48,,,7,,,,,,,,291083,1,2,FALSE,,,
dig,224,802429,0.0-72.0-0.0,,,,,,,,,,,"[{""stimulus"":""run_exp/static/images/task_images/dig.jpg"",""time"":0.2149999999674037},{""stimulus"":""run_exp/static/images/task_images/land.jpg"",""time"":873.2199999998556},{""stimulus"":""run_exp/static/images/task_images/dig.jpg"",""time"":1743.9400000002934}]",[],7,,,,,,,,,,,,,,
harvest,225,803439,0.0-72.0-1.0,,null,run_exp/static/images/task_images/gems/48.jpg,null,,,,,,41,,,7,,,,,48,0.856556005,0.854166667,,,,,,,
decision,226,804318,0.0-72.0-2.0,,876.985,run_exp/static/images/task_images/land.jpg,65,,,,,,41,,,7,,,,,,,,295590,1,3,FALSE,,,
dig,227,806449,0.0-73.0-0.0,,,,,,,,,,,"[{""stimulus"":""run_exp/static/images/task_images/dig.jpg"",""time"":0.9999999997671694},{""stimulus"":""run_exp/static/images/task_images/land.jpg"",""time"":726.1749999998137},{""stimulus"":""run_exp/static/images/task_images/dig.jpg"",""time"":1416.6249999998836}]",[],7,,,,,,,,,,,,,,
harvest,228,807459,0.0-73.0-1.0,,null,run_exp/static/images/task_images/gems/41.jpg,null,,,,,,32,,,7,,,,,41,0.786916564,0.780487805,,,,,,,
decision,229,808043,0.0-73.0-2.0,,582.09,run_exp/static/images/task_images/land.jpg,65,,,,,,32,,,7,,,,,,,,299316,1,4,FALSE,,,
dig,230,810469,0.0-74.0-0.0,,,,,,,,,,,"[{""stimulus"":""run_exp/static/images/task_images/dig.jpg"",""time"":0.2200000003213063},{""stimulus"":""run_exp/static/images/task_images/land.jpg"",""time"":809.4550000000745},{""stimulus"":""run_exp/static/images/task_images/dig.jpg"",""time"":1620.675000000163}]",[],7,,,,,,,,,,,,,,
harvest,231,811479,0.0-74.0-1.0,,null,run_exp/static/images/task_images/gems/32.jpg,null,,,,,,27,,,7,,,,,32,0.838906851,0.84375,,,,,,,
decision,232,811805,0.0-74.0-2.0,,324.41,run_exp/static/images/task_images/land.jpg,65,,,,,,27,,,7,,,,,,,,303078,1,5,TRUE,,,
end_of_block_continue,233,820641,0.0-75.0-0.0,,null,run_exp/static/audio/clip_32_block_end.m4a,,,,,,null,,,,,,,,,,,,,,,,,,
alien_welcome,234,825648,0.0-76.0-0.0,,null,run_exp/static/images/task_images/aliens/old_aliens/planet/alien_planet-47.jpg,null,,,,,,,,,,,,47,"33,13,57,17,32,2,12,47,3,15,27,71,80,55,41,74,40,76,11,72,79,36,20,21,5,7",,,,,,,,,,
land,235,826159,0.0-76.0-1.0,,null,run_exp/static/images/task_images/land.jpg,null,,,,,,113,,,8,,,,,,,,,,,,,,
dig,236,828178,0.0-76.0-2.0,,,,,,,,,,,"[{""stimulus"":""run_exp/static/images/task_images/dig.jpg"",""time"":0.3150000001769513},{""stimulus"":""run_exp/static/images/task_images/land.jpg"",""time"":677.6300000001211},{""stimulus"":""run_exp/static/images/task_images/dig.jpg"",""time"":1346.9050000002608}]",[],8,,,,,,,,,,,,,,
harvest,237,829189,0.0-76.0-3.0,,null,run_exp/static/images/task_images/gems/113.jpg,null,,,,,,15,,,8,,,,,113,0.134194158,0.132743363,,,,,,,
decision,238,830034,0.0-76.0-4.0,,843.085,run_exp/static/images/task_images/land.jpg,65,,,,,,15,,,8,,,,,,,,9389,2,0,FALSE,,,
dig,239,832198,0.0-77.0-0.0,,,,,,,,,,,"[{""stimulus"":""run_exp/static/images/task_images/dig.jpg"",""time"":0.29000000038649887},{""stimulus"":""run_exp/static/images/task_images/land.jpg"",""time"":729.4850000003353},{""stimulus"":""run_exp/static/images/task_images/dig.jpg"",""time"":1439.765000000014}]",[],8,,,,,,,,,,,,,,
harvest,240,833208,0.0-77.0-1.0,,null,run_exp/static/images/task_images/gems/15.jpg,null,,,,,,4,,,8,,,,,15,0.270378715,0.266666667,,,,,,,
decision,241,833451,0.0-77.0-2.0,,240.835,run_exp/static/images/task_images/land.jpg,65,,,,,,4,,,8,,,,,,,,12806,2,1,FALSE,,,
dig,242,836218,0.0-78.0-0.0,,,,,,,,,,,"[{""stimulus"":""run_exp/static/images/task_images/dig.jpg"",""time"":0.21500000008381903},{""stimulus"":""run_exp/static/images/task_images/land.jpg"",""time"":923.2350000002189},{""stimulus"":""run_exp/static/images/task_images/dig.jpg"",""time"":1842.745000000461}]",[],8,,,,,,,,,,,,,,
harvest,243,837228,0.0-78.0-1.0,,null,run_exp/static/images/task_images/gems/4.jpg,null,,,,,,1,,,8,,,,,4,0.159817911,0.25,,,,,,,
decision,244,837552,0.0-78.0-2.0,,321.78,run_exp/static/images/task_images/land.jpg,65,,,,,,1,,,8,,,,,,,,16907,2,2,FALSE,,,
dig,245,840238,0.0-79.0-0.0,,,,,,,,,,,"[{""stimulus"":""run_exp/static/images/task_images/dig.jpg"",""time"":0.3200000000651926},{""stimulus"":""run_exp/static/images/task_images/land.jpg"",""time"":901.9450000000652},{""stimulus"":""run_exp/static/images/task_images/dig.jpg"",""time"":1790.9050000002608}]",[],8,,,,,,,,,,,,,,
harvest,246,841248,0.0-79.0-1.0,,null,run_exp/static/images/task_images/gems/1.jpg,null,,,,,,0,,,8,,,,,1,0.228111003,0,,,,,,,
decision,247,842033,0.0-79.0-2.0,,782.47,run_exp/static/images/task_images/land.jpg,65,,,,,,0,,,8,,,,,,,,21388,2,3,FALSE,,,
dig,248,844258,0.0-80.0-0.0,,,,,,,,,,,"[{""stimulus"":""run_exp/static/images/task_images/dig.jpg"",""time"":0.23499999998603016},{""stimulus"":""run_exp/static/images/task_images/land.jpg"",""time"":748.789999999688},{""stimulus"":""run_exp/static/images/task_images/dig.jpg"",""time"":1499.0499999999302}]",[],8,,,,,,,,,,,,,,
harvest,249,845268,0.0-80.0-1.0,,null,run_exp/static/images/task_images/gems/0.jpg,null,,,,,,0,,,8,,,,,0,0.159393196,NaN,,,,,,,
decision,250,846592,0.0-80.0-2.0,,1322.05,run_exp/static/images/task_images/land.jpg,76,,,,,,0,,,8,,,,,,,,25947,2,4,TRUE,,,
travel,251,855278,0.0-81.0-0.0,,,,,,,,,,,"[{""stimulus"":""run_exp/static/images/task_images/rocket-01.jpg"",""time"":0.3500000003259629},{""stimulus"":""run_exp/static/images/task_images/rocket-02.jpg"",""time"":967.9000000001397},{""stimulus"":""run_exp/static/images/task_images/rocket-03.jpg"",""time"":1932.295000000042},{""stimulus"":""run_exp/static/images/task_images/rocket-04.jpg"",""time"":2902.0350000000326},{""stimulus"":""run_exp/static/images/task_images/rocket-05.jpg"",""time"":3862.024999999907},{""stimulus"":""run_exp/static/images/task_images/rocket-06.jpg"",""time"":4821.940000000293},{""stimulus"":""run_exp/static/images/task_images/rocket-07.jpg"",""time"":5797.425000000163},{""stimulus"":""run_exp/static/images/task_images/rocket-08.jpg"",""time"":6752.289999999921},{""stimulus"":""run_exp/static/images/task_images/rocket-09.jpg"",""time"":7720.41500000027}]",[],8,,,,,,,,,,,,,,
alien_welcome,252,860288,0.0-81.0-1.0,,null,run_exp/static/images/task_images/aliens/old_aliens/planet/alien_planet-3.jpg,null,,,,,,,,,,,,3,"33,13,57,17,32,2,12,47,3,15,27,71,80,55,41,74,40,76,11,72,79,36,20,21,5,7",,,,,,,,,,
land,253,860799,0.0-81.0-2.0,,null,run_exp/static/images/task_images/land.jpg,null,,,,,,102,,,9,,,,,,,,,,,,,,
dig,254,862808,0.0-81.0-3.0,,,,,,,,,,,"[{""stimulus"":""run_exp/static/images/task_images/dig.jpg"",""time"":0.2850000000325963},{""stimulus"":""run_exp/static/images/task_images/land.jpg"",""time"":677.729999999865},{""stimulus"":""run_exp/static/images/task_images/dig.jpg"",""time"":1347.3699999999953}]",[],9,,,,,,,,,,,,,,
harvest,255,863818,0.0-81.0-4.0,,null,run_exp/static/images/task_images/gems/102.jpg,null,,,,,,25,,,9,,,,,102,0.241469348,0.245098039,,,,,,,
decision,256,864138,0.0-81.0-5.0,,317.95,run_exp/static/images/task_images/land.jpg,65,,,,,,25,,,9,,,,,,,,43493,2,0,FALSE,,,
dig,257,866829,0.0-82.0-0.0,,,,,,,,,,,"[{""stimulus"":""run_exp/static/images/task_images/dig.jpg"",""time"":0.3150000002933666},{""stimulus"":""run_exp/static/images/task_images/land.jpg"",""time"":895.6800000001676},{""stimulus"":""run_exp/static/images/task_images/dig.jpg"",""time"":1792.5300000002608}]",[],9,,,,,,,,,,,,,,
harvest,258,867838,0.0-82.0-1.0,,null,run_exp/static/images/task_images/gems/25.jpg,null,,,,,,7,,,9,,,,,25,0.2665719,0.28,,,,,,,
decision,259,867844,0.0-82.0-2.0,,3.335,run_exp/static/images/task_images/land.jpg,65,,,,,,7,,,9,,,,,,,,47199,2,1,FALSE,,,
dig,260,870847,0.0-83.0-0.0,,,,,,,,,,,"[{""stimulus"":""run_exp/static/images/task_images/dig.jpg"",""time"":0.32999999984167516},{""stimulus"":""run_exp/static/images/task_images/land.jpg"",""time"":1004.0300000000279},{""stimulus"":""run_exp/static/images/task_images/dig.jpg"",""time"":2007.6399999997811}]",[],9,,,,,,,,,,,,,,
harvest,261,871857,0.0-83.0-1.0,,null,run_exp/static/images/task_images/gems/7.jpg,null,,,,,,1,,,9,,,,,7,0.165910046,0.142857143,,,,,,,
decision,262,873292,0.0-83.0-2.0,,1432.505,run_exp/static/images/task_images/land.jpg,76,,,,,,1,,,9,,,,,,,,52647,2,2,TRUE,,,
travel,263,881858,0.0-84.0-0.0,,,,,,,,,,,"[{""stimulus"":""run_exp/static/images/task_images/rocket-01.jpg"",""time"":0.21500000008381903},{""stimulus"":""run_exp/static/images/task_images/rocket-02.jpg"",""time"":961.1350000000093},{""stimulus"":""run_exp/static/images/task_images/rocket-03.jpg"",""time"":1911.5950000000885},{""stimulus"":""run_exp/static/images/task_images/rocket-04.jpg"",""time"":2861.625},{""stimulus"":""run_exp/static/images/task_images/rocket-05.jpg"",""time"":3821.9850000001024},{""stimulus"":""run_exp/static/images/task_images/rocket-06.jpg"",""time"":4761.010000000242},{""stimulus"":""run_exp/static/images/task_images/rocket-07.jpg"",""time"":5710.935000000056},{""stimulus"":""run_exp/static/images/task_images/rocket-08.jpg"",""time"":6661.259999999893},{""stimulus"":""run_exp/static/images/task_images/rocket-09.jpg"",""time"":7610.905000000028}]",[],9,,,,,,,,,,,,,,
alien_welcome,264,886868,0.0-84.0-1.0,,null,run_exp/static/images/task_images/aliens/old_aliens/planet/alien_planet-15.jpg,null,,,,,,,,,,,,15,"33,13,57,17,32,2,12,47,3,15,27,71,80,55,41,74,40,76,11,72,79,36,20,21,5,7",,,,,,,,,,
land,265,887372,0.0-84.0-2.0,,null,run_exp/static/images/task_images/land.jpg,null,,,,,,104,,,10,,,,,,,,,,,,,,
dig,266,889378,0.0-84.0-3.0,,,,,,,,,,,"[{""stimulus"":""run_exp/static/images/task_images/dig.jpg"",""time"":0.2599999998928979},{""stimulus"":""run_exp/static/images/task_images/land.jpg"",""time"":674.4800000002142},{""stimulus"":""run_exp/static/images/task_images/dig.jpg"",""time"":1344.5350000002654}]",[],10,,,,,,,,,,,,,,
harvest,267,890388,0.0-84.0-4.0,,null,run_exp/static/images/task_images/gems/104.jpg,null,,,,,,27,,,10,,,,,104,0.255571147,0.259615385,,,,,,,
decision,268,890713,0.0-84.0-5.0,,322.355,run_exp/static/images/task_images/land.jpg,65,,,,,,27,,,10,,,,,,,,70068,2,0,FALSE,,,
dig,269,893398,0.0-85.0-0.0,,,,,,,,,,,"[{""stimulus"":""run_exp/static/images/task_images/dig.jpg"",""time"":0.2149999999674037},{""stimulus"":""run_exp/static/images/task_images/land.jpg"",""time"":900.0749999999534},{""stimulus"":""run_exp/static/images/task_images/dig.jpg"",""time"":1791.0249999999069}]",[],10,,,,,,,,,,,,,,
harvest,270,894408,0.0-85.0-1.0,,null,run_exp/static/images/task_images/gems/27.jpg,null,,,,,,6,,,10,,,,,27,0.23406339,0.222222222,,,,,,,
decision,271,894544,0.0-85.0-2.0,,133.65,run_exp/static/images/task_images/land.jpg,65,,,,,,6,,,10,,,,,,,,73899,2,1,FALSE,,,
dig,272,897428,0.0-86.0-0.0,,,,,,,,,,,"[{""stimulus"":""run_exp/static/images/task_images/dig.jpg"",""time"":0.21000000019557774},{""stimulus"":""run_exp/static/images/task_images/land.jpg"",""time"":958.7799999999115},{""stimulus"":""run_exp/static/images/task_images/dig.jpg"",""time"":1917.4899999998743}]",[],10,,,,,,,,,,,,,,
harvest,273,898438,0.0-86.0-1.0,,null,run_exp/static/images/task_images/gems/6.jpg,null,,,,,,1,,,10,,,,,6,0.13995882,0.166666667,,,,,,,
decision,274,898445,0.0-86.0-2.0,,4.495,run_exp/static/images/task_images/land.jpg,65,,,,,,1,,,10,,,,,,,,77800,2,2,FALSE,,,
dig,275,901448,0.0-87.0-0.0,,,,,,,,,,,"[{""stimulus"":""run_exp/static/images/task_images/dig.jpg"",""time"":0.20499999984167516},{""stimulus"":""run_exp/static/images/task_images/land.jpg"",""time"":1005.5149999998976},{""stimulus"":""run_exp/static/images/task_images/dig.jpg"",""time"":2007.0700000001816}]",[],10,,,,,,,,,,,,,,
harvest,276,902459,0.0-87.0-1.0,,null,run_exp/static/images/task_images/gems/1.jpg,null,,,,,,0,,,10,,,,,1,0.146368209,0,,,,,,,
decision,277,902930,0.0-87.0-2.0,,469.58,run_exp/static/images/task_images/land.jpg,76,,,,,,0,,,10,,,,,,,,82285,2,3,TRUE,,,
travel,278,912468,0.0-88.0-0.0,,,,,,,,,,,"[{""stimulus"":""run_exp/static/images/task_images/rocket-01.jpg"",""time"":0.21000000019557774},{""stimulus"":""run_exp/static/images/task_images/rocket-02.jpg"",""time"":1062.975000000326},{""stimulus"":""run_exp/static/images/task_images/rocket-03.jpg"",""time"":2122.925000000163},{""stimulus"":""run_exp/static/images/task_images/rocket-04.jpg"",""time"":3193.180000000284},{""stimulus"":""run_exp/static/images/task_images/rocket-05.jpg"",""time"":4244.070000000182},{""stimulus"":""run_exp/static/images/task_images/rocket-06.jpg"",""time"":5293.560000000056},{""stimulus"":""run_exp/static/images/task_images/rocket-07.jpg"",""time"":6353.090000000084},{""stimulus"":""run_exp/static/images/task_images/rocket-08.jpg"",""time"":7412.5550000004005},{""stimulus"":""run_exp/static/images/task_images/rocket-09.jpg"",""time"":8482.895000000135}]",[],10,,,,,,,,,,,,,,
alien_welcome,279,917479,0.0-88.0-1.0,,null,run_exp/static/images/task_images/aliens/old_aliens/planet/alien_planet-27.jpg,null,,,,,,,,,,,,27,"33,13,57,17,32,2,12,47,3,15,27,71,80,55,41,74,40,76,11,72,79,36,20,21,5,7",,,,,,,,,,
land,280,917990,0.0-88.0-2.0,,null,run_exp/static/images/task_images/land.jpg,null,,,,,,96,,,11,,,,,,,,,,,,,,
dig,281,919999,0.0-88.0-3.0,,,,,,,,,,,"[{""stimulus"":""run_exp/static/images/task_images/dig.jpg"",""time"":0.2850000001490116},{""stimulus"":""run_exp/static/images/task_images/land.jpg"",""time"":677.589999999851},{""stimulus"":""run_exp/static/images/task_images/dig.jpg"",""time"":1338.464999999851}]",[],11,,,,,,,,,,,,,,
harvest,282,921010,0.0-88.0-4.0,,null,run_exp/static/images/task_images/gems/96.jpg,null,,,,,,86,,,11,,,,,96,0.894764185,0.895833333,,,,,,,
decision,283,921651,0.0-88.0-5.0,,638.7,run_exp/static/images/task_images/land.jpg,65,,,,,,86,,,11,,,,,,,,101006,2,0,FALSE,,,
dig,284,924025,0.0-89.0-0.0,,,,,,,,,,,"[{""stimulus"":""run_exp/static/images/task_images/dig.jpg"",""time"":0.30999999993946403},{""stimulus"":""run_exp/static/images/task_images/land.jpg"",""time"":804.2799999997951},{""stimulus"":""run_exp/static/images/task_images/dig.jpg"",""time"":1579.3399999997346}]",[],11,,,,,,,,,,,,,,
harvest,285,925031,0.0-89.0-1.0,,null,run_exp/static/images/task_images/gems/86.jpg,null,,,,,,64,,,11,,,,,86,0.748986461,0.744186047,,,,,,,
decision,286,925277,0.0-89.0-2.0,,244.02,run_exp/static/images/task_images/land.jpg,65,,,,,,64,,,11,,,,,,,,104632,2,1,FALSE,,,
dig,287,928051,0.0-90.0-0.0,,,,,,,,,,,"[{""stimulus"":""run_exp/static/images/task_images/dig.jpg"",""time"":0.5550000000512227},{""stimulus"":""run_exp/static/images/task_images/land.jpg"",""time"":920.7849999997998},{""stimulus"":""run_exp/static/images/task_images/dig.jpg"",""time"":1841.1049999999814}]",[],11,,,,,,,,,,,,,,
harvest,288,929056,0.0-90.0-1.0,,null,run_exp/static/images/task_images/gems/64.jpg,null,,,,,,58,,,11,,,,,64,0.905097442,0.90625,,,,,,,
decision,289,929253,0.0-90.0-2.0,,194.485,run_exp/static/images/task_images/land.jpg,65,,,,,,58,,,11,,,,,,,,108608,2,2,FALSE,,,
dig,290,932071,0.0-91.0-0.0,,,,,,,,,,,"[{""stimulus"":""run_exp/static/images/task_images/dig.jpg"",""time"":0.19500000006519258},{""stimulus"":""run_exp/static/images/task_images/land.jpg"",""time"":942.1149999997579},{""stimulus"":""run_exp/static/images/task_images/dig.jpg"",""time"":1871.8100000000559}]",[],11,,,,,,,,,,,,,,
harvest,291,933081,0.0-91.0-1.0,,null,run_exp/static/images/task_images/gems/58.jpg,null,,,,,,48,,,11,,,,,58,0.832040471,0.827586207,,,,,,,
decision,292,933260,0.0-91.0-2.0,,177.48,run_exp/static/images/task_images/land.jpg,65,,,,,,48,,,11,,,,,,,,112615,2,3,FALSE,,,
dig,293,936090,0.0-92.0-0.0,,,,,,,,,,,"[{""stimulus"":""run_exp/static/images/task_images/dig.jpg"",""time"":0.280000000144355},{""stimulus"":""run_exp/static/images/task_images/land.jpg"",""time"":944.7300000000978},{""stimulus"":""run_exp/static/images/task_images/dig.jpg"",""time"":1884.6699999999255}]",[],11,,,,,,,,,,,,,,
harvest,294,937100,0.0-92.0-1.0,,null,run_exp/static/images/task_images/gems/48.jpg,null,,,,,,39,,,11,,,,,48,0.810388368,0.8125,,,,,,,
decision,295,938234,0.0-92.0-2.0,,1131.61,run_exp/static/images/task_images/land.jpg,65,,,,,,39,,,11,,,,,,,,117589,2,4,FALSE,,,
dig,296,940111,0.0-93.0-0.0,,,,,,,,,,,"[{""stimulus"":""run_exp/static/images/task_images/dig.jpg"",""time"":0.3799999998882413},{""stimulus"":""run_exp/static/images/task_images/land.jpg"",""time"":630.8800000001211},{""stimulus"":""run_exp/static/images/task_images/dig.jpg"",""time"":1250.910000000149}]",[],11,,,,,,,,,,,,,,
harvest,297,941121,0.0-93.0-1.0,,null,run_exp/static/images/task_images/gems/39.jpg,null,,,,,,26,,,11,,,,,39,0.66640404,0.666666667,,,,,,,
decision,298,942465,0.0-93.0-2.0,,1341.595,run_exp/static/images/task_images/land.jpg,65,,,,,,26,,,11,,,,,,,,121820,2,5,FALSE,,,
dig,299,944129,0.0-94.0-0.0,,,,,,,,,,,"[{""stimulus"":""run_exp/static/images/task_images/dig.jpg"",""time"":0.20499999984167516},{""stimulus"":""run_exp/static/images/task_images/land.jpg"",""time"":560.2800000001444},{""stimulus"":""run_exp/static/images/task_images/dig.jpg"",""time"":1110.5100000000093}]",[],11,,,,,,,,,,,,,,
harvest,300,945140,0.0-94.0-1.0,,null,run_exp/static/images/task_images/gems/26.jpg,null,,,,,,21,,,11,,,,,26,0.792279676,0.807692308,,,,,,,
decision,301,945174,0.0-94.0-2.0,,32.4,run_exp/static/images/task_images/land.jpg,65,,,,,,21,,,11,,,,,,,,124530,2,6,FALSE,,,
dig,302,948150,0.0-95.0-0.0,,,,,,,,,,,"[{""stimulus"":""run_exp/static/images/task_images/dig.jpg"",""time"":0.20499999984167516},{""stimulus"":""run_exp/static/images/task_images/land.jpg"",""time"":1000.1549999997951},{""stimulus"":""run_exp/static/images/task_images/dig.jpg"",""time"":1980.344999999972}]",[],11,,,,,,,,,,,,,,
harvest,303,949160,0.0-95.0-1.0,,null,run_exp/static/images/task_images/gems/21.jpg,null,,,,,,18,,,11,,,,,21,0.867414469,0.857142857,,,,,,,
decision,304,949268,0.0-95.0-2.0,,106.475,run_exp/static/images/task_images/land.jpg,65,,,,,,18,,,11,,,,,,,,128623,2,7,FALSE,,,
dig,305,952169,0.0-96.0-0.0,,,,,,,,,,,"[{""stimulus"":""run_exp/static/images/task_images/dig.jpg"",""time"":0.219999999855645},{""stimulus"":""run_exp/static/images/task_images/land.jpg"",""time"":966.3999999997905},{""stimulus"":""run_exp/static/images/task_images/dig.jpg"",""time"":1936.3899999997811}]",[],11,,,,,,,,,,,,,,
harvest,306,953180,0.0-96.0-1.0,,null,run_exp/static/images/task_images/gems/18.jpg,null,,,,,,14,,,11,,,,,18,0.804230569,0.777777778,,,,,,,
decision,307,953489,0.0-96.0-2.0,,307.64,run_exp/static/images/task_images/land.jpg,65,,,,,,14,,,11,,,,,,,,132845,2,8,FALSE,,,
dig,308,956190,0.0-97.0-0.0,,,,,,,,,,,"[{""stimulus"":""run_exp/static/images/task_images/dig.jpg"",""time"":0.21500000008381903},{""stimulus"":""run_exp/static/images/task_images/land.jpg"",""time"":904.0250000002561},{""stimulus"":""run_exp/static/images/task_images/dig.jpg"",""time"":1803.99000000034}]",[],11,,,,,,,,,,,,,,
harvest,309,957201,0.0-97.0-1.0,,null,run_exp/static/images/task_images/gems/14.jpg,null,,,,,,12,,,11,,,,,14,0.879944564,0.857142857,,,,,,,
decision,310,958866,0.0-97.0-2.0,,1663.91,run_exp/static/images/task_images/land.jpg,65,,,,,,12,,,11,,,,,,,,138222,2,9,FALSE,,,
dig,311,960209,0.0-98.0-0.0,,,,,,,,,,,"[{""stimulus"":""run_exp/static/images/task_images/dig.jpg"",""time"":0.20499999984167516},{""stimulus"":""run_exp/static/images/task_images/land.jpg"",""time"":449.5500000002794},{""stimulus"":""run_exp/static/images/task_images/dig.jpg"",""time"":898.4200000000419}]",[],11,,,,,,,,,,,,,,
harvest,312,961221,0.0-98.0-1.0,,null,run_exp/static/images/task_images/gems/12.jpg,null,,,,,,9,,,11,,,,,12,0.775029176,0.75,,,,,,,
decision,313,962243,0.0-98.0-2.0,,1020.585,run_exp/static/images/task_images/land.jpg,65,,,,,,9,,,11,,,,,,,,141599,2,10,FALSE,,,
dig,314,964229,0.0-99.0-0.0,,,,,,,,,,,"[{""stimulus"":""run_exp/static/images/task_images/dig.jpg"",""time"":0.19999999995343387},{""stimulus"":""run_exp/static/images/task_images/land.jpg"",""time"":660.8300000003073},{""stimulus"":""run_exp/static/images/task_images/dig.jpg"",""time"":1331.1100000001024}]",[],11,,,,,,,,,,,,,,
harvest,315,965235,0.0-99.0-1.0,,null,run_exp/static/images/task_images/gems/9.jpg,null,,,,,,7,,,11,,,,,9,0.747323829,0.777777778,,,,,,,
decision,316,966115,0.0-99.0-2.0,,877.65,run_exp/static/images/task_images/land.jpg,65,,,,,,7,,,11,,,,,,,,145470,2,11,FALSE,,,
dig,317,968251,0.0-100.0-0.0,,,,,,,,,,,"[{""stimulus"":""run_exp/static/images/task_images/dig.jpg"",""time"":0.27000000001862645},{""stimulus"":""run_exp/static/images/task_images/land.jpg"",""time"":716.3649999997579},{""stimulus"":""run_exp/static/images/task_images/dig.jpg"",""time"":1425.9000000001397}]",[],11,,,,,,,,,,,,,,
harvest,318,969260,0.0-100.0-1.0,,null,run_exp/static/images/task_images/gems/7.jpg,null,,,,,,5,,,11,,,,,7,0.76975245,0.714285714,,,,,,,
decision,319,969343,0.0-100.0-2.0,,80.885,run_exp/static/images/task_images/land.jpg,65,,,,,,5,,,11,,,,,,,,148699,2,12,FALSE,,,
dig,320,972280,0.0-101.0-0.0,,,,,,,,,,,"[{""stimulus"":""run_exp/static/images/task_images/dig.jpg"",""time"":0.21000000007916242},{""stimulus"":""run_exp/static/images/task_images/land.jpg"",""time"":988.2750000001397},{""stimulus"":""run_exp/static/images/task_images/dig.jpg"",""time"":1952.3300000000745}]",[],11,,,,,,,,,,,,,,
harvest,321,973300,0.0-101.0-1.0,,null,run_exp/static/images/task_images/gems/5.jpg,null,,,,,,4,,,11,,,,,5,0.836453961,0.8,,,,,,,
decision,322,973464,0.0-101.0-2.0,,161.295,run_exp/static/images/task_images/land.jpg,76,,,,,,4,,,11,,,,,,,,152819,2,13,TRUE,,,
travel,323,983308,0.0-102.0-0.0,,,,,,,,,,,"[{""stimulus"":""run_exp/static/images/task_images/rocket-01.jpg"",""time"":0.20999999972991645},{""stimulus"":""run_exp/static/images/task_images/rocket-02.jpg"",""time"":1100.4299999999348},{""stimulus"":""run_exp/static/images/task_images/rocket-03.jpg"",""time"":2190.039999999921},{""stimulus"":""run_exp/static/images/task_images/rocket-04.jpg"",""time"":3281.0149999995483},{""stimulus"":""run_exp/static/images/task_images/rocket-05.jpg"",""time"":4390.379999999888},{""stimulus"":""run_exp/static/images/task_images/rocket-06.jpg"",""time"":5469.47499999986},{""stimulus"":""run_exp/static/images/task_images/rocket-07.jpg"",""time"":6562.285000000033},{""stimulus"":""run_exp/static/images/task_images/rocket-08.jpg"",""time"":7660.154999999562},{""stimulus"":""run_exp/static/images/task_images/rocket-09.jpg"",""time"":8750.199999999953}]",[],11,,,,,,,,,,,,,,
alien_welcome,324,988318,0.0-102.0-1.0,,null,run_exp/static/images/task_images/aliens/old_aliens/planet/alien_planet-71.jpg,null,,,,,,,,,,,,71,"33,13,57,17,32,2,12,47,3,15,27,71,80,55,41,74,40,76,11,72,79,36,20,21,5,7",,,,,,,,,,
land,325,988823,0.0-102.0-2.0,,null,run_exp/static/images/task_images/land.jpg,null,,,,,,105,,,12,,,,,,,,,,,,,,
dig,326,990828,0.0-102.0-3.0,,,,,,,,,,,"[{""stimulus"":""run_exp/static/images/task_images/dig.jpg"",""time"":0.29499999980907887},{""stimulus"":""run_exp/static/images/task_images/land.jpg"",""time"":673.0950000000885},{""stimulus"":""run_exp/static/images/task_images/dig.jpg"",""time"":1342.2750000000233}]",[],12,,,,,,,,,,,,,,
harvest,327,991848,0.0-102.0-4.0,,null,run_exp/static/images/task_images/gems/105.jpg,null,,,,,,81,,,12,,,,,105,0.773760119,0.771428571,,,,,,,
decision,328,992159,0.0-102.0-5.0,,308.84,run_exp/static/images/task_images/land.jpg,65,,,,,,81,,,12,,,,,,,,171514,2,0,FALSE,,,
dig,329,994857,0.0-103.0-0.0,,,,,,,,,,,"[{""stimulus"":""run_exp/static/images/task_images/dig.jpg"",""time"":0.19500000006519258},{""stimulus"":""run_exp/static/images/task_images/land.jpg"",""time"":903.8500000002095},{""stimulus"":""run_exp/static/images/task_images/dig.jpg"",""time"":1803.6350000002421}]",[],12,,,,,,,,,,,,,,
harvest,330,995869,0.0-103.0-1.0,,null,run_exp/static/images/task_images/gems/81.jpg,null,,,,,,66,,,12,,,,,81,0.817273274,0.814814815,,,,,,,
decision,331,996231,0.0-103.0-2.0,,360.035,run_exp/static/images/task_images/land.jpg,65,,,,,,66,,,12,,,,,,,,175586,2,1,FALSE,,,
dig,332,998878,0.0-104.0-0.0,,,,,,,,,,,"[{""stimulus"":""run_exp/static/images/task_images/dig.jpg"",""time"":0.30500000005122274},{""stimulus"":""run_exp/static/images/task_images/land.jpg"",""time"":887.270000000135},{""stimulus"":""run_exp/static/images/task_images/dig.jpg"",""time"":1761.49000000034}]",[],12,,,,,,,,,,,,,,
harvest,333,999888,0.0-104.0-1.0,,null,run_exp/static/images/task_images/gems/66.jpg,null,,,,,,48,,,12,,,,,66,0.721568561,0.727272727,,,,,,,
decision,334,1000557,0.0-104.0-2.0,,666.635,run_exp/static/images/task_images/land.jpg,65,,,,,,48,,,12,,,,,,,,179912,2,2,FALSE,,,
dig,335,1002898,0.0-105.0-0.0,,,,,,,,,,,"[{""stimulus"":""run_exp/static/images/task_images/dig.jpg"",""time"":0.20999999961350113},{""stimulus"":""run_exp/static/images/task_images/land.jpg"",""time"":787.1199999998789},{""stimulus"":""run_exp/static/images/task_images/dig.jpg"",""time"":1566.4249999999302}]",[],12,,,,,,,,,,,,,,
harvest,336,1003908,0.0-105.0-1.0,,null,run_exp/static/images/task_images/gems/48.jpg,null,,,,,,37,,,12,,,,,48,0.761235638,0.770833333,,,,,,,
decision,337,1004207,0.0-105.0-2.0,,297.08,run_exp/static/images/task_images/land.jpg,65,,,,,,37,,,12,,,,,,,,183562,2,3,FALSE,,,
dig,338,1006917,0.0-106.0-0.0,,,,,,,,,,,"[{""stimulus"":""run_exp/static/images/task_images/dig.jpg"",""time"":0.2149999999674037},{""stimulus"":""run_exp/static/images/task_images/land.jpg"",""time"":905.890000000014},{""stimulus"":""run_exp/static/images/task_images/dig.jpg"",""time"":1815.7350000001024}]",[],12,,,,,,,,,,,,,,
harvest,339,1007928,0.0-106.0-1.0,,null,run_exp/static/images/task_images/gems/37.jpg,null,,,,,,31,,,12,,,,,37,0.827552203,0.837837838,,,,,,,
decision,340,1008014,0.0-106.0-2.0,,84.805,run_exp/static/images/task_images/land.jpg,65,,,,,,31,,,12,,,,,,,,187370,2,4,FALSE,,,
dig,341,1010948,0.0-107.0-0.0,,,,,,,,,,,"[{""stimulus"":""run_exp/static/images/task_images/dig.jpg"",""time"":0.2149999999674037},{""stimulus"":""run_exp/static/images/task_images/land.jpg"",""time"":978.2249999997439},{""stimulus"":""run_exp/static/images/task_images/dig.jpg"",""time"":1957.1799999998184}]",[],12,,,,,,,,,,,,,,
harvest,342,1011958,0.0-107.0-1.0,,null,run_exp/static/images/task_images/gems/31.jpg,null,,,,,,25,,,12,,,,,31,0.809676426,0.806451613,,,,,,,
decision,343,1012210,0.0-107.0-2.0,,249.78,run_exp/static/images/task_images/land.jpg,65,,,,,,25,,,12,,,,,,,,191566,2,5,FALSE,,,
dig,344,1014968,0.0-108.0-0.0,,,,,,,,,,,"[{""stimulus"":""run_exp/static/images/task_images/dig.jpg"",""time"":0.21500000008381903},{""stimulus"":""run_exp/static/images/task_images/land.jpg"",""time"":932.8500000000931},{""stimulus"":""run_exp/static/images/task_images/dig.jpg"",""time"":1842.094999999972}]",[],12,,,,,,,,,,,,,,
harvest,345,1015979,0.0-108.0-1.0,,null,run_exp/static/images/task_images/gems/25.jpg,null,,,,,,21,,,12,,,,,25,0.824230287,0.84,,,,,,,
decision,346,1016387,0.0-108.0-2.0,,406.585,run_exp/static/images/task_images/land.jpg,65,,,,,,21,,,12,,,,,,,,195742,2,6,FALSE,,,
dig,347,1018997,0.0-109.0-0.0,,,,,,,,,,,"[{""stimulus"":""run_exp/static/images/task_images/dig.jpg"",""time"":0.20999999972991645},{""stimulus"":""run_exp/static/images/task_images/land.jpg"",""time"":875.1549999997951},{""stimulus"":""run_exp/static/images/task_images/dig.jpg"",""time"":1735.1100000001024}]",[],12,,,,,,,,,,,,,,
harvest,348,1020008,0.0-109.0-1.0,,null,run_exp/static/images/task_images/gems/21.jpg,null,,,,,,16,,,12,,,,,21,0.757892733,0.761904762,,,,,,,
decision,349,1020846,0.0-109.0-2.0,,835.64,run_exp/static/images/task_images/land.jpg,65,,,,,,16,,,12,,,,,,,,200201,2,7,FALSE,,,
dig,350,1023028,0.0-110.0-0.0,,,,,,,,,,,"[{""stimulus"":""run_exp/static/images/task_images/dig.jpg"",""time"":0.2149999998509884},{""stimulus"":""run_exp/static/images/task_images/land.jpg"",""time"":726.0749999999534},{""stimulus"":""run_exp/static/images/task_images/dig.jpg"",""time"":1445.989999999525}]",[],12,,,,,,,,,,,,,,
harvest,351,1024038,0.0-110.0-1.0,,null,run_exp/static/images/task_images/gems/16.jpg,null,,,,,,12,,,12,,,,,16,0.778348214,0.75,,,,,,,
decision,352,1024307,0.0-110.0-2.0,,266.815,run_exp/static/images/task_images/land.jpg,65,,,,,,12,,,12,,,,,,,,203662,2,8,FALSE,,,
dig,353,1027048,0.0-111.0-0.0,,,,,,,,,,,"[{""stimulus"":""run_exp/static/images/task_images/dig.jpg"",""time"":0.20499999984167516},{""stimulus"":""run_exp/static/images/task_images/land.jpg"",""time"":914.875},{""stimulus"":""run_exp/static/images/task_images/dig.jpg"",""time"":1824.9599999999627}]",[],12,,,,,,,,,,,,,,
harvest,354,1028058,0.0-111.0-1.0,,null,run_exp/static/images/task_images/gems/12.jpg,null,,,,,,10,,,12,,,,,12,0.84843451,0.833333333,,,,,,,
decision,355,1028095,0.0-111.0-2.0,,34.6,run_exp/static/images/task_images/land.jpg,65,,,,,,10,,,12,,,,,,,,207450,2,9,FALSE,,,
dig,356,1031068,0.0-112.0-0.0,,,,,,,,,,,"[{""stimulus"":""run_exp/static/images/task_images/dig.jpg"",""time"":0.22500000009313226},{""stimulus"":""run_exp/static/images/task_images/land.jpg"",""time"":998.7799999997951},{""stimulus"":""run_exp/static/images/task_images/dig.jpg"",""time"":1978.945000000298}]",[],12,,,,,,,,,,,,,,
harvest,357,1032077,0.0-112.0-1.0,,null,run_exp/static/images/task_images/gems/10.jpg,null,,,,,,8,,,12,,,,,10,0.83496331,0.8,,,,,,,
decision,358,1032176,0.0-112.0-2.0,,96.26,run_exp/static/images/task_images/land.jpg,65,,,,,,8,,,12,,,,,,,,211531,2,10,FALSE,,,
dig,359,1035086,0.0-113.0-0.0,,,,,,,,,,,"[{""stimulus"":""run_exp/static/images/task_images/dig.jpg"",""time"":0.20999999972991645},{""stimulus"":""run_exp/static/images/task_images/land.jpg"",""time"":975.8349999997299},{""stimulus"":""run_exp/static/images/task_images/dig.jpg"",""time"":1935.7500000002328}]",[],12,,,,,,,,,,,,,,
harvest,360,1036093,0.0-113.0-1.0,,null,run_exp/static/images/task_images/gems/8.jpg,null,,,,,,7,,,12,,,,,8,0.920866175,0.875,,,,,,,
decision,361,1037981,0.0-113.0-2.0,,1887.38,run_exp/static/images/task_images/land.jpg,65,,,,,,7,,,12,,,,,,,,217336,2,11,FALSE,,,
dig,362,1039098,0.0-114.0-0.0,,,,,,,,,,,"[{""stimulus"":""run_exp/static/images/task_images/dig.jpg"",""time"":0.2300000002142042},{""stimulus"":""run_exp/static/images/task_images/land.jpg"",""time"":380.2050000000745},{""stimulus"":""run_exp/static/images/task_images/dig.jpg"",""time"":750.2949999999255}]",[],12,,,,,,,,,,,,,,
harvest,363,1040106,0.0-114.0-1.0,,null,run_exp/static/images/task_images/gems/7.jpg,null,,,,,,6,,,12,,,,,7,0.895693897,0.857142857,,,,,,,
decision,364,1040576,0.0-114.0-2.0,,467.16,run_exp/static/images/task_images/land.jpg,65,,,,,,6,,,12,,,,,,,,219931,2,12,FALSE,,,
dig,365,1043116,0.0-115.0-0.0,,,,,,,,,,,"[{""stimulus"":""run_exp/static/images/task_images/dig.jpg"",""time"":0.2250000003259629},{""stimulus"":""run_exp/static/images/task_images/land.jpg"",""time"":854.4849999998696},{""stimulus"":""run_exp/static/images/task_images/dig.jpg"",""time"":1694.8649999999907}]",[],12,,,,,,,,,,,,,,
harvest,366,1044126,0.0-115.0-1.0,,null,run_exp/static/images/task_images/gems/6.jpg,null,,,,,,5,,,12,,,,,6,0.757588019,0.833333333,,,,,,,
decision,367,1046471,0.0-115.0-2.0,,2342.88,run_exp/static/images/task_images/land.jpg,65,,,,,,5,,,12,,,,,,,,225826,2,13,FALSE,,,
dig,368,1047136,0.0-116.0-0.0,,,,,,,,,,,"[{""stimulus"":""run_exp/static/images/task_images/dig.jpg"",""time"":0.20999999972991645},{""stimulus"":""run_exp/static/images/task_images/land.jpg"",""time"":230.5449999999255},{""stimulus"":""run_exp/static/images/task_images/dig.jpg"",""time"":440.41500000003725}]",[],12,,,,,,,,,,,,,,
harvest,369,1048146,0.0-116.0-1.0,,null,run_exp/static/images/task_images/gems/5.jpg,null,,,,,,4,,,12,,,,,5,0.887168136,0.8,,,,,,,
decision,370,1048432,0.0-116.0-2.0,,284.22,run_exp/static/images/task_images/land.jpg,65,,,,,,4,,,12,,,,,,,,227787,2,14,FALSE,,,
dig,371,1051156,0.0-117.0-0.0,,,,,,,,,,,"[{""stimulus"":""run_exp/static/images/task_images/dig.jpg"",""time"":0.23999999999068677},{""stimulus"":""run_exp/static/images/task_images/land.jpg"",""time"":908.3049999999348},{""stimulus"":""run_exp/static/images/task_images/dig.jpg"",""time"":1818.6149999997579}]",[],12,,,,,,,,,,,,,,
harvest,372,1052166,0.0-117.0-1.0,,null,run_exp/static/images/task_images/gems/4.jpg,null,,,,,,3,,,12,,,,,4,0.809342212,0.75,,,,,,,
decision,373,1054643,0.0-117.0-2.0,,2475.165,run_exp/static/images/task_images/land.jpg,76,,,,,,3,,,12,,,,,,,,233999,2,15,TRUE,,,
travel,374,1062176,0.0-118.0-0.0,,,,,,,,,,,"[{""stimulus"":""run_exp/static/images/task_images/rocket-01.jpg"",""time"":0.20499999984167516},{""stimulus"":""run_exp/static/images/task_images/rocket-02.jpg"",""time"":846.2049999998417},{""stimulus"":""run_exp/static/images/task_images/rocket-03.jpg"",""time"":1676.3600000001024},{""stimulus"":""run_exp/static/images/task_images/rocket-04.jpg"",""time"":2516.554999999702},{""stimulus"":""run_exp/static/images/task_images/rocket-05.jpg"",""time"":3346.6149999999907},{""stimulus"":""run_exp/static/images/task_images/rocket-06.jpg"",""time"":4186.709999999963},{""stimulus"":""run_exp/static/images/task_images/rocket-07.jpg"",""time"":5027.149999999907},{""stimulus"":""run_exp/static/images/task_images/rocket-08.jpg"",""time"":5866.514999999898},{""stimulus"":""run_exp/static/images/task_images/rocket-09.jpg"",""time"":6696.7299999997485}]",[],12,,,,,,,,,,,,,,
alien_welcome,375,1067196,0.0-118.0-1.0,,null,run_exp/static/images/task_images/aliens/old_aliens/planet/alien_planet-80.jpg,null,,,,,,,,,,,,80,"33,13,57,17,32,2,12,47,3,15,27,71,80,55,41,74,40,76,11,72,79,36,20,21,5,7",,,,,,,,,,
land,376,1067706,0.0-118.0-2.0,,null,run_exp/static/images/task_images/land.jpg,null,,,,,,98,,,13,,,,,,,,,,,,,,
dig,377,1069716,0.0-118.0-3.0,,,,,,,,,,,"[{""stimulus"":""run_exp/static/images/task_images/dig.jpg"",""time"":0.2800000000279397},{""stimulus"":""run_exp/static/images/task_images/land.jpg"",""time"":669.5699999998324},{""stimulus"":""run_exp/static/images/task_images/dig.jpg"",""time"":1348.3599999998696}]",[],13,,,,,,,,,,,,,,
harvest,378,1070727,0.0-118.0-4.0,,null,run_exp/static/images/task_images/gems/98.jpg,null,,,,,,83,,,13,,,,,98,0.845437404,0.846938776,,,,,,,
decision,379,1071142,0.0-118.0-5.0,,413.115,run_exp/static/images/task_images/land.jpg,65,,,,,,83,,,13,,,,,,,,250497,2,0,FALSE,,,
dig,380,1073746,0.0-119.0-0.0,,,,,,,,,,,"[{""stimulus"":""run_exp/static/images/task_images/dig.jpg"",""time"":0.19999999995343387},{""stimulus"":""run_exp/static/images/task_images/land.jpg"",""time"":879.1450000002515},{""stimulus"":""run_exp/static/images/task_images/dig.jpg"",""time"":1728.820000000298}]",[],13,,,,,,,,,,,,,,
harvest,381,1074756,0.0-119.0-1.0,,null,run_exp/static/images/task_images/gems/83.jpg,null,,,,,,59,,,13,,,,,83,0.715014347,0.710843373,,,,,,,
decision,382,1077747,0.0-119.0-2.0,,2988.755,run_exp/static/images/task_images/land.jpg,65,,,,,,59,,,13,,,,,,,,257102,2,1,FALSE,,,
dig,383,1077764,0.0-120.0-0.0,,,,,,,,,,,"[{""stimulus"":""run_exp/static/images/task_images/dig.jpg"",""time"":0.18999999971129},{""stimulus"":""run_exp/static/images/task_images/land.jpg"",""time"":6.0149999998975545},{""stimulus"":""run_exp/static/images/task_images/dig.jpg"",""time"":7.09499999997206}]",[],13,,,,,,,,,,,,,,
harvest,384,1078776,0.0-120.0-1.0,,null,run_exp/static/images/task_images/gems/59.jpg,null,,,,,,46,,,13,,,,,59,0.785336338,0.779661017,,,,,,,
decision,385,1079388,0.0-120.0-2.0,,609.275,run_exp/static/images/task_images/land.jpg,65,,,,,,46,,,13,,,,,,,,258743,2,2,FALSE,,,
dig,386,1081786,0.0-121.0-0.0,,,,,,,,,,,"[{""stimulus"":""run_exp/static/images/task_images/dig.jpg"",""time"":0.2149999998509884},{""stimulus"":""run_exp/static/images/task_images/land.jpg"",""time"":797.7799999997951},{""stimulus"":""run_exp/static/images/task_images/dig.jpg"",""time"":1593.5349999999162}]",[],13,,,,,,,,,,,,,,
harvest,387,1082796,0.0-121.0-1.0,,null,run_exp/static/images/task_images/gems/46.jpg,null,,,,,,36,,,13,,,,,46,0.778107845,0.782608696,,,,,,,
decision,388,1082965,0.0-121.0-2.0,,166.7,run_exp/static/images/task_images/land.jpg,65,,,,,,36,,,13,,,,,,,,262320,2,3,FALSE,,,
dig,389,1085806,0.0-122.0-0.0,,,,,,,,,,,"[{""stimulus"":""run_exp/static/images/task_images/dig.jpg"",""time"":0.22499999962747097},{""stimulus"":""run_exp/static/images/task_images/land.jpg"",""time"":955.399999999674},{""stimulus"":""run_exp/static/images/task_images/dig.jpg"",""time"":1895.274999999674}]",[],13,,,,,,,,,,,,,,
harvest,390,1086817,0.0-122.0-1.0,,null,run_exp/static/images/task_images/gems/36.jpg,null,,,,,,28,,,13,,,,,36,0.769092248,0.777777778,,,,,,,
decision,391,1088747,0.0-122.0-2.0,,1928.275,run_exp/static/images/task_images/land.jpg,65,,,,,,28,,,13,,,,,,,,268102,2,4,FALSE,,,
dig,392,1089827,0.0-123.0-0.0,,,,,,,,,,,"[{""stimulus"":""run_exp/static/images/task_images/dig.jpg"",""time"":0.2149999998509884},{""stimulus"":""run_exp/static/images/task_images/land.jpg"",""time"":362.9400000004098},{""stimulus"":""run_exp/static/images/task_images/dig.jpg"",""time"":722.8850000000093}]",[],13,,,,,,,,,,,,,,
harvest,393,1090836,0.0-123.0-1.0,,null,run_exp/static/images/task_images/gems/28.jpg,null,,,,,,22,,,13,,,,,28,0.798313946,0.785714286,,,,,,,
decision,394,1090857,0.0-123.0-2.0,,18.845,run_exp/static/images/task_images/land.jpg,65,,,,,,22,,,13,,,,,,,,270212,2,5,FALSE,,,
dig,395,1093856,0.0-124.0-0.0,,,,,,,,,,,"[{""stimulus"":""run_exp/static/images/task_images/dig.jpg"",""time"":0.19999999995343387},{""stimulus"":""run_exp/static/images/task_images/land.jpg"",""time"":994.4299999999348},{""stimulus"":""run_exp/static/images/task_images/dig.jpg"",""time"":1995.0749999999534}]",[],13,,,,,,,,,,,,,,
harvest,396,1094867,0.0-124.0-1.0,,null,run_exp/static/images/task_images/gems/22.jpg,null,,,,,,18,,,13,,,,,22,0.803545211,0.818181818,,,,,,,
decision,397,1096335,0.0-124.0-2.0,,1465.785,run_exp/static/images/task_images/land.jpg,65,,,,,,18,,,13,,,,,,,,275690,2,6,FALSE,,,
dig,398,1097877,0.0-125.0-0.0,,,,,,,,,,,"[{""stimulus"":""run_exp/static/images/task_images/dig.jpg"",""time"":0.22499999962747097},{""stimulus"":""run_exp/static/images/task_images/land.jpg"",""time"":514.5100000000093},{""stimulus"":""run_exp/static/images/task_images/dig.jpg"",""time"":1024.1000000000931}]",[],13,,,,,,,,,,,,,,
harvest,399,1098890,0.0-125.0-1.0,,null,run_exp/static/images/task_images/gems/18.jpg,null,,,,,,16,,,13,,,,,18,0.872519482,0.888888889,,,,,,,
decision,400,1099538,0.0-125.0-2.0,,645.855,run_exp/static/images/task_images/land.jpg,65,,,,,,16,,,13,,,,,,,,278893,2,7,FALSE,,,
dig,401,1101900,0.0-126.0-0.0,,,,,,,,,,,"[{""stimulus"":""run_exp/static/images/task_images/dig.jpg"",""time"":0.21999999997206032},{""stimulus"":""run_exp/static/images/task_images/land.jpg"",""time"":785.7049999998417},{""stimulus"":""run_exp/static/images/task_images/dig.jpg"",""time"":1576.0200000000186}]",[],13,,,,,,,,,,,,,,
harvest,402,1102910,0.0-126.0-1.0,,null,run_exp/static/images/task_images/gems/16.jpg,null,,,,,,13,,,13,,,,,16,0.78288645,0.8125,,,,,,,
decision,403,1103218,0.0-126.0-2.0,,305.905,run_exp/static/images/task_images/land.jpg,65,,,,,,13,,,13,,,,,,,,282574,2,8,FALSE,,,
dig,404,1105920,0.0-127.0-0.0,,,,,,,,,,,"[{""stimulus"":""run_exp/static/images/task_images/dig.jpg"",""time"":0.19999999995343387},{""stimulus"":""run_exp/static/images/task_images/land.jpg"",""time"":905.1049999999814},{""stimulus"":""run_exp/static/images/task_images/dig.jpg"",""time"":1804.9399999999441}]",[],13,,,,,,,,,,,,,,
harvest,405,1106931,0.0-127.0-1.0,,null,run_exp/static/images/task_images/gems/13.jpg,null,,,,,,10,,,13,,,,,13,0.784166319,0.769230769,,,,,,,
decision,406,1106955,0.0-127.0-2.0,,21.77,run_exp/static/images/task_images/land.jpg,65,,,,,,10,,,13,,,,,,,,286310,2,9,FALSE,,,
dig,407,1109940,0.0-128.0-0.0,,,,,,,,,,,"[{""stimulus"":""run_exp/static/images/task_images/dig.jpg"",""time"":0.27499999990686774},{""stimulus"":""run_exp/static/images/task_images/land.jpg"",""time"":999.304999999702},{""stimulus"":""run_exp/static/images/task_images/dig.jpg"",""time"":1988.8449999997392}]",[],13,,,,,,,,,,,,,,
harvest,408,1110951,0.0-128.0-1.0,,null,run_exp/static/images/task_images/gems/10.jpg,null,,,,,,8,,,13,,,,,10,0.796342472,0.8,,,,,,,
decision,409,1111729,0.0-128.0-2.0,,776,run_exp/static/images/task_images/land.jpg,65,,,,,,8,,,13,,,,,,,,291084,2,10,FALSE,,,
dig,410,1113960,0.0-129.0-0.0,,,,,,,,,,,"[{""stimulus"":""run_exp/static/images/task_images/dig.jpg"",""time"":0.2149999993853271},{""stimulus"":""run_exp/static/images/task_images/land.jpg"",""time"":754.559999999823},{""stimulus"":""run_exp/static/images/task_images/dig.jpg"",""time"":1484.6949999995995}]",[],13,,,,,,,,,,,,,,
harvest,411,1114970,0.0-129.0-1.0,,null,run_exp/static/images/task_images/gems/8.jpg,null,,,,,,7,,,13,,,,,8,0.872960012,0.875,,,,,,,
decision,412,1116324,0.0-129.0-2.0,,1351.58,run_exp/static/images/task_images/land.jpg,65,,,,,,7,,,13,,,,,,,,295679,2,11,FALSE,,,
dig,413,1117979,0.0-130.0-0.0,,,,,,,,,,,"[{""stimulus"":""run_exp/static/images/task_images/dig.jpg"",""time"":0.33500000019557774},{""stimulus"":""run_exp/static/images/task_images/land.jpg"",""time"":559.1750000005122},{""stimulus"":""run_exp/static/images/task_images/dig.jpg"",""time"":1109.0250000003725}]",[],13,,,,,,,,,,,,,,
harvest,414,1118990,0.0-130.0-1.0,,null,run_exp/static/images/task_images/gems/7.jpg,null,,,,,,6,,,13,,,,,7,0.817514419,0.857142857,,,,,,,
decision,415,1121678,0.0-130.0-2.0,,2685.55,run_exp/static/images/task_images/land.jpg,65,,,,,,6,,,13,,,,,,,,301033,2,12,TRUE,,,
end_of_block_continue,416,1130512,0.0-131.0-0.0,,null,run_exp/static/audio/clip_32_block_end.m4a,,,,,,null,,,,,,,,,,,,,,,,,,
alien_welcome,417,1135540,0.0-132.0-0.0,,null,run_exp/static/images/task_images/aliens/old_aliens/planet/alien_planet-55.jpg,null,,,,,,,,,,,,55,"33,13,57,17,32,2,12,47,3,15,27,71,80,55,41,74,40,76,11,72,79,36,20,21,5,7",,,,,,,,,,
land,418,1136050,0.0-132.0-1.0,,null,run_exp/static/images/task_images/land.jpg,null,,,,,,105,,,14,,,,,,,,,,,,,,
dig,419,1138059,0.0-132.0-2.0,,,,,,,,,,,"[{""stimulus"":""run_exp/static/images/task_images/dig.jpg"",""time"":0.2850000001490116},{""stimulus"":""run_exp/static/images/task_images/land.jpg"",""time"":679.1500000003725},{""stimulus"":""run_exp/static/images/task_images/dig.jpg"",""time"":1338.66500000027}]",[],14,,,,,,,,,,,,,,
harvest,420,1139069,0.0-132.0-3.0,,null,run_exp/static/images/task_images/gems/105.jpg,null,,,,,,50,,,14,,,,,105,0.476922392,0.476190476,,,,,,,
decision,421,1139095,0.0-132.0-4.0,,24.175,run_exp/static/images/task_images/land.jpg,65,,,,,,50,,,14,,,,,,,,8575,3,0,FALSE,,,
dig,422,1142080,0.0-133.0-0.0,,,,,,,,,,,"[{""stimulus"":""run_exp/static/images/task_images/dig.jpg"",""time"":0.2900000000372529},{""stimulus"":""run_exp/static/images/task_images/land.jpg"",""time"":1000.5449999999255},{""stimulus"":""run_exp/static/images/task_images/dig.jpg"",""time"":1990.6999999999534}]",[],14,,,,,,,,,,,,,,
harvest,423,1143090,0.0-133.0-1.0,,null,run_exp/static/images/task_images/gems/50.jpg,null,,,,,,22,,,14,,,,,50,0.443529859,0.44,,,,,,,
decision,424,1144246,0.0-133.0-2.0,,1153.33,run_exp/static/images/task_images/land.jpg,65,,,,,,22,,,14,,,,,,,,13726,3,1,FALSE,,,
dig,425,1146101,0.0-134.0-0.0,,,,,,,,,,,"[{""stimulus"":""run_exp/static/images/task_images/dig.jpg"",""time"":0.2549999998882413},{""stimulus"":""run_exp/static/images/task_images/land.jpg"",""time"":619.285000000149},{""stimulus"":""run_exp/static/images/task_images/dig.jpg"",""time"":1239.0300000002608}]",[],14,,,,,,,,,,,,,,
harvest,426,1147110,0.0-134.0-1.0,,null,run_exp/static/images/task_images/gems/22.jpg,null,,,,,,10,,,14,,,,,22,0.470968597,0.454545455,,,,,,,
decision,427,1147149,0.0-134.0-2.0,,36.415,run_exp/static/images/task_images/land.jpg,65,,,,,,10,,,14,,,,,,,,16629,3,2,FALSE,,,
dig,428,1150121,0.0-135.0-0.0,,,,,,,,,,,"[{""stimulus"":""run_exp/static/images/task_images/dig.jpg"",""time"":0.19999999995343387},{""stimulus"":""run_exp/static/images/task_images/land.jpg"",""time"":994.9199999999255},{""stimulus"":""run_exp/static/images/task_images/dig.jpg"",""time"":1984.7049999998417}]",[],14,,,,,,,,,,,,,,
harvest,429,1151131,0.0-135.0-1.0,,null,run_exp/static/images/task_images/gems/10.jpg,null,,,,,,6,,,14,,,,,10,0.618913796,0.6,,,,,,,
