trial_type,trial_index,time_elapsed,internal_node_id,interactions,blur_events,focus_events,fullscreenenter_events,fullscreenexit_events,success,rt,stimulus,key_press,prompt,subject_id,participant_id,age,gender,button_pressed,next_reward,animation_sequence,responses,planet,curr_prac_trial,n_prac_rounds,alien,aliens,reward_received,decay_rate_actual,decay_rate_exp,time_in_block,block_num,prt,last_trial_on_planet,button_html,bonus,num_failures
pavlovia,0,2,0.0-0.0,"""event"",""trial"",""time""
""fullscreenenter"",""1"",""14469""
","
","
","""event"",""trial"",""time""
""fullscreenenter"",""1"",""14469""
","
",,,,,,,,,,,,,,,,,,,,,,,,,,,,
fullscreen,1,15460,0.0-1.0,"""event"",""trial"",""time""
""fullscreenenter"",""1"",""14469""
","
","
","""event"",""trial"",""time""
""fullscreenenter"",""1"",""14469""
","
",TRUE,,,,,,,,,,,,,,,,,,,,,,,,,,,
instruc_welcome,2,25201,0.0-2.0,"""event"",""trial"",""time""
""fullscreenenter"",""1"",""14469""
","
","
","""event"",""trial"",""time""
""fullscreenenter"",""1"",""14469""
","
",,null,run_exp/static/audio/clip_1_welcome.m4a,null,"<p>Howdy! In this experiment, you’ll be an explorer traveling through space to collect space treasure.</p><p>Your mission is to collect as much treasure as possible.</p><br><br><p><img src='run_exp/static/images/task_images/opening_img-01.jpg' height='300' width='auto'></p>",9337,813,13.95,Female,,,,,,,,,,,,,,,,,,,
audio-keyboard-response,3,41781,0.0-3.0,"""event"",""trial"",""time""
""fullscreenenter"",""1"",""14469""
","
","
","""event"",""trial"",""time""
""fullscreenenter"",""1"",""14469""
","
",,null,run_exp/static/audio/clip_2_move.m4a,null,,,,,,,,,,,,,,,,,,,,,,,,
welcome_dec,4,43876,0.0-4.0,"""event"",""trial"",""time""
""fullscreenenter"",""1"",""14469""
","
","
","""event"",""trial"",""time""
""fullscreenenter"",""1"",""14469""
","
",,2092,"<p>Howdy! In this experiment, you’ll be an explorer traveling through space to collect space treasure.</p><p>Your mission is to collect as much treasure as possible.</p><br><br><p><img src='run_exp/static/images/task_images/opening_img-01.jpg' height='300' width='auto'></p>",,,,,,,1,,,,,,,,,,,,,,,,,,
html-keyboard-response,5,44412,0.0-5.0,"""event"",""trial"",""time""
""fullscreenenter"",""1"",""14469""
","
","
","""event"",""trial"",""time""
""fullscreenenter"",""1"",""14469""
","
",,534.8,"<p>Howdy! In this experiment, you’ll be an explorer traveling through space to collect space treasure.</p><p>Your mission is to collect as much treasure as possible.</p><br><br><p><img src='run_exp/static/images/task_images/opening_img-01.jpg' height='300' width='auto'></p><button class=""jspsych-html-btn-unchosen""><img src=""run_exp/static/images/task_images/planet-01.jpg"" height=""50""></button><button class=""jspsych-html-btn-chosen""><img src=""run_exp/static/images/task_images/planet-02.jpg"" height=""50""></button><p><b>[press the space bar to lock in your answer]<b><br></p>",32,,,,,,,,,,,,,,,,,,,,,,,,
instruc_goal,6,54481,0.0-6.0-0.0,"""event"",""trial"",""time""
""fullscreenenter"",""1"",""14469""
","
","
","""event"",""trial"",""time""
""fullscreenenter"",""1"",""14469""
","
",,null,run_exp/static/audio/clip_3_goal.m4a,null,"<p> As a space explorer, you’ll visit different planets to dig for space treasure, these pink gems.</p> <p> The more treasure you dig up, the more bonus money you’ll win! </p><br><br><p><img src='run_exp/static/images/task_images/pink_gem.jpg' height='300' width='auto'></p>",,,,,,,,,,,,,,,,,,,,,,,
instruc_goal,7,55258,0.0-6.0-1.0,"""event"",""trial"",""time""
""fullscreenenter"",""1"",""14469""
","
","
","""event"",""trial"",""time""
""fullscreenenter"",""1"",""14469""
","
",,774.2,"<p> As a space explorer, you’ll visit different planets to dig for space treasure, these pink gems.</p> <p> The more treasure you dig up, the more bonus money you’ll win! </p><br><br><p><img src='run_exp/static/images/task_images/pink_gem.jpg' height='300' width='auto'></p>",,,,,,,1,,,,,,,,,,,,,,,,,,
html-keyboard-response,8,55642,0.0-6.0-2.0,"""event"",""trial"",""time""
""fullscreenenter"",""1"",""14469""
","
","
","""event"",""trial"",""time""
""fullscreenenter"",""1"",""14469""
","
",,382.4,"<p> As a space explorer, you’ll visit different planets to dig for space treasure, these pink gems.</p> <p> The more treasure you dig up, the more bonus money you’ll win! </p><br><br><p><img src='run_exp/static/images/task_images/pink_gem.jpg' height='300' width='auto'></p><button class=""jspsych-html-btn-unchosen""><img src=""run_exp/static/images/task_images/planet-01.jpg"" height=""50""></button><button class=""jspsych-html-btn-chosen""><img src=""run_exp/static/images/task_images/planet-02.jpg"" height=""50""></button><p><b>[press the space bar to lock in your answer]<b><br></p>",32,,,,,,,,,,,,,,,,,,,,,,,,
instruc_dig,9,71641,0.0-7.0-0.0,"""event"",""trial"",""time""
""fullscreenenter"",""1"",""14469""
","
","
","""event"",""trial"",""time""
""fullscreenenter"",""1"",""14469""
","
",,null,run_exp/static/audio/clip_4_dig.m4a,null,,,,,,,100,,,,,,,,,,,,,,,,,
instruc_dig_try,10,72995,0.0-7.0-1.0,"""event"",""trial"",""time""
""fullscreenenter"",""1"",""14469""
","
","
","""event"",""trial"",""time""
""fullscreenenter"",""1"",""14469""
","
",,1352.6,"<p> When you’ve arrived at a new planet, you will dig once. </p> <p>Then, you get to decide if you want to stay on the planet and dig again or travel to a new planet and dig there.</p> <p> To stay and dig, press the letter <strong>‘A’</strong> on your keyboard. Try pressing it now! </p><p><img src='run_exp/static/images/task_images/land.jpg'  height='700' width='auto'></p>",65,"<p> When you’ve arrived at a new planet, you will dig once. </p> <p>Then, you get to decide if you want to stay on the planet and dig again or travel to a new planet and dig there.</p> <p> To stay and dig, press the letter <strong>‘A’</strong> on your keyboard. Try pressing it now! </p><p><img src='run_exp/static/images/task_images/land.jpg'  height='700' width='auto'></p>",,,,,,100,,,,,,,,,,,,,,,,,
dig_prac,11,75002,0.0-7.0-2.0,"""event"",""trial"",""time""
""fullscreenenter"",""1"",""14469""
""blur"",""12"",""87343""
""focus"",""12"",""88645""
","""event"",""trial"",""time""
""blur"",""12"",""87343""
","""event"",""trial"",""time""
""focus"",""12"",""88645""
","""event"",""trial"",""time""
""fullscreenenter"",""1"",""14469""
","
",,,,,,,,,,,,"[{""stimulus"":""run_exp/static/images/task_images/dig.jpg"",""time"":0.09999999403953552},{""stimulus"":""run_exp/static/images/task_images/land.jpg"",""time"":668.9000000059605},{""stimulus"":""run_exp/static/images/task_images/dig.jpg"",""time"":1335}]",[],,,,,,,,,,,,,,,
instruc_travel,12,111241,0.0-7.0-3.0,"""event"",""trial"",""time""
""fullscreenenter"",""1"",""14469""
""blur"",""12"",""87343""
""focus"",""12"",""88645""
","""event"",""trial"",""time""
""blur"",""12"",""87343""
","""event"",""trial"",""time""
""focus"",""12"",""88645""
","""event"",""trial"",""time""
""fullscreenenter"",""1"",""14469""
","
",,null,run_exp/static/audio/clip_5_travel.m4a,null,"<p>Every time you dig up gems, there are less gems on the planet, so the more you dig on a planet the fewer gems you’ll get with each dig.</p><p>When gems are running low, you may want to travel to a new planet. </p> <p>  Planets are very far apart in this galaxy, so it will take some time to travel between them. </p> <br><p>There are lots and lots of planets for you to visit, so you won’t be able to return to any planets you’ve seen before. </p><br><p>To leave this planet and travel to a new one, press the letter <strong>‘L’</strong> on your keyboard. Try pressing it now! </p><p><img src='run_exp/static/images/task_images/rocket-01.jpg'  height='600' width='auto'></p>",,,,,,,,,,,,,,,,,,,,,,,
instruc_travel_try,13,112659,0.0-7.0-4.0,"""event"",""trial"",""time""
""fullscreenenter"",""1"",""14469""
""blur"",""12"",""87343""
""focus"",""12"",""88645""
","""event"",""trial"",""time""
""blur"",""12"",""87343""
","""event"",""trial"",""time""
""focus"",""12"",""88645""
","""event"",""trial"",""time""
""fullscreenenter"",""1"",""14469""
","
",,1415.7,"<p>Every time you dig up gems, there are less gems on the planet, so the more you dig on a planet the fewer gems you’ll get with each dig.</p><p>When gems are running low, you may want to travel to a new planet. </p> <p>  Planets are very far apart in this galaxy, so it will take some time to travel between them. </p> <br><p>There are lots and lots of planets for you to visit, so you won’t be able to return to any planets you’ve seen before. </p><br><p>To leave this planet and travel to a new one, press the letter <strong>‘L’</strong> on your keyboard. Try pressing it now! </p><p><img src='run_exp/static/images/task_images/rocket-01.jpg'  height='600' width='auto'></p>",76,"<p>Every time you dig up gems, there are less gems on the planet, so the more you dig on a planet the fewer gems you’ll get with each dig.</p><p>When gems are running low, you may want to travel to a new planet. </p> <p>  Planets are very far apart in this galaxy, so it will take some time to travel between them. </p> <br><p>There are lots and lots of planets for you to visit, so you won’t be able to return to any planets you’ve seen before. </p><br><p>To leave this planet and travel to a new one, press the letter <strong>‘L’</strong> on your keyboard. Try pressing it now! </p><p><img src='run_exp/static/images/task_images/rocket-01.jpg'  height='600' width='auto'></p>",,,,,,,,,,,,,,,,,,,,,,,
travel_prac,14,122662,0.0-7.0-5.0,"""event"",""trial"",""time""
""fullscreenenter"",""1"",""14469""
""blur"",""12"",""87343""
""focus"",""12"",""88645""
","""event"",""trial"",""time""
""blur"",""12"",""87343""
","""event"",""trial"",""time""
""focus"",""12"",""88645""
","""event"",""trial"",""time""
""fullscreenenter"",""1"",""14469""
","
",,,,,,,,,,,,"[{""stimulus"":""run_exp/static/images/task_images/rocket-01.jpg"",""time"":0.4000000059604645},{""stimulus"":""run_exp/static/images/task_images/rocket-02.jpg"",""time"":1112.5},{""stimulus"":""run_exp/static/images/task_images/rocket-03.jpg"",""time"":2224.699999988079},{""stimulus"":""run_exp/static/images/task_images/rocket-04.jpg"",""time"":3334.5},{""stimulus"":""run_exp/static/images/task_images/rocket-05.jpg"",""time"":4445.5},{""stimulus"":""run_exp/static/images/task_images/rocket-06.jpg"",""time"":5556.5999999940395},{""stimulus"":""run_exp/static/images/task_images/rocket-07.jpg"",""time"":6667.5999999940395},{""stimulus"":""run_exp/static/images/task_images/rocket-08.jpg"",""time"":7778.5},{""stimulus"":""run_exp/static/images/task_images/rocket-09.jpg"",""time"":8889.699999988079}]",[],0,,,,,,,,,,,,,,
instruc_alien_greet,15,149841,0.0-7.0-6.0,"""event"",""trial"",""time""
""fullscreenenter"",""1"",""14469""
""blur"",""12"",""87343""
""focus"",""12"",""88645""
","""event"",""trial"",""time""
""blur"",""12"",""87343""
","""event"",""trial"",""time""
""focus"",""12"",""88645""
","""event"",""trial"",""time""
""fullscreenenter"",""1"",""14469""
","
",,null,run_exp/static/audio/clip_6_alien.m4a,null,"<p>When you arrive at a new planet, the alien who owns the treasure mine on that planet will greet you!</p><p>The better an alien takes care of their mine the easier it is to dig for gems. Some aliens take better care of their mine than others. So, you won’t get exactly the same amount of gems on each planet.</p><p>What the alien looks like does not tell you anything about how many gems there are on the planet.</p><br><p><img src=""run_exp/static/images/task_images/aliens/instructions_aliens/planet/alien_planet-1.jpg""  height=""600"" width=""auto""></p>",,,,,,,,,,,,,,,,,,,,,,,
instruc_alien_greet,16,152737,0.0-7.0-7.0,"""event"",""trial"",""time""
""fullscreenenter"",""1"",""14469""
""blur"",""12"",""87343""
""focus"",""12"",""88645""
","""event"",""trial"",""time""
""blur"",""12"",""87343""
","""event"",""trial"",""time""
""focus"",""12"",""88645""
","""event"",""trial"",""time""
""fullscreenenter"",""1"",""14469""
","
",,2894.1,"<p>When you arrive at a new planet, the alien who owns the treasure mine on that planet will greet you!</p><p>The better an alien takes care of their mine the easier it is to dig for gems. Some aliens take better care of their mine than others. So, you won’t get exactly the same amount of gems on each planet.</p><p>What the alien looks like does not tell you anything about how many gems there are on the planet.</p><br><p><img src=""run_exp/static/images/task_images/aliens/instructions_aliens/planet/alien_planet-1.jpg""  height=""600"" width=""auto""></p>",,,,,,,1,,,,,,,,,,,,,,,,,,
html-keyboard-response,17,153758,0.0-7.0-8.0,"""event"",""trial"",""time""
""fullscreenenter"",""1"",""14469""
""blur"",""12"",""87343""
""focus"",""12"",""88645""
","""event"",""trial"",""time""
""blur"",""12"",""87343""
","""event"",""trial"",""time""
""focus"",""12"",""88645""
","""event"",""trial"",""time""
""fullscreenenter"",""1"",""14469""
","
",,1019.1,"<p>When you arrive at a new planet, the alien who owns the treasure mine on that planet will greet you!</p><p>The better an alien takes care of their mine the easier it is to dig for gems. Some aliens take better care of their mine than others. So, you won’t get exactly the same amount of gems on each planet.</p><p>What the alien looks like does not tell you anything about how many gems there are on the planet.</p><br><p><img src=""run_exp/static/images/task_images/aliens/instructions_aliens/planet/alien_planet-1.jpg""  height=""600"" width=""auto""></p><button class=""jspsych-html-btn-unchosen""><img src=""run_exp/static/images/task_images/planet-01.jpg"" height=""50""></button><button class=""jspsych-html-btn-chosen""><img src=""run_exp/static/images/task_images/planet-02.jpg"" height=""50""></button><p><b>[press the space bar to lock in your answer]<b><br></p>",32,,,,,,,,,,,,,,,,,,,,,,,,
time_out,18,164841,0.0-8.0-0.0,"""event"",""trial"",""time""
""fullscreenenter"",""1"",""14469""
""blur"",""12"",""87343""
""focus"",""12"",""88645""
","""event"",""trial"",""time""
""blur"",""12"",""87343""
","""event"",""trial"",""time""
""focus"",""12"",""88645""
","""event"",""trial"",""time""
""fullscreenenter"",""1"",""14469""
","
",,null,run_exp/static/audio/clip_7_timeout.m4a,null,"<p>If you don't make your choice fast enough, you’ll have to wait a few seconds before you can make another one.</p><p>You can’t dig for more gems or travel to new planets. You just have to sit and wait.</p><br><p><img src='run_exp/static/images/task_images/time_out.jpg'  height='600' width='auto'></p>",,,,,,,,,,,,,,,,,,,,,,,
time_out,19,166085,0.0-8.0-1.0,"""event"",""trial"",""time""
""fullscreenenter"",""1"",""14469""
""blur"",""12"",""87343""
""focus"",""12"",""88645""
","""event"",""trial"",""time""
""blur"",""12"",""87343""
","""event"",""trial"",""time""
""focus"",""12"",""88645""
","""event"",""trial"",""time""
""fullscreenenter"",""1"",""14469""
","
",,1242.3,"<p>If you don't make your choice fast enough, you’ll have to wait a few seconds before you can make another one.</p><p>You can’t dig for more gems or travel to new planets. You just have to sit and wait.</p><br><p><img src='run_exp/static/images/task_images/time_out.jpg'  height='600' width='auto'></p>",,,,,,,1,,,,,,,,,,,,,,,,,,
html-keyboard-response,20,166320,0.0-8.0-2.0,"""event"",""trial"",""time""
""fullscreenenter"",""1"",""14469""
""blur"",""12"",""87343""
""focus"",""12"",""88645""
","""event"",""trial"",""time""
""blur"",""12"",""87343""
","""event"",""trial"",""time""
""focus"",""12"",""88645""
","""event"",""trial"",""time""
""fullscreenenter"",""1"",""14469""
","
",,232.9,"<p>If you don't make your choice fast enough, you’ll have to wait a few seconds before you can make another one.</p><p>You can’t dig for more gems or travel to new planets. You just have to sit and wait.</p><br><p><img src='run_exp/static/images/task_images/time_out.jpg'  height='600' width='auto'></p><button class=""jspsych-html-btn-unchosen""><img src=""run_exp/static/images/task_images/planet-01.jpg"" height=""50""></button><button class=""jspsych-html-btn-chosen""><img src=""run_exp/static/images/task_images/planet-02.jpg"" height=""50""></button><p><b>[press the space bar to lock in your answer]<b><br></p>",32,,,,,,,,,,,,,,,,,,,,,,,,
instruc_break,21,181980,0.0-9.0-0.0,"""event"",""trial"",""time""
""fullscreenenter"",""1"",""14469""
""blur"",""12"",""87343""
""focus"",""12"",""88645""
","""event"",""trial"",""time""
""blur"",""12"",""87343""
","""event"",""trial"",""time""
""focus"",""12"",""88645""
","""event"",""trial"",""time""
""fullscreenenter"",""1"",""14469""
","
",,null,run_exp/static/audio/clip_8_break.m4a,null,"<p> After digging and traveling for a while, you’ll be able to take a break at home base. </p><p>The game will last 20 minutes no matter what.</p><p>You will visit home base every 5 minutes, so, you will visit home base three times during the game.</p><br><p><img src='run_exp/static/images/task_images/home_base.jpg' height='600' width='auto'></p>",,,,,,,,,,,,,,,,,,,,,,,
instruc_break,22,183588,0.0-9.0-1.0,"""event"",""trial"",""time""
""fullscreenenter"",""1"",""14469""
""blur"",""12"",""87343""
""focus"",""12"",""88645""
","""event"",""trial"",""time""
""blur"",""12"",""87343""
","""event"",""trial"",""time""
""focus"",""12"",""88645""
","""event"",""trial"",""time""
""fullscreenenter"",""1"",""14469""
","
",,1605.1,"<p> After digging and traveling for a while, you’ll be able to take a break at home base. </p><p>The game will last 20 minutes no matter what.</p><p>You will visit home base every 5 minutes, so, you will visit home base three times during the game.</p><br><p><img src='run_exp/static/images/task_images/home_base.jpg' height='600' width='auto'></p>",,,,,,,1,,,,,,,,,,,,,,,,,,
html-keyboard-response,23,183835,0.0-9.0-2.0,"""event"",""trial"",""time""
""fullscreenenter"",""1"",""14469""
""blur"",""12"",""87343""
""focus"",""12"",""88645""
","""event"",""trial"",""time""
""blur"",""12"",""87343""
","""event"",""trial"",""time""
""focus"",""12"",""88645""
","""event"",""trial"",""time""
""fullscreenenter"",""1"",""14469""
","
",,244.6,"<p> After digging and traveling for a while, you’ll be able to take a break at home base. </p><p>The game will last 20 minutes no matter what.</p><p>You will visit home base every 5 minutes, so, you will visit home base three times during the game.</p><br><p><img src='run_exp/static/images/task_images/home_base.jpg' height='600' width='auto'></p><button class=""jspsych-html-btn-unchosen""><img src=""run_exp/static/images/task_images/planet-01.jpg"" height=""50""></button><button class=""jspsych-html-btn-chosen""><img src=""run_exp/static/images/task_images/planet-02.jpg"" height=""50""></button><p><b>[press the space bar to lock in your answer]<b><br></p>",32,,,,,,,,,,,,,,,,,,,,,,,,
instruc_prac_game,24,193960,0.0-10.0-0.0,"""event"",""trial"",""time""
""fullscreenenter"",""1"",""14469""
""blur"",""12"",""87343""
""focus"",""12"",""88645""
","""event"",""trial"",""time""
""blur"",""12"",""87343""
","""event"",""trial"",""time""
""focus"",""12"",""88645""
","""event"",""trial"",""time""
""fullscreenenter"",""1"",""14469""
","
",,null,run_exp/static/audio/clip_9_practice.m4a,null,"<p> Are you ready to play a practice game? </p> <p>In this practice game, you'll be digging up barrels of gems. But, in the real game, you'll be digging up the gems themselves. </p>",,,,,,,,,,,,,,,,,,,,,,,
html-button-response,25,195900,0.0-10.0-1.0,"""event"",""trial"",""time""
""fullscreenenter"",""1"",""14469""
""blur"",""12"",""87343""
""focus"",""12"",""88645""
","""event"",""trial"",""time""
""blur"",""12"",""87343""
","""event"",""trial"",""time""
""focus"",""12"",""88645""
","""event"",""trial"",""time""
""fullscreenenter"",""1"",""14469""
","
",,1938.9,"<p> Are you ready to play a practice game? </p> <p>In this practice game, you'll be digging up barrels of gems. But, in the real game, you'll be digging up the gems themselves. </p>",,,,,,,0,,,,,,,,,,,,,,,,,,
alien_welcome_prac,26,200904,0.0-11.0-0.0,"""event"",""trial"",""time""
""fullscreenenter"",""1"",""14469""
""blur"",""12"",""87343""
""focus"",""12"",""88645""
","""event"",""trial"",""time""
""blur"",""12"",""87343""
","""event"",""trial"",""time""
""focus"",""12"",""88645""
","""event"",""trial"",""time""
""fullscreenenter"",""1"",""14469""
","
",,null,run_exp/static/images/task_images/aliens/practice_aliens/planet/alien_planet-5.jpg,null,,,,,,,,,,,,,,,,,,,,,,,,
land_prac,27,201405,0.0-11.0-1.0,"""event"",""trial"",""time""
""fullscreenenter"",""1"",""14469""
""blur"",""12"",""87343""
""focus"",""12"",""88645""
","""event"",""trial"",""time""
""blur"",""12"",""87343""
","""event"",""trial"",""time""
""focus"",""12"",""88645""
","""event"",""trial"",""time""
""fullscreenenter"",""1"",""14469""
","
",,null,run_exp/static/images/task_images/land.jpg,null,,,,,,,98,,,0,,,,,,,,,,,,,,
dig_prac,28,203409,0.0-11.0-2.0,"""event"",""trial"",""time""
""fullscreenenter"",""1"",""14469""
""blur"",""12"",""87343""
""focus"",""12"",""88645""
","""event"",""trial"",""time""
""blur"",""12"",""87343""
","""event"",""trial"",""time""
""focus"",""12"",""88645""
","""event"",""trial"",""time""
""fullscreenenter"",""1"",""14469""
","
",,,,,,,,,,,,"[{""stimulus"":""run_exp/static/images/task_images/dig.jpg"",""time"":0.30000001192092896},{""stimulus"":""run_exp/static/images/task_images/land.jpg"",""time"":669.5},{""stimulus"":""run_exp/static/images/task_images/dig.jpg"",""time"":1335.9000000059605}]",[],,,,,,,,,,,,,,,
harvest_prac,29,204411,0.0-11.0-3.0,"""event"",""trial"",""time""
""fullscreenenter"",""1"",""14469""
""blur"",""12"",""87343""
""focus"",""12"",""88645""
","""event"",""trial"",""time""
""blur"",""12"",""87343""
","""event"",""trial"",""time""
""focus"",""12"",""88645""
","""event"",""trial"",""time""
""fullscreenenter"",""1"",""14469""
","
",,null,run_exp/static/images/task_images/barrel_text.jpg,null,,,,,,,,,,,,,,,,,,,,,,,,
decision_prac,30,205650,0.0-11.0-4.0,"""event"",""trial"",""time""
""fullscreenenter"",""1"",""14469""
""blur"",""12"",""87343""
""focus"",""12"",""88645""
","""event"",""trial"",""time""
""blur"",""12"",""87343""
","""event"",""trial"",""time""
""focus"",""12"",""88645""
","""event"",""trial"",""time""
""fullscreenenter"",""1"",""14469""
","
",,1237.5,run_exp/static/images/task_images/land.jpg,65,,,,,,,,,,,1,,,,,,,,,,,,,
dig_prac,31,207656,0.0-12.0-0.0,"""event"",""trial"",""time""
""fullscreenenter"",""1"",""14469""
""blur"",""12"",""87343""
""focus"",""12"",""88645""
","""event"",""trial"",""time""
""blur"",""12"",""87343""
","""event"",""trial"",""time""
""focus"",""12"",""88645""
","""event"",""trial"",""time""
""fullscreenenter"",""1"",""14469""
","
",,,,,,,,,,,,"[{""stimulus"":""run_exp/static/images/task_images/dig.jpg"",""time"":0.20000001788139343},{""stimulus"":""run_exp/static/images/task_images/land.jpg"",""time"":668.3000000119209},{""stimulus"":""run_exp/static/images/task_images/dig.jpg"",""time"":1336}]",[],,,,,,,,,,,,,,,
harvest_prac,32,208658,0.0-12.0-1.0,"""event"",""trial"",""time""
""fullscreenenter"",""1"",""14469""
""blur"",""12"",""87343""
""focus"",""12"",""88645""
","""event"",""trial"",""time""
""blur"",""12"",""87343""
","""event"",""trial"",""time""
""focus"",""12"",""88645""
","""event"",""trial"",""time""
""fullscreenenter"",""1"",""14469""
","
",,null,run_exp/static/images/task_images/barrel_text.jpg,null,,,,,,,,,,,,,,,,,,,,,,,,
decision_prac,33,209254,0.0-12.0-2.0,"""event"",""trial"",""time""
""fullscreenenter"",""1"",""14469""
""blur"",""12"",""87343""
""focus"",""12"",""88645""
","""event"",""trial"",""time""
""blur"",""12"",""87343""
","""event"",""trial"",""time""
""focus"",""12"",""88645""
","""event"",""trial"",""time""
""fullscreenenter"",""1"",""14469""
","
",,595.1,run_exp/static/images/task_images/land.jpg,65,,,,,,,,,,,2,,,,,,,,,,,,,
dig_prac,34,211260,0.0-13.0-0.0,"""event"",""trial"",""time""
""fullscreenenter"",""1"",""14469""
""blur"",""12"",""87343""
""focus"",""12"",""88645""
","""event"",""trial"",""time""
""blur"",""12"",""87343""
","""event"",""trial"",""time""
""focus"",""12"",""88645""
","""event"",""trial"",""time""
""fullscreenenter"",""1"",""14469""
","
",,,,,,,,,,,,"[{""stimulus"":""run_exp/static/images/task_images/dig.jpg"",""time"":0.19999998807907104},{""stimulus"":""run_exp/static/images/task_images/land.jpg"",""time"":676.7999999821186},{""stimulus"":""run_exp/static/images/task_images/dig.jpg"",""time"":1336}]",[],,,,,,,,,,,,,,,
harvest_prac,35,212262,0.0-13.0-1.0,"""event"",""trial"",""time""
""fullscreenenter"",""1"",""14469""
""blur"",""12"",""87343""
""focus"",""12"",""88645""
","""event"",""trial"",""time""
""blur"",""12"",""87343""
","""event"",""trial"",""time""
""focus"",""12"",""88645""
","""event"",""trial"",""time""
""fullscreenenter"",""1"",""14469""
","
",,null,run_exp/static/images/task_images/barrel_text.jpg,null,,,,,,,,,,,,,,,,,,,,,,,,
decision_prac,36,212643,0.0-13.0-2.0,"""event"",""trial"",""time""
""fullscreenenter"",""1"",""14469""
""blur"",""12"",""87343""
""focus"",""12"",""88645""
","""event"",""trial"",""time""
""blur"",""12"",""87343""
","""event"",""trial"",""time""
""focus"",""12"",""88645""
","""event"",""trial"",""time""
""fullscreenenter"",""1"",""14469""
","
",,380.9,run_exp/static/images/task_images/land.jpg,65,,,,,,,,,,,3,,,,,,,,,,,,,
dig_prac,37,214649,0.0-14.0-0.0,"""event"",""trial"",""time""
""fullscreenenter"",""1"",""14469""
""blur"",""12"",""87343""
""focus"",""12"",""88645""
","""event"",""trial"",""time""
""blur"",""12"",""87343""
","""event"",""trial"",""time""
""focus"",""12"",""88645""
","""event"",""trial"",""time""
""fullscreenenter"",""1"",""14469""
","
",,,,,,,,,,,,"[{""stimulus"":""run_exp/static/images/task_images/dig.jpg"",""time"":0.09999999403953552},{""stimulus"":""run_exp/static/images/task_images/land.jpg"",""time"":668.5},{""stimulus"":""run_exp/static/images/task_images/dig.jpg"",""time"":1336.7999999821186}]",[],,,,,,,,,,,,,,,
harvest_prac,38,215651,0.0-14.0-1.0,"""event"",""trial"",""time""
""fullscreenenter"",""1"",""14469""
""blur"",""12"",""87343""
""focus"",""12"",""88645""
","""event"",""trial"",""time""
""blur"",""12"",""87343""
","""event"",""trial"",""time""
""focus"",""12"",""88645""
","""event"",""trial"",""time""
""fullscreenenter"",""1"",""14469""
","
",,null,run_exp/static/images/task_images/barrel_text.jpg,null,,,,,,,,,,,,,,,,,,,,,,,,
decision_prac,39,216219,0.0-14.0-2.0,"""event"",""trial"",""time""
""fullscreenenter"",""1"",""14469""
""blur"",""12"",""87343""
""focus"",""12"",""88645""
","""event"",""trial"",""time""
""blur"",""12"",""87343""
","""event"",""trial"",""time""
""focus"",""12"",""88645""
","""event"",""trial"",""time""
""fullscreenenter"",""1"",""14469""
","
",,567.2,run_exp/static/images/task_images/land.jpg,65,,,,,,,,,,,4,,,,,,,,,,,,,
dig_prac,40,218225,0.0-15.0-0.0,"""event"",""trial"",""time""
""fullscreenenter"",""1"",""14469""
""blur"",""12"",""87343""
""focus"",""12"",""88645""
","""event"",""trial"",""time""
""blur"",""12"",""87343""
","""event"",""trial"",""time""
""focus"",""12"",""88645""
","""event"",""trial"",""time""
""fullscreenenter"",""1"",""14469""
","
",,,,,,,,,,,,"[{""stimulus"":""run_exp/static/images/task_images/dig.jpg"",""time"":0.30000001192092896},{""stimulus"":""run_exp/static/images/task_images/land.jpg"",""time"":669.4000000059605},{""stimulus"":""run_exp/static/images/task_images/dig.jpg"",""time"":1335.4000000059605}]",[],,,,,,,,,,,,,,,
harvest_prac,41,219227,0.0-15.0-1.0,"""event"",""trial"",""time""
""fullscreenenter"",""1"",""14469""
""blur"",""12"",""87343""
""focus"",""12"",""88645""
","""event"",""trial"",""time""
""blur"",""12"",""87343""
","""event"",""trial"",""time""
""focus"",""12"",""88645""
","""event"",""trial"",""time""
""fullscreenenter"",""1"",""14469""
","
",,null,run_exp/static/images/task_images/barrel_text.jpg,null,,,,,,,,,,,,,,,,,,,,,,,,
decision_prac,42,219622,0.0-15.0-2.0,"""event"",""trial"",""time""
""fullscreenenter"",""1"",""14469""
""blur"",""12"",""87343""
""focus"",""12"",""88645""
","""event"",""trial"",""time""
""blur"",""12"",""87343""
","""event"",""trial"",""time""
""focus"",""12"",""88645""
","""event"",""trial"",""time""
""fullscreenenter"",""1"",""14469""
","
",,394.1,run_exp/static/images/task_images/land.jpg,65,,,,,,,,,,,,1,,,,,,,,,,,,
quiz_instruc,43,230748,0.0-16.0-0.0,"""event"",""trial"",""time""
""fullscreenenter"",""1"",""14469""
""blur"",""12"",""87343""
""focus"",""12"",""88645""
","""event"",""trial"",""time""
""blur"",""12"",""87343""
","""event"",""trial"",""time""
""focus"",""12"",""88645""
","""event"",""trial"",""time""
""fullscreenenter"",""1"",""14469""
","
",,11123,run_exp/static/audio/clip_10_quiz.m4a,,,,,,,0,,,,,,,,,,,,,,,,,,
instruc_repeat,44,273519,0.0-16.0-1.0,"""event"",""trial"",""time""
""fullscreenenter"",""1"",""14469""
""blur"",""12"",""87343""
""focus"",""12"",""88645""
","""event"",""trial"",""time""
""blur"",""12"",""87343""
","""event"",""trial"",""time""
""focus"",""12"",""88645""
","""event"",""trial"",""time""
""fullscreenenter"",""1"",""14469""
","
",,null,"<p> Are you ready to play a practice game? </p> <p>In this practice game, you'll be digging up barrels of gems. But, in the real game, you'll be digging up the gems themselves. </p>",null,"<p>In this game, your goal is to collect as many gems as you can. That’s how you will win bonus money. </p> <p>The entire game will last 20 minutes no matter how many gems you collect or how many planets you visit. </p><p>To stay on a planet and dig again, press the letter A on your keyboard. To leave for a new planet, press the letter L.</p><p>The more you dig on a planet, the fewer gems you’ll get with each dig which is why you might consider leaving for a new planet. </p><p>When you arrive at a new planet, you’ll be greeted by an alien. What the alien looks like does not tell you anything about how much treasure is on the planet. </p>",,,,,,,,,,,,,,,,,,,,,,,
instruc_repeat_continue,45,274598,0.0-16.0-2.0,"""event"",""trial"",""time""
""fullscreenenter"",""1"",""14469""
""blur"",""12"",""87343""
""focus"",""12"",""88645""
","""event"",""trial"",""time""
""blur"",""12"",""87343""
","""event"",""trial"",""time""
""focus"",""12"",""88645""
","""event"",""trial"",""time""
""fullscreenenter"",""1"",""14469""
","
",,1077.8,"<p> Are you ready to play a practice game? </p> <p>In this practice game, you'll be digging up barrels of gems. But, in the real game, you'll be digging up the gems themselves. </p>",,,,,,,0,,,,,,,,,,,,,,,,,,
quiz_q_1_ask,46,277130,0.0-16.0-3.0,"""event"",""trial"",""time""
""fullscreenenter"",""1"",""14469""
""blur"",""12"",""87343""
""focus"",""12"",""88645""
","""event"",""trial"",""time""
""blur"",""12"",""87343""
","""event"",""trial"",""time""
""focus"",""12"",""88645""
","""event"",""trial"",""time""
""fullscreenenter"",""1"",""14469""
","
",,2530.6,run_exp/static/audio/clip_11_q1_ask.m4a,,,,,,,2,,,,,,,,,,,,,,,,,,
quiz_q_1_fb_correct,47,280979,0.0-17.0-0.0,"""event"",""trial"",""time""
""fullscreenenter"",""1"",""14469""
""blur"",""12"",""87343""
""focus"",""12"",""88645""
","""event"",""trial"",""time""
""blur"",""12"",""87343""
","""event"",""trial"",""time""
""focus"",""12"",""88645""
","""event"",""trial"",""time""
""fullscreenenter"",""1"",""14469""
","
",,null,run_exp/static/audio/clip_12_q1_correct.m4a,null,<p>That’s correct. You win extra money by collecting more gems.</p>,,,,,,,,,,,,,,,,,,,,,,,
quiz_q_2_ask,48,285494,0.0-17.0-1.0,"""event"",""trial"",""time""
""fullscreenenter"",""1"",""14469""
""blur"",""12"",""87343""
""focus"",""12"",""88645""
","""event"",""trial"",""time""
""blur"",""12"",""87343""
","""event"",""trial"",""time""
""focus"",""12"",""88645""
","""event"",""trial"",""time""
""fullscreenenter"",""1"",""14469""
","
",,4513.6,run_exp/static/audio/clip_14_q2_ask.m4a,,,,,,,1,,,,,,,,,,,,,,,,,,
quiz_q_2_fb_correct,49,289500,0.0-18.0-0.0,"""event"",""trial"",""time""
""fullscreenenter"",""1"",""14469""
""blur"",""12"",""87343""
""focus"",""12"",""88645""
","""event"",""trial"",""time""
""blur"",""12"",""87343""
","""event"",""trial"",""time""
""focus"",""12"",""88645""
","""event"",""trial"",""time""
""fullscreenenter"",""1"",""14469""
","
",,null,run_exp/static/audio/clip_15_q2_correct.m4a,null,<p>That’s correct. The experiment is 20 minutes no matter what.</p>,,,,,,,,,,,,,,,,,,,,,,,
quiz_q_3_ask,50,301052,0.0-18.0-1.0,"""event"",""trial"",""time""
""fullscreenenter"",""1"",""14469""
""blur"",""12"",""87343""
""focus"",""12"",""88645""
","""event"",""trial"",""time""
""blur"",""12"",""87343""
","""event"",""trial"",""time""
""focus"",""12"",""88645""
","""event"",""trial"",""time""
""fullscreenenter"",""1"",""14469""
","
",,11549.9,run_exp/static/audio/clip_17_q3_ask.m4a,,,,,,,1,,,,,,,,,,,,,,,,,,
quiz_q_3_fb_correct,51,305039,0.0-19.0-0.0,"""event"",""trial"",""time""
""fullscreenenter"",""1"",""14469""
""blur"",""12"",""87343""
""focus"",""12"",""88645""
","""event"",""trial"",""time""
""blur"",""12"",""87343""
","""event"",""trial"",""time""
""focus"",""12"",""88645""
","""event"",""trial"",""time""
""fullscreenenter"",""1"",""14469""
","
",,null,run_exp/static/audio/clip_18_q3_correct.m4a,null,<p> That’s correct. You press the letter L to travel to a new planet.</p>,,,,,,,,,,,,,,,,,,,,,,,
quiz_q_4_ask,52,309297,0.0-19.0-1.0,"""event"",""trial"",""time""
""fullscreenenter"",""1"",""14469""
""blur"",""12"",""87343""
""focus"",""12"",""88645""
","""event"",""trial"",""time""
""blur"",""12"",""87343""
","""event"",""trial"",""time""
""focus"",""12"",""88645""
","""event"",""trial"",""time""
""fullscreenenter"",""1"",""14469""
","
",,4256.5,run_exp/static/audio/clip_20_q4_ask.m4a,,,,,,,0,,,,,,,,,,,,,,,,,,
quiz_q_4_fb_correct,53,314619,0.0-20.0-0.0,"""event"",""trial"",""time""
""fullscreenenter"",""1"",""14469""
""blur"",""12"",""87343""
""focus"",""12"",""88645""
","""event"",""trial"",""time""
""blur"",""12"",""87343""
","""event"",""trial"",""time""
""focus"",""12"",""88645""
","""event"",""trial"",""time""
""fullscreenenter"",""1"",""14469""
","
",,null,run_exp/static/audio/clip_21_q4_correct.m4a,null,<p> That’s correct. The more you dig on a planet the fewer gems you’ll get with each dig. </p>,,,,,,,,,,,,,,,,,,,,,,,
quiz_q_5_ask,54,316161,0.0-20.0-1.0,"""event"",""trial"",""time""
""fullscreenenter"",""1"",""14469""
""blur"",""12"",""87343""
""focus"",""12"",""88645""
","""event"",""trial"",""time""
""blur"",""12"",""87343""
","""event"",""trial"",""time""
""focus"",""12"",""88645""
","""event"",""trial"",""time""
""fullscreenenter"",""1"",""14469""
","
",,1540.9,run_exp/static/audio/clip_23_q5_ask.m4a,,,,,,,1,,,,,,,,,,,,,,,,,,
quiz_q_5_fb_correct,55,321159,0.0-21.0-0.0,"""event"",""trial"",""time""
""fullscreenenter"",""1"",""14469""
""blur"",""12"",""87343""
""focus"",""12"",""88645""
","""event"",""trial"",""time""
""blur"",""12"",""87343""
","""event"",""trial"",""time""
""focus"",""12"",""88645""
","""event"",""trial"",""time""
""fullscreenenter"",""1"",""14469""
","
",,null,run_exp/static/audio/clip_24_q5_correct.m4a,null,<p> That’s correct. The alien tells you nothing about how much treasure is on the planet.</p>,,,,,,,,,,,,,,,,,,,,,,,
quiz_correct,56,324620,0.0-22.0-0.0,"""event"",""trial"",""time""
""fullscreenenter"",""1"",""14469""
""blur"",""12"",""87343""
""focus"",""12"",""88645""
","""event"",""trial"",""time""
""blur"",""12"",""87343""
","""event"",""trial"",""time""
""focus"",""12"",""88645""
","""event"",""trial"",""time""
""fullscreenenter"",""1"",""14469""
","
",,null,run_exp/static/audio/clip_26_correct_quiz.m4a,null,,,,,,,,,,,,,,,,,,,,,,,,
quiz_correct_continue,57,325620,0.0-22.0-1.0,"""event"",""trial"",""time""
""fullscreenenter"",""1"",""14469""
""blur"",""12"",""87343""
""focus"",""12"",""88645""
","""event"",""trial"",""time""
""blur"",""12"",""87343""
","""event"",""trial"",""time""
""focus"",""12"",""88645""
","""event"",""trial"",""time""
""fullscreenenter"",""1"",""14469""
","
",,999.7,<p>Good job! You're now ready to move on to the real game!</p>,,,,,,,0,,,,,,,,,,,,,,,,,,
audio-keyboard-response,58,335739,0.0-22.0-2.0,"""event"",""trial"",""time""
""fullscreenenter"",""1"",""14469""
""blur"",""12"",""87343""
""focus"",""12"",""88645""
","""event"",""trial"",""time""
""blur"",""12"",""87343""
","""event"",""trial"",""time""
""focus"",""12"",""88645""
","""event"",""trial"",""time""
""fullscreenenter"",""1"",""14469""
","
",,null,run_exp/static/audio/clip_28_real_game.m4a,null,,,,,,,,,,,,,,,,,,,,,,,,
instruc_begin_exp_contine,59,337633,0.0-22.0-3.0,"""event"",""trial"",""time""
""fullscreenenter"",""1"",""14469""
""blur"",""12"",""87343""
""focus"",""12"",""88645""
","""event"",""trial"",""time""
""blur"",""12"",""87343""
","""event"",""trial"",""time""
""focus"",""12"",""88645""
","""event"",""trial"",""time""
""fullscreenenter"",""1"",""14469""
","
",,1893,"<p>Now that you know how  to dig for space treasure and travel to new planets,you can start exploring! </p><p>Do you want to go over the instructions again or get started with the real game?</p>",,,,,,,1,,,,,,1,,,,,,,,,,,,
alien_welcome,60,342637,0.0-23.0-0.0,"""event"",""trial"",""time""
""fullscreenenter"",""1"",""14469""
""blur"",""12"",""87343""
""focus"",""12"",""88645""
","""event"",""trial"",""time""
""blur"",""12"",""87343""
","""event"",""trial"",""time""
""focus"",""12"",""88645""
","""event"",""trial"",""time""
""fullscreenenter"",""1"",""14469""
","
",,null,run_exp/static/images/task_images/aliens/old_aliens/planet/alien_planet-14.jpg,null,,,,,,,,,,,,,14,"14,50,32,79,9,24,43,2,27,63,31,71,69,55,42,73,21,40,22,47,33,51,67,72,52,26,12,1,23,37,76,49,30,25,75",,,,,,,,,,
land,61,343139,0.0-23.0-1.0,"""event"",""trial"",""time""
""fullscreenenter"",""1"",""14469""
""blur"",""12"",""87343""
""focus"",""12"",""88645""
","""event"",""trial"",""time""
""blur"",""12"",""87343""
","""event"",""trial"",""time""
""focus"",""12"",""88645""
","""event"",""trial"",""time""
""fullscreenenter"",""1"",""14469""
","
",,null,run_exp/static/images/task_images/land.jpg,null,,,,,,,101,,,1,,,,,,,,,,,,,,
dig,62,345143,0.0-23.0-2.0,"""event"",""trial"",""time""
""fullscreenenter"",""1"",""14469""
""blur"",""12"",""87343""
""focus"",""12"",""88645""
","""event"",""trial"",""time""
""blur"",""12"",""87343""
","""event"",""trial"",""time""
""focus"",""12"",""88645""
","""event"",""trial"",""time""
""fullscreenenter"",""1"",""14469""
","
",,,,,,,,,,,,"[{""stimulus"":""run_exp/static/images/task_images/dig.jpg"",""time"":0.29999998211860657},{""stimulus"":""run_exp/static/images/task_images/land.jpg"",""time"":668.7999999821186},{""stimulus"":""run_exp/static/images/task_images/dig.jpg"",""time"":1336}]",[],1,,,,,,,,,,,,,,
harvest,63,346145,0.0-23.0-3.0,"""event"",""trial"",""time""
""fullscreenenter"",""1"",""14469""
""blur"",""12"",""87343""
""focus"",""12"",""88645""
","""event"",""trial"",""time""
""blur"",""12"",""87343""
","""event"",""trial"",""time""
""focus"",""12"",""88645""
","""event"",""trial"",""time""
""fullscreenenter"",""1"",""14469""
","
",,null,run_exp/static/images/task_images/gems/101.jpg,null,,,,,,,23,,,1,,,,,101,0.226117651,0.227722772,,,,,,,
decision,64,346690,0.0-23.0-4.0,"""event"",""trial"",""time""
""fullscreenenter"",""1"",""14469""
""blur"",""12"",""87343""
""focus"",""12"",""88645""
","""event"",""trial"",""time""
""blur"",""12"",""87343""
","""event"",""trial"",""time""
""focus"",""12"",""88645""
","""event"",""trial"",""time""
""fullscreenenter"",""1"",""14469""
","
",,543.6,run_exp/static/images/task_images/land.jpg,65,,,,,,,23,,,1,,,,,,,,9056,1,0,FALSE,,,
dig,65,349150,0.0-24.0-0.0,"""event"",""trial"",""time""
""fullscreenenter"",""1"",""14469""
""blur"",""12"",""87343""
""focus"",""12"",""88645""
","""event"",""trial"",""time""
""blur"",""12"",""87343""
","""event"",""trial"",""time""
""focus"",""12"",""88645""
","""event"",""trial"",""time""
""fullscreenenter"",""1"",""14469""
","
",,,,,,,,,,,,"[{""stimulus"":""run_exp/static/images/task_images/dig.jpg"",""time"":0.30000001192092896},{""stimulus"":""run_exp/static/images/task_images/land.jpg"",""time"":819.3000000119209},{""stimulus"":""run_exp/static/images/task_images/dig.jpg"",""time"":1637.9000000059605}]",[],1,,,,,,,,,,,,,,
harvest,66,350151,0.0-24.0-1.0,"""event"",""trial"",""time""
""fullscreenenter"",""1"",""14469""
""blur"",""12"",""87343""
""focus"",""12"",""88645""
","""event"",""trial"",""time""
""blur"",""12"",""87343""
","""event"",""trial"",""time""
""focus"",""12"",""88645""
","""event"",""trial"",""time""
""fullscreenenter"",""1"",""14469""
","
",,null,run_exp/static/images/task_images/gems/23.jpg,null,,,,,,,6,,,1,,,,,23,0.255100434,0.260869565,,,,,,,
decision,67,350656,0.0-24.0-2.0,"""event"",""trial"",""time""
""fullscreenenter"",""1"",""14469""
""blur"",""12"",""87343""
""focus"",""12"",""88645""
","""event"",""trial"",""time""
""blur"",""12"",""87343""
","""event"",""trial"",""time""
""focus"",""12"",""88645""
","""event"",""trial"",""time""
""fullscreenenter"",""1"",""14469""
","
",,503.6,run_exp/static/images/task_images/land.jpg,65,,,,,,,6,,,1,,,,,,,,13021,1,1,FALSE,,,
dig,68,353155,0.0-25.0-0.0,"""event"",""trial"",""time""
""fullscreenenter"",""1"",""14469""
""blur"",""12"",""87343""
""focus"",""12"",""88645""
","""event"",""trial"",""time""
""blur"",""12"",""87343""
","""event"",""trial"",""time""
""focus"",""12"",""88645""
","""event"",""trial"",""time""
""fullscreenenter"",""1"",""14469""
","
",,,,,,,,,,,,"[{""stimulus"":""run_exp/static/images/task_images/dig.jpg"",""time"":0.09999999403953552},{""stimulus"":""run_exp/static/images/task_images/land.jpg"",""time"":833.1999999880791},{""stimulus"":""run_exp/static/images/task_images/dig.jpg"",""time"":1664.7999999821186}]",[],1,,,,,,,,,,,,,,
harvest,69,354157,0.0-25.0-1.0,"""event"",""trial"",""time""
""fullscreenenter"",""1"",""14469""
""blur"",""12"",""87343""
""focus"",""12"",""88645""
","""event"",""trial"",""time""
""blur"",""12"",""87343""
","""event"",""trial"",""time""
""focus"",""12"",""88645""
","""event"",""trial"",""time""
""fullscreenenter"",""1"",""14469""
","
",,null,run_exp/static/images/task_images/gems/6.jpg,null,,,,,,,2,,,1,,,,,6,0.318682943,0.333333333,,,,,,,
decision,70,354621,0.0-25.0-2.0,"""event"",""trial"",""time""
""fullscreenenter"",""1"",""14469""
""blur"",""12"",""87343""
""focus"",""12"",""88645""
","""event"",""trial"",""time""
""blur"",""12"",""87343""
","""event"",""trial"",""time""
""focus"",""12"",""88645""
","""event"",""trial"",""time""
""fullscreenenter"",""1"",""14469""
","
",,462.6,run_exp/static/images/task_images/land.jpg,76,,,,,,,2,,,1,,,,,,,,16986,1,2,TRUE,,,
travel,71,364156,0.0-26.0-0.0,"""event"",""trial"",""time""
""fullscreenenter"",""1"",""14469""
""blur"",""12"",""87343""
""focus"",""12"",""88645""
","""event"",""trial"",""time""
""blur"",""12"",""87343""
","""event"",""trial"",""time""
""focus"",""12"",""88645""
","""event"",""trial"",""time""
""fullscreenenter"",""1"",""14469""
","
",,,,,,,,,,,,"[{""stimulus"":""run_exp/static/images/task_images/rocket-01.jpg"",""time"":0.19999998807907104},{""stimulus"":""run_exp/static/images/task_images/rocket-02.jpg"",""time"":1061.2999999821186},{""stimulus"":""run_exp/static/images/task_images/rocket-03.jpg"",""time"":2120},{""stimulus"":""run_exp/static/images/task_images/rocket-04.jpg"",""time"":3178.4000000059605},{""stimulus"":""run_exp/static/images/task_images/rocket-05.jpg"",""time"":4238.0999999940395},{""stimulus"":""run_exp/static/images/task_images/rocket-06.jpg"",""time"":5296.799999982119},{""stimulus"":""run_exp/static/images/task_images/rocket-07.jpg"",""time"":6355.9000000059605},{""stimulus"":""run_exp/static/images/task_images/rocket-08.jpg"",""time"":7426.299999982119},{""stimulus"":""run_exp/static/images/task_images/rocket-09.jpg"",""time"":8474.699999988079}]",[],1,,,,,,,,,,,,,,
alien_welcome,72,369159,0.0-26.0-1.0,"""event"",""trial"",""time""
""fullscreenenter"",""1"",""14469""
""blur"",""12"",""87343""
""focus"",""12"",""88645""
","""event"",""trial"",""time""
""blur"",""12"",""87343""
","""event"",""trial"",""time""
""focus"",""12"",""88645""
","""event"",""trial"",""time""
""fullscreenenter"",""1"",""14469""
","
",,null,run_exp/static/images/task_images/aliens/old_aliens/planet/alien_planet-50.jpg,null,,,,,,,,,,,,,50,"14,50,32,79,9,24,43,2,27,63,31,71,69,55,42,73,21,40,22,47,33,51,67,72,52,26,12,1,23,37,76,49,30,25,75",,,,,,,,,,
land,73,369661,0.0-26.0-2.0,"""event"",""trial"",""time""
""fullscreenenter"",""1"",""14469""
""blur"",""12"",""87343""
""focus"",""12"",""88645""
","""event"",""trial"",""time""
""blur"",""12"",""87343""
","""event"",""trial"",""time""
""focus"",""12"",""88645""
","""event"",""trial"",""time""
""fullscreenenter"",""1"",""14469""
","
",,null,run_exp/static/images/task_images/land.jpg,null,,,,,,,97,,,2,,,,,,,,,,,,,,
dig,74,371664,0.0-26.0-3.0,"""event"",""trial"",""time""
""fullscreenenter"",""1"",""14469""
""blur"",""12"",""87343""
""focus"",""12"",""88645""
","""event"",""trial"",""time""
""blur"",""12"",""87343""
","""event"",""trial"",""time""
""focus"",""12"",""88645""
","""event"",""trial"",""time""
""fullscreenenter"",""1"",""14469""
","
",,,,,,,,,,,,"[{""stimulus"":""run_exp/static/images/task_images/dig.jpg"",""time"":0.29999998211860657},{""stimulus"":""run_exp/static/images/task_images/land.jpg"",""time"":669.5},{""stimulus"":""run_exp/static/images/task_images/dig.jpg"",""time"":1336.199999988079}]",[],2,,,,,,,,,,,,,,
harvest,75,372666,0.0-26.0-4.0,"""event"",""trial"",""time""
""fullscreenenter"",""1"",""14469""
""blur"",""12"",""87343""
""focus"",""12"",""88645""
","""event"",""trial"",""time""
""blur"",""12"",""87343""
","""event"",""trial"",""time""
""focus"",""12"",""88645""
","""event"",""trial"",""time""
""fullscreenenter"",""1"",""14469""
","
",,null,run_exp/static/images/task_images/gems/97.jpg,null,,,,,,,23,,,2,,,,,97,0.24009801,0.237113402,,,,,,,
decision,76,373131,0.0-26.0-5.0,"""event"",""trial"",""time""
""fullscreenenter"",""1"",""14469""
""blur"",""12"",""87343""
""focus"",""12"",""88645""
","""event"",""trial"",""time""
""blur"",""12"",""87343""
","""event"",""trial"",""time""
""focus"",""12"",""88645""
","""event"",""trial"",""time""
""fullscreenenter"",""1"",""14469""
","
",,463.7,run_exp/static/images/task_images/land.jpg,65,,,,,,,23,,,2,,,,,,,,35496,1,0,FALSE,,,
dig,77,375671,0.0-27.0-0.0,"""event"",""trial"",""time""
""fullscreenenter"",""1"",""14469""
""blur"",""12"",""87343""
""focus"",""12"",""88645""
","""event"",""trial"",""time""
""blur"",""12"",""87343""
","""event"",""trial"",""time""
""focus"",""12"",""88645""
","""event"",""trial"",""time""
""fullscreenenter"",""1"",""14469""
","
",,,,,,,,,,,,"[{""stimulus"":""run_exp/static/images/task_images/dig.jpg"",""time"":0.19999998807907104},{""stimulus"":""run_exp/static/images/task_images/land.jpg"",""time"":847.1999999880791},{""stimulus"":""run_exp/static/images/task_images/dig.jpg"",""time"":1691.2999999821186}]",[],2,,,,,,,,,,,,,,
harvest,78,376673,0.0-27.0-1.0,"""event"",""trial"",""time""
""fullscreenenter"",""1"",""14469""
""blur"",""12"",""87343""
""focus"",""12"",""88645""
","""event"",""trial"",""time""
""blur"",""12"",""87343""
","""event"",""trial"",""time""
""focus"",""12"",""88645""
","""event"",""trial"",""time""
""fullscreenenter"",""1"",""14469""
","
",,null,run_exp/static/images/task_images/gems/23.jpg,null,,,,,,,3,,,2,,,,,23,0.129975867,0.130434783,,,,,,,
decision,79,376966,0.0-27.0-2.0,"""event"",""trial"",""time""
""fullscreenenter"",""1"",""14469""
""blur"",""12"",""87343""
""focus"",""12"",""88645""
","""event"",""trial"",""time""
""blur"",""12"",""87343""
","""event"",""trial"",""time""
""focus"",""12"",""88645""
","""event"",""trial"",""time""
""fullscreenenter"",""1"",""14469""
","
",,291.9,run_exp/static/images/task_images/land.jpg,76,,,,,,,3,,,2,,,,,,,,39331,1,1,TRUE,,,
travel,80,386674,0.0-28.0-0.0,"""event"",""trial"",""time""
""fullscreenenter"",""1"",""14469""
""blur"",""12"",""87343""
""focus"",""12"",""88645""
","""event"",""trial"",""time""
""blur"",""12"",""87343""
","""event"",""trial"",""time""
""focus"",""12"",""88645""
","""event"",""trial"",""time""
""fullscreenenter"",""1"",""14469""
","
",,,,,,,,,,,,"[{""stimulus"":""run_exp/static/images/task_images/rocket-01.jpg"",""time"":0.29999998211860657},{""stimulus"":""run_exp/static/images/task_images/rocket-02.jpg"",""time"":1080.4000000059605},{""stimulus"":""run_exp/static/images/task_images/rocket-03.jpg"",""time"":2158.199999988079},{""stimulus"":""run_exp/static/images/task_images/rocket-04.jpg"",""time"":3236},{""stimulus"":""run_exp/static/images/task_images/rocket-05.jpg"",""time"":4313.4000000059605},{""stimulus"":""run_exp/static/images/task_images/rocket-06.jpg"",""time"":5391.0999999940395},{""stimulus"":""run_exp/static/images/task_images/rocket-07.jpg"",""time"":6470.299999982119},{""stimulus"":""run_exp/static/images/task_images/rocket-08.jpg"",""time"":7548.199999988079},{""stimulus"":""run_exp/static/images/task_images/rocket-09.jpg"",""time"":8625.199999988079}]",[],2,,,,,,,,,,,,,,
alien_welcome,81,391676,0.0-28.0-1.0,"""event"",""trial"",""time""
""fullscreenenter"",""1"",""14469""
""blur"",""12"",""87343""
""focus"",""12"",""88645""
","""event"",""trial"",""time""
""blur"",""12"",""87343""
","""event"",""trial"",""time""
""focus"",""12"",""88645""
","""event"",""trial"",""time""
""fullscreenenter"",""1"",""14469""
","
",,null,run_exp/static/images/task_images/aliens/old_aliens/planet/alien_planet-32.jpg,null,,,,,,,,,,,,,32,"14,50,32,79,9,24,43,2,27,63,31,71,69,55,42,73,21,40,22,47,33,51,67,72,52,26,12,1,23,37,76,49,30,25,75",,,,,,,,,,
land,82,392178,0.0-28.0-2.0,"""event"",""trial"",""time""
""fullscreenenter"",""1"",""14469""
""blur"",""12"",""87343""
""focus"",""12"",""88645""
","""event"",""trial"",""time""
""blur"",""12"",""87343""
","""event"",""trial"",""time""
""focus"",""12"",""88645""
","""event"",""trial"",""time""
""fullscreenenter"",""1"",""14469""
","
",,null,run_exp/static/images/task_images/land.jpg,null,,,,,,,95,,,3,,,,,,,,,,,,,,
dig,83,394182,0.0-28.0-3.0,"""event"",""trial"",""time""
""fullscreenenter"",""1"",""14469""
""blur"",""12"",""87343""
""focus"",""12"",""88645""
","""event"",""trial"",""time""
""blur"",""12"",""87343""
","""event"",""trial"",""time""
""focus"",""12"",""88645""
","""event"",""trial"",""time""
""fullscreenenter"",""1"",""14469""
","
",,,,,,,,,,,,"[{""stimulus"":""run_exp/static/images/task_images/dig.jpg"",""time"":0.30000001192092896},{""stimulus"":""run_exp/static/images/task_images/land.jpg"",""time"":668.8000000119209},{""stimulus"":""run_exp/static/images/task_images/dig.jpg"",""time"":1335.4000000059605}]",[],3,,,,,,,,,,,,,,
harvest,84,395184,0.0-28.0-4.0,"""event"",""trial"",""time""
""fullscreenenter"",""1"",""14469""
""blur"",""12"",""87343""
""focus"",""12"",""88645""
","""event"",""trial"",""time""
""blur"",""12"",""87343""
","""event"",""trial"",""time""
""focus"",""12"",""88645""
","""event"",""trial"",""time""
""fullscreenenter"",""1"",""14469""
","
",,null,run_exp/static/images/task_images/gems/95.jpg,null,,,,,,,39,,,3,,,,,95,0.410503572,0.410526316,,,,,,,
decision,85,395618,0.0-28.0-5.0,"""event"",""trial"",""time""
""fullscreenenter"",""1"",""14469""
""blur"",""12"",""87343""
""focus"",""12"",""88645""
","""event"",""trial"",""time""
""blur"",""12"",""87343""
","""event"",""trial"",""time""
""focus"",""12"",""88645""
","""event"",""trial"",""time""
""fullscreenenter"",""1"",""14469""
","
",,432.9,run_exp/static/images/task_images/land.jpg,65,,,,,,,39,,,3,,,,,,,,57983,1,0,FALSE,,,
dig,86,398187,0.0-29.0-0.0,"""event"",""trial"",""time""
""fullscreenenter"",""1"",""14469""
""blur"",""12"",""87343""
""focus"",""12"",""88645""
","""event"",""trial"",""time""
""blur"",""12"",""87343""
","""event"",""trial"",""time""
""focus"",""12"",""88645""
","""event"",""trial"",""time""
""fullscreenenter"",""1"",""14469""
","
",,,,,,,,,,,,"[{""stimulus"":""run_exp/static/images/task_images/dig.jpg"",""time"":0.19999998807907104},{""stimulus"":""run_exp/static/images/task_images/land.jpg"",""time"":857.0999999940395},{""stimulus"":""run_exp/static/images/task_images/dig.jpg"",""time"":1711.2999999821186}]",[],3,,,,,,,,,,,,,,
harvest,87,399188,0.0-29.0-1.0,"""event"",""trial"",""time""
""fullscreenenter"",""1"",""14469""
""blur"",""12"",""87343""
""focus"",""12"",""88645""
","""event"",""trial"",""time""
""blur"",""12"",""87343""
","""event"",""trial"",""time""
""focus"",""12"",""88645""
","""event"",""trial"",""time""
""fullscreenenter"",""1"",""14469""
","
",,null,run_exp/static/images/task_images/gems/39.jpg,null,,,,,,,19,,,3,,,,,39,0.495833644,0.487179487,,,,,,,
decision,88,399768,0.0-29.0-2.0,"""event"",""trial"",""time""
""fullscreenenter"",""1"",""14469""
""blur"",""12"",""87343""
""focus"",""12"",""88645""
","""event"",""trial"",""time""
""blur"",""12"",""87343""
","""event"",""trial"",""time""
""focus"",""12"",""88645""
","""event"",""trial"",""time""
""fullscreenenter"",""1"",""14469""
","
",,578,run_exp/static/images/task_images/land.jpg,65,,,,,,,19,,,3,,,,,,,,62133,1,1,FALSE,,,
dig,89,402192,0.0-30.0-0.0,"""event"",""trial"",""time""
""fullscreenenter"",""1"",""14469""
""blur"",""12"",""87343""
""focus"",""12"",""88645""
","""event"",""trial"",""time""
""blur"",""12"",""87343""
","""event"",""trial"",""time""
""focus"",""12"",""88645""
","""event"",""trial"",""time""
""fullscreenenter"",""1"",""14469""
","
",,,,,,,,,,,,"[{""stimulus"":""run_exp/static/images/task_images/dig.jpg"",""time"":0.29999998211860657},{""stimulus"":""run_exp/static/images/task_images/land.jpg"",""time"":808.5},{""stimulus"":""run_exp/static/images/task_images/dig.jpg"",""time"":1616.2999999821186}]",[],3,,,,,,,,,,,,,,
harvest,90,403194,0.0-30.0-1.0,"""event"",""trial"",""time""
""fullscreenenter"",""1"",""14469""
""blur"",""12"",""87343""
""focus"",""12"",""88645""
","""event"",""trial"",""time""
""blur"",""12"",""87343""
","""event"",""trial"",""time""
""focus"",""12"",""88645""
","""event"",""trial"",""time""
""fullscreenenter"",""1"",""14469""
","
",,null,run_exp/static/images/task_images/gems/19.jpg,null,,,,,,,8,,,3,,,,,19,0.428210476,0.421052632,,,,,,,
decision,91,403528,0.0-30.0-2.0,"""event"",""trial"",""time""
""fullscreenenter"",""1"",""14469""
""blur"",""12"",""87343""
""focus"",""12"",""88645""
","""event"",""trial"",""time""
""blur"",""12"",""87343""
","""event"",""trial"",""time""
""focus"",""12"",""88645""
","""event"",""trial"",""time""
""fullscreenenter"",""1"",""14469""
","
",,332.6,run_exp/static/images/task_images/land.jpg,65,,,,,,,8,,,3,,,,,,,,65893,1,2,FALSE,,,
dig,92,406201,0.0-31.0-0.0,"""event"",""trial"",""time""
""fullscreenenter"",""1"",""14469""
""blur"",""12"",""87343""
""focus"",""12"",""88645""
","""event"",""trial"",""time""
""blur"",""12"",""87343""
","""event"",""trial"",""time""
""focus"",""12"",""88645""
","""event"",""trial"",""time""
""fullscreenenter"",""1"",""14469""
","
",,,,,,,,,,,,"[{""stimulus"":""run_exp/static/images/task_images/dig.jpg"",""time"":0.20000001788139343},{""stimulus"":""run_exp/static/images/task_images/land.jpg"",""time"":890.9000000059605},{""stimulus"":""run_exp/static/images/task_images/dig.jpg"",""time"":1780.4000000059605}]",[],3,,,,,,,,,,,,,,
harvest,93,407202,0.0-31.0-1.0,"""event"",""trial"",""time""
""fullscreenenter"",""1"",""14469""
""blur"",""12"",""87343""
""focus"",""12"",""88645""
","""event"",""trial"",""time""
""blur"",""12"",""87343""
","""event"",""trial"",""time""
""focus"",""12"",""88645""
","""event"",""trial"",""time""
""fullscreenenter"",""1"",""14469""
","
",,null,run_exp/static/images/task_images/gems/8.jpg,null,,,,,,,4,,,3,,,,,8,0.485883624,0.5,,,,,,,
decision,94,407493,0.0-31.0-2.0,"""event"",""trial"",""time""
""fullscreenenter"",""1"",""14469""
""blur"",""12"",""87343""
""focus"",""12"",""88645""
","""event"",""trial"",""time""
""blur"",""12"",""87343""
","""event"",""trial"",""time""
""focus"",""12"",""88645""
","""event"",""trial"",""time""
""fullscreenenter"",""1"",""14469""
","
",,289.6,run_exp/static/images/task_images/land.jpg,65,,,,,,,4,,,3,,,,,,,,69858,1,3,FALSE,,,
dig,95,410206,0.0-32.0-0.0,"""event"",""trial"",""time""
""fullscreenenter"",""1"",""14469""
""blur"",""12"",""87343""
""focus"",""12"",""88645""
","""event"",""trial"",""time""
""blur"",""12"",""87343""
","""event"",""trial"",""time""
""focus"",""12"",""88645""
","""event"",""trial"",""time""
""fullscreenenter"",""1"",""14469""
","
",,,,,,,,,,,,"[{""stimulus"":""run_exp/static/images/task_images/dig.jpg"",""time"":0.30000001192092896},{""stimulus"":""run_exp/static/images/task_images/land.jpg"",""time"":904.1999999880791},{""stimulus"":""run_exp/static/images/task_images/dig.jpg"",""time"":1808.0999999940395}]",[],3,,,,,,,,,,,,,,
harvest,96,411208,0.0-32.0-1.0,"""event"",""trial"",""time""
""fullscreenenter"",""1"",""14469""
""blur"",""12"",""87343""
""focus"",""12"",""88645""
","""event"",""trial"",""time""
""blur"",""12"",""87343""
","""event"",""trial"",""time""
""focus"",""12"",""88645""
","""event"",""trial"",""time""
""fullscreenenter"",""1"",""14469""
","
",,null,run_exp/static/images/task_images/gems/4.jpg,null,,,,,,,2,,,3,,,,,4,0.556018641,0.5,,,,,,,
decision,97,411242,0.0-32.0-2.0,"""event"",""trial"",""time""
""fullscreenenter"",""1"",""14469""
""blur"",""12"",""87343""
""focus"",""12"",""88645""
","""event"",""trial"",""time""
""blur"",""12"",""87343""
","""event"",""trial"",""time""
""focus"",""12"",""88645""
","""event"",""trial"",""time""
""fullscreenenter"",""1"",""14469""
","
",,32.59999999,run_exp/static/images/task_images/land.jpg,76,,,,,,,2,,,3,,,,,,,,73607,1,4,TRUE,,,
travel,98,421210,0.0-33.0-0.0,"""event"",""trial"",""time""
""fullscreenenter"",""1"",""14469""
""blur"",""12"",""87343""
""focus"",""12"",""88645""
","""event"",""trial"",""time""
""blur"",""12"",""87343""
","""event"",""trial"",""time""
""focus"",""12"",""88645""
","""event"",""trial"",""time""
""fullscreenenter"",""1"",""14469""
","
",,,,,,,,,,,,"[{""stimulus"":""run_exp/static/images/task_images/rocket-01.jpg"",""time"":0.19999998807907104},{""stimulus"":""run_exp/static/images/task_images/rocket-02.jpg"",""time"":1108.9000000059605},{""stimulus"":""run_exp/static/images/task_images/rocket-03.jpg"",""time"":2215.5},{""stimulus"":""run_exp/static/images/task_images/rocket-04.jpg"",""time"":3323.199999988079},{""stimulus"":""run_exp/static/images/task_images/rocket-05.jpg"",""time"":4429.199999988079},{""stimulus"":""run_exp/static/images/task_images/rocket-06.jpg"",""time"":5536},{""stimulus"":""run_exp/static/images/task_images/rocket-07.jpg"",""time"":6643},{""stimulus"":""run_exp/static/images/task_images/rocket-08.jpg"",""time"":7750.0999999940395},{""stimulus"":""run_exp/static/images/task_images/rocket-09.jpg"",""time"":8858.5}]",[],3,,,,,,,,,,,,,,
alien_welcome,99,426212,0.0-33.0-1.0,"""event"",""trial"",""time""
""fullscreenenter"",""1"",""14469""
""blur"",""12"",""87343""
""focus"",""12"",""88645""
","""event"",""trial"",""time""
""blur"",""12"",""87343""
","""event"",""trial"",""time""
""focus"",""12"",""88645""
","""event"",""trial"",""time""
""fullscreenenter"",""1"",""14469""
","
",,null,run_exp/static/images/task_images/aliens/old_aliens/planet/alien_planet-79.jpg,null,,,,,,,,,,,,,79,"14,50,32,79,9,24,43,2,27,63,31,71,69,55,42,73,21,40,22,47,33,51,67,72,52,26,12,1,23,37,76,49,30,25,75",,,,,,,,,,
land,100,426729,0.0-33.0-2.0,"""event"",""trial"",""time""
""fullscreenenter"",""1"",""14469""
""blur"",""12"",""87343""
""focus"",""12"",""88645""
","""event"",""trial"",""time""
""blur"",""12"",""87343""
","""event"",""trial"",""time""
""focus"",""12"",""88645""
","""event"",""trial"",""time""
""fullscreenenter"",""1"",""14469""
","
",,null,run_exp/static/images/task_images/land.jpg,null,,,,,,,98,,,4,,,,,,,,,,,,,,
dig,101,428732,0.0-33.0-3.0,"""event"",""trial"",""time""
""fullscreenenter"",""1"",""14469""
""blur"",""12"",""87343""
""focus"",""12"",""88645""
","""event"",""trial"",""time""
""blur"",""12"",""87343""
","""event"",""trial"",""time""
""focus"",""12"",""88645""
","""event"",""trial"",""time""
""fullscreenenter"",""1"",""14469""
","
",,,,,,,,,,,,"[{""stimulus"":""run_exp/static/images/task_images/dig.jpg"",""time"":0.19999998807907104},{""stimulus"":""run_exp/static/images/task_images/land.jpg"",""time"":668.2999999821186},{""stimulus"":""run_exp/static/images/task_images/dig.jpg"",""time"":1335.5999999940395}]",[],4,,,,,,,,,,,,,,
harvest,102,429734,0.0-33.0-4.0,"""event"",""trial"",""time""
""fullscreenenter"",""1"",""14469""
""blur"",""12"",""87343""
""focus"",""12"",""88645""
","""event"",""trial"",""time""
""blur"",""12"",""87343""
","""event"",""trial"",""time""
""focus"",""12"",""88645""
","""event"",""trial"",""time""
""fullscreenenter"",""1"",""14469""
","
",,null,run_exp/static/images/task_images/gems/98.jpg,null,,,,,,,48,,,4,,,,,98,0.489017181,0.489795918,,,,,,,
decision,103,430019,0.0-33.0-5.0,"""event"",""trial"",""time""
""fullscreenenter"",""1"",""14469""
""blur"",""12"",""87343""
""focus"",""12"",""88645""
","""event"",""trial"",""time""
""blur"",""12"",""87343""
","""event"",""trial"",""time""
""focus"",""12"",""88645""
","""event"",""trial"",""time""
""fullscreenenter"",""1"",""14469""
","
",,284.7,run_exp/static/images/task_images/land.jpg,65,,,,,,,48,,,4,,,,,,,,92384,1,0,FALSE,,,
dig,104,432738,0.0-34.0-0.0,"""event"",""trial"",""time""
""fullscreenenter"",""1"",""14469""
""blur"",""12"",""87343""
""focus"",""12"",""88645""
","""event"",""trial"",""time""
""blur"",""12"",""87343""
","""event"",""trial"",""time""
""focus"",""12"",""88645""
","""event"",""trial"",""time""
""fullscreenenter"",""1"",""14469""
","
",,,,,,,,,,,,"[{""stimulus"":""run_exp/static/images/task_images/dig.jpg"",""time"":0.30000001192092896},{""stimulus"":""run_exp/static/images/task_images/land.jpg"",""time"":907.5999999940395},{""stimulus"":""run_exp/static/images/task_images/dig.jpg"",""time"":1811.4000000059605}]",[],4,,,,,,,,,,,,,,
harvest,105,433740,0.0-34.0-1.0,"""event"",""trial"",""time""
""fullscreenenter"",""1"",""14469""
""blur"",""12"",""87343""
""focus"",""12"",""88645""
","""event"",""trial"",""time""
""blur"",""12"",""87343""
","""event"",""trial"",""time""
""focus"",""12"",""88645""
","""event"",""trial"",""time""
""fullscreenenter"",""1"",""14469""
","
",,null,run_exp/static/images/task_images/gems/48.jpg,null,,,,,,,24,,,4,,,,,48,0.500681252,0.5,,,,,,,
decision,106,434236,0.0-34.0-2.0,"""event"",""trial"",""time""
""fullscreenenter"",""1"",""14469""
""blur"",""12"",""87343""
""focus"",""12"",""88645""
","""event"",""trial"",""time""
""blur"",""12"",""87343""
","""event"",""trial"",""time""
""focus"",""12"",""88645""
","""event"",""trial"",""time""
""fullscreenenter"",""1"",""14469""
","
",,494.6,run_exp/static/images/task_images/land.jpg,65,,,,,,,24,,,4,,,,,,,,96601,1,1,FALSE,,,
dig,107,436745,0.0-35.0-0.0,"""event"",""trial"",""time""
""fullscreenenter"",""1"",""14469""
""blur"",""12"",""87343""
""focus"",""12"",""88645""
","""event"",""trial"",""time""
""blur"",""12"",""87343""
","""event"",""trial"",""time""
""focus"",""12"",""88645""
","""event"",""trial"",""time""
""fullscreenenter"",""1"",""14469""
","
",,,,,,,,,,,,"[{""stimulus"":""run_exp/static/images/task_images/dig.jpg"",""time"":0},{""stimulus"":""run_exp/static/images/task_images/land.jpg"",""time"":836.3000000119209},{""stimulus"":""run_exp/static/images/task_images/dig.jpg"",""time"":1671.300000011921}]",[],4,,,,,,,,,,,,,,
harvest,108,437748,0.0-35.0-1.0,"""event"",""trial"",""time""
""fullscreenenter"",""1"",""14469""
""blur"",""12"",""87343""
""focus"",""12"",""88645""
","""event"",""trial"",""time""
""blur"",""12"",""87343""
","""event"",""trial"",""time""
""focus"",""12"",""88645""
","""event"",""trial"",""time""
""fullscreenenter"",""1"",""14469""
","
",,null,run_exp/static/images/task_images/gems/24.jpg,null,,,,,,,12,,,4,,,,,24,0.4961877,0.5,,,,,,,
decision,109,438248,0.0-35.0-2.0,"""event"",""trial"",""time""
""fullscreenenter"",""1"",""14469""
""blur"",""12"",""87343""
""focus"",""12"",""88645""
","""event"",""trial"",""time""
""blur"",""12"",""87343""
","""event"",""trial"",""time""
""focus"",""12"",""88645""
","""event"",""trial"",""time""
""fullscreenenter"",""1"",""14469""
","
",,498.7,run_exp/static/images/task_images/land.jpg,65,,,,,,,12,,,4,,,,,,,,100613,1,2,FALSE,,,
dig,110,440753,0.0-36.0-0.0,"""event"",""trial"",""time""
""fullscreenenter"",""1"",""14469""
""blur"",""12"",""87343""
""focus"",""12"",""88645""
","""event"",""trial"",""time""
""blur"",""12"",""87343""
","""event"",""trial"",""time""
""focus"",""12"",""88645""
","""event"",""trial"",""time""
""fullscreenenter"",""1"",""14469""
","
",,,,,,,,,,,,"[{""stimulus"":""run_exp/static/images/task_images/dig.jpg"",""time"":0.30000001192092896},{""stimulus"":""run_exp/static/images/task_images/land.jpg"",""time"":834.7000000178814},{""stimulus"":""run_exp/static/images/task_images/dig.jpg"",""time"":1668.0999999940395}]",[],4,,,,,,,,,,,,,,
harvest,111,441754,0.0-36.0-1.0,"""event"",""trial"",""time""
""fullscreenenter"",""1"",""14469""
""blur"",""12"",""87343""
""focus"",""12"",""88645""
","""event"",""trial"",""time""
""blur"",""12"",""87343""
","""event"",""trial"",""time""
""focus"",""12"",""88645""
","""event"",""trial"",""time""
""fullscreenenter"",""1"",""14469""
","
",,null,run_exp/static/images/task_images/gems/12.jpg,null,,,,,,,5,,,4,,,,,12,0.428281884,0.416666667,,,,,,,
decision,112,443478,0.0-36.0-2.0,"""event"",""trial"",""time""
""fullscreenenter"",""1"",""14469""
""blur"",""12"",""87343""
""focus"",""12"",""88645""
","""event"",""trial"",""time""
""blur"",""12"",""87343""
","""event"",""trial"",""time""
""focus"",""12"",""88645""
","""event"",""trial"",""time""
""fullscreenenter"",""1"",""14469""
","
",,1722.4,run_exp/static/images/task_images/land.jpg,76,,,,,,,5,,,4,,,,,,,,105843,1,3,TRUE,,,
travel,113,451754,0.0-37.0-0.0,"""event"",""trial"",""time""
""fullscreenenter"",""1"",""14469""
""blur"",""12"",""87343""
""focus"",""12"",""88645""
","""event"",""trial"",""time""
""blur"",""12"",""87343""
","""event"",""trial"",""time""
""focus"",""12"",""88645""
","""event"",""trial"",""time""
""fullscreenenter"",""1"",""14469""
","
",,,,,,,,,,,,"[{""stimulus"":""run_exp/static/images/task_images/rocket-01.jpg"",""time"":0.29999998211860657},{""stimulus"":""run_exp/static/images/task_images/rocket-02.jpg"",""time"":920.6999999880791},{""stimulus"":""run_exp/static/images/task_images/rocket-03.jpg"",""time"":1840.5},{""stimulus"":""run_exp/static/images/task_images/rocket-04.jpg"",""time"":2758.199999988079},{""stimulus"":""run_exp/static/images/task_images/rocket-05.jpg"",""time"":3678},{""stimulus"":""run_exp/static/images/task_images/rocket-06.jpg"",""time"":4597},{""stimulus"":""run_exp/static/images/task_images/rocket-07.jpg"",""time"":5516.5999999940395},{""stimulus"":""run_exp/static/images/task_images/rocket-08.jpg"",""time"":6434.5999999940395},{""stimulus"":""run_exp/static/images/task_images/rocket-09.jpg"",""time"":7353.399999976158}]",[],4,,,,,,,,,,,,,,
alien_welcome,114,456756,0.0-37.0-1.0,"""event"",""trial"",""time""
""fullscreenenter"",""1"",""14469""
""blur"",""12"",""87343""
""focus"",""12"",""88645""
","""event"",""trial"",""time""
""blur"",""12"",""87343""
","""event"",""trial"",""time""
""focus"",""12"",""88645""
","""event"",""trial"",""time""
""fullscreenenter"",""1"",""14469""
","
",,null,run_exp/static/images/task_images/aliens/old_aliens/planet/alien_planet-9.jpg,null,,,,,,,,,,,,,9,"14,50,32,79,9,24,43,2,27,63,31,71,69,55,42,73,21,40,22,47,33,51,67,72,52,26,12,1,23,37,76,49,30,25,75",,,,,,,,,,
land,115,457258,0.0-37.0-2.0,"""event"",""trial"",""time""
""fullscreenenter"",""1"",""14469""
""blur"",""12"",""87343""
""focus"",""12"",""88645""
","""event"",""trial"",""time""
""blur"",""12"",""87343""
","""event"",""trial"",""time""
""focus"",""12"",""88645""
","""event"",""trial"",""time""
""fullscreenenter"",""1"",""14469""
","
",,null,run_exp/static/images/task_images/land.jpg,null,,,,,,,105,,,5,,,,,,,,,,,,,,
dig,116,459262,0.0-37.0-3.0,"""event"",""trial"",""time""
""fullscreenenter"",""1"",""14469""
""blur"",""12"",""87343""
""focus"",""12"",""88645""
","""event"",""trial"",""time""
""blur"",""12"",""87343""
","""event"",""trial"",""time""
""focus"",""12"",""88645""
","""event"",""trial"",""time""
""fullscreenenter"",""1"",""14469""
","
",,,,,,,,,,,,"[{""stimulus"":""run_exp/static/images/task_images/dig.jpg"",""time"":0.29999998211860657},{""stimulus"":""run_exp/static/images/task_images/land.jpg"",""time"":669},{""stimulus"":""run_exp/static/images/task_images/dig.jpg"",""time"":1336.199999988079}]",[],5,,,,,,,,,,,,,,
harvest,117,460264,0.0-37.0-4.0,"""event"",""trial"",""time""
""fullscreenenter"",""1"",""14469""
""blur"",""12"",""87343""
""focus"",""12"",""88645""
","""event"",""trial"",""time""
""blur"",""12"",""87343""
","""event"",""trial"",""time""
""focus"",""12"",""88645""
","""event"",""trial"",""time""
""fullscreenenter"",""1"",""14469""
","
",,null,run_exp/static/images/task_images/gems/105.jpg,null,,,,,,,52,,,5,,,,,105,0.490513809,0.495238095,,,,,,,
decision,118,460553,0.0-37.0-5.0,"""event"",""trial"",""time""
""fullscreenenter"",""1"",""14469""
""blur"",""12"",""87343""
""focus"",""12"",""88645""
","""event"",""trial"",""time""
""blur"",""12"",""87343""
","""event"",""trial"",""time""
""focus"",""12"",""88645""
","""event"",""trial"",""time""
""fullscreenenter"",""1"",""14469""
","
",,287.3,run_exp/static/images/task_images/land.jpg,65,,,,,,,52,,,5,,,,,,,,122918,1,0,FALSE,,,
dig,119,463269,0.0-38.0-0.0,"""event"",""trial"",""time""
""fullscreenenter"",""1"",""14469""
""blur"",""12"",""87343""
""focus"",""12"",""88645""
","""event"",""trial"",""time""
""blur"",""12"",""87343""
","""event"",""trial"",""time""
""focus"",""12"",""88645""
","""event"",""trial"",""time""
""fullscreenenter"",""1"",""14469""
","
",,,,,,,,,,,,"[{""stimulus"":""run_exp/static/images/task_images/dig.jpg"",""time"":0.19999998807907104},{""stimulus"":""run_exp/static/images/task_images/land.jpg"",""time"":906},{""stimulus"":""run_exp/static/images/task_images/dig.jpg"",""time"":1815}]",[],5,,,,,,,,,,,,,,
harvest,120,464271,0.0-38.0-1.0,"""event"",""trial"",""time""
""fullscreenenter"",""1"",""14469""
""blur"",""12"",""87343""
""focus"",""12"",""88645""
","""event"",""trial"",""time""
""blur"",""12"",""87343""
","""event"",""trial"",""time""
""focus"",""12"",""88645""
","""event"",""trial"",""time""
""fullscreenenter"",""1"",""14469""
","
",,null,run_exp/static/images/task_images/gems/52.jpg,null,,,,,,,25,,,5,,,,,52,0.489014407,0.480769231,,,,,,,
decision,121,464550,0.0-38.0-2.0,"""event"",""trial"",""time""
""fullscreenenter"",""1"",""14469""
""blur"",""12"",""87343""
""focus"",""12"",""88645""
","""event"",""trial"",""time""
""blur"",""12"",""87343""
","""event"",""trial"",""time""
""focus"",""12"",""88645""
","""event"",""trial"",""time""
""fullscreenenter"",""1"",""14469""
","
",,277.3,run_exp/static/images/task_images/land.jpg,65,,,,,,,25,,,5,,,,,,,,126915,1,1,FALSE,,,
dig,122,467275,0.0-39.0-0.0,"""event"",""trial"",""time""
""fullscreenenter"",""1"",""14469""
""blur"",""12"",""87343""
""focus"",""12"",""88645""
","""event"",""trial"",""time""
""blur"",""12"",""87343""
","""event"",""trial"",""time""
""focus"",""12"",""88645""
","""event"",""trial"",""time""
""fullscreenenter"",""1"",""14469""
","
",,,,,,,,,,,,"[{""stimulus"":""run_exp/static/images/task_images/dig.jpg"",""time"":0.09999999403953552},{""stimulus"":""run_exp/static/images/task_images/land.jpg"",""time"":908.1999999880791},{""stimulus"":""run_exp/static/images/task_images/dig.jpg"",""time"":1823.3999999761581}]",[],5,,,,,,,,,,,,,,
harvest,123,468277,0.0-39.0-1.0,"""event"",""trial"",""time""
""fullscreenenter"",""1"",""14469""
""blur"",""12"",""87343""
""focus"",""12"",""88645""
","""event"",""trial"",""time""
""blur"",""12"",""87343""
","""event"",""trial"",""time""
""focus"",""12"",""88645""
","""event"",""trial"",""time""
""fullscreenenter"",""1"",""14469""
","
",,null,run_exp/static/images/task_images/gems/25.jpg,null,,,,,,,11,,,5,,,,,25,0.427482958,0.44,,,,,,,
decision,124,468748,0.0-39.0-2.0,"""event"",""trial"",""time""
""fullscreenenter"",""1"",""14469""
""blur"",""12"",""87343""
""focus"",""12"",""88645""
","""event"",""trial"",""time""
""blur"",""12"",""87343""
","""event"",""trial"",""time""
""focus"",""12"",""88645""
","""event"",""trial"",""time""
""fullscreenenter"",""1"",""14469""
","
",,468.7,run_exp/static/images/task_images/land.jpg,65,,,,,,,11,,,5,,,,,,,,131113,1,2,FALSE,,,
dig,125,471280,0.0-40.0-0.0,"""event"",""trial"",""time""
""fullscreenenter"",""1"",""14469""
""blur"",""12"",""87343""
""focus"",""12"",""88645""
","""event"",""trial"",""time""
""blur"",""12"",""87343""
","""event"",""trial"",""time""
""focus"",""12"",""88645""
","""event"",""trial"",""time""
""fullscreenenter"",""1"",""14469""
","
",,,,,,,,,,,,"[{""stimulus"":""run_exp/static/images/task_images/dig.jpg"",""time"":0.19999998807907104},{""stimulus"":""run_exp/static/images/task_images/land.jpg"",""time"":844.5999999940395},{""stimulus"":""run_exp/static/images/task_images/dig.jpg"",""time"":1687.2999999821186}]",[],5,,,,,,,,,,,,,,
harvest,126,472282,0.0-40.0-1.0,"""event"",""trial"",""time""
""fullscreenenter"",""1"",""14469""
""blur"",""12"",""87343""
""focus"",""12"",""88645""
","""event"",""trial"",""time""
""blur"",""12"",""87343""
","""event"",""trial"",""time""
""focus"",""12"",""88645""
","""event"",""trial"",""time""
""fullscreenenter"",""1"",""14469""
","
",,null,run_exp/static/images/task_images/gems/11.jpg,null,,,,,,,6,,,5,,,,,11,0.504561627,0.545454545,,,,,,,
decision,127,472535,0.0-40.0-2.0,"""event"",""trial"",""time""
""fullscreenenter"",""1"",""14469""
""blur"",""12"",""87343""
""focus"",""12"",""88645""
","""event"",""trial"",""time""
""blur"",""12"",""87343""
","""event"",""trial"",""time""
""focus"",""12"",""88645""
","""event"",""trial"",""time""
""fullscreenenter"",""1"",""14469""
","
",,251.6,run_exp/static/images/task_images/land.jpg,76,,,,,,,6,,,5,,,,,,,,134900,1,3,TRUE,,,
travel,128,482288,0.0-41.0-0.0,"""event"",""trial"",""time""
""fullscreenenter"",""1"",""14469""
""blur"",""12"",""87343""
""focus"",""12"",""88645""
","""event"",""trial"",""time""
""blur"",""12"",""87343""
","""event"",""trial"",""time""
""focus"",""12"",""88645""
","""event"",""trial"",""time""
""fullscreenenter"",""1"",""14469""
","
",,,,,,,,,,,,"[{""stimulus"":""run_exp/static/images/task_images/rocket-01.jpg"",""time"":0.19999998807907104},{""stimulus"":""run_exp/static/images/task_images/rocket-02.jpg"",""time"":1084.699999988079},{""stimulus"":""run_exp/static/images/task_images/rocket-03.jpg"",""time"":2168.7999999821186},{""stimulus"":""run_exp/static/images/task_images/rocket-04.jpg"",""time"":3250.0999999940395},{""stimulus"":""run_exp/static/images/task_images/rocket-05.jpg"",""time"":4333.699999988079},{""stimulus"":""run_exp/static/images/task_images/rocket-06.jpg"",""time"":5416.899999976158},{""stimulus"":""run_exp/static/images/task_images/rocket-07.jpg"",""time"":6499.799999982119},{""stimulus"":""run_exp/static/images/task_images/rocket-08.jpg"",""time"":7582.399999976158},{""stimulus"":""run_exp/static/images/task_images/rocket-09.jpg"",""time"":8666}]",[],5,,,,,,,,,,,,,,
alien_welcome,129,487305,0.0-41.0-1.0,"""event"",""trial"",""time""
""fullscreenenter"",""1"",""14469""
""blur"",""12"",""87343""
""focus"",""12"",""88645""
","""event"",""trial"",""time""
""blur"",""12"",""87343""
","""event"",""trial"",""time""
""focus"",""12"",""88645""
","""event"",""trial"",""time""
""fullscreenenter"",""1"",""14469""
","
",,null,run_exp/static/images/task_images/aliens/old_aliens/planet/alien_planet-24.jpg,null,,,,,,,,,,,,,24,"14,50,32,79,9,24,43,2,27,63,31,71,69,55,42,73,21,40,22,47,33,51,67,72,52,26,12,1,23,37,76,49,30,25,75",,,,,,,,,,
land,130,487807,0.0-41.0-2.0,"""event"",""trial"",""time""
""fullscreenenter"",""1"",""14469""
""blur"",""12"",""87343""
""focus"",""12"",""88645""
","""event"",""trial"",""time""
""blur"",""12"",""87343""
","""event"",""trial"",""time""
""focus"",""12"",""88645""
","""event"",""trial"",""time""
""fullscreenenter"",""1"",""14469""
","
",,null,run_exp/static/images/task_images/land.jpg,null,,,,,,,100,,,6,,,,,,,,,,,,,,
dig,131,489811,0.0-41.0-3.0,"""event"",""trial"",""time""
""fullscreenenter"",""1"",""14469""
""blur"",""12"",""87343""
""focus"",""12"",""88645""
","""event"",""trial"",""time""
""blur"",""12"",""87343""
","""event"",""trial"",""time""
""focus"",""12"",""88645""
","""event"",""trial"",""time""
""fullscreenenter"",""1"",""14469""
","
",,,,,,,,,,,,"[{""stimulus"":""run_exp/static/images/task_images/dig.jpg"",""time"":0.19999998807907104},{""stimulus"":""run_exp/static/images/task_images/land.jpg"",""time"":668.6999999880791},{""stimulus"":""run_exp/static/images/task_images/dig.jpg"",""time"":1336.0999999940395}]",[],6,,,,,,,,,,,,,,
harvest,132,490812,0.0-41.0-4.0,"""event"",""trial"",""time""
""fullscreenenter"",""1"",""14469""
""blur"",""12"",""87343""
""focus"",""12"",""88645""
","""event"",""trial"",""time""
""blur"",""12"",""87343""
","""event"",""trial"",""time""
""focus"",""12"",""88645""
","""event"",""trial"",""time""
""fullscreenenter"",""1"",""14469""
","
",,null,run_exp/static/images/task_images/gems/100.jpg,null,,,,,,,73,,,6,,,,,100,0.72960852,0.73,,,,,,,
decision,133,491303,0.0-41.0-5.0,"""event"",""trial"",""time""
""fullscreenenter"",""1"",""14469""
""blur"",""12"",""87343""
""focus"",""12"",""88645""
","""event"",""trial"",""time""
""blur"",""12"",""87343""
","""event"",""trial"",""time""
""focus"",""12"",""88645""
","""event"",""trial"",""time""
""fullscreenenter"",""1"",""14469""
","
",,489,run_exp/static/images/task_images/land.jpg,65,,,,,,,73,,,6,,,,,,,,153668,1,0,FALSE,,,
dig,134,493819,0.0-42.0-0.0,"""event"",""trial"",""time""
""fullscreenenter"",""1"",""14469""
""blur"",""12"",""87343""
""focus"",""12"",""88645""
","""event"",""trial"",""time""
""blur"",""12"",""87343""
","""event"",""trial"",""time""
""focus"",""12"",""88645""
","""event"",""trial"",""time""
""fullscreenenter"",""1"",""14469""
","
",,,,,,,,,,,,"[{""stimulus"":""run_exp/static/images/task_images/dig.jpg"",""time"":0.19999998807907104},{""stimulus"":""run_exp/static/images/task_images/land.jpg"",""time"":838.2999999821186},{""stimulus"":""run_exp/static/images/task_images/dig.jpg"",""time"":1686.2999999821186}]",[],6,,,,,,,,,,,,,,
harvest,135,494821,0.0-42.0-1.0,"""event"",""trial"",""time""
""fullscreenenter"",""1"",""14469""
""blur"",""12"",""87343""
""focus"",""12"",""88645""
","""event"",""trial"",""time""
""blur"",""12"",""87343""
","""event"",""trial"",""time""
""focus"",""12"",""88645""
","""event"",""trial"",""time""
""fullscreenenter"",""1"",""14469""
","
",,null,run_exp/static/images/task_images/gems/73.jpg,null,,,,,,,61,,,6,,,,,73,0.839357201,0.835616438,,,,,,,
decision,136,495249,0.0-42.0-2.0,"""event"",""trial"",""time""
""fullscreenenter"",""1"",""14469""
""blur"",""12"",""87343""
""focus"",""12"",""88645""
","""event"",""trial"",""time""
""blur"",""12"",""87343""
","""event"",""trial"",""time""
""focus"",""12"",""88645""
","""event"",""trial"",""time""
""fullscreenenter"",""1"",""14469""
","
",,426.7,run_exp/static/images/task_images/land.jpg,65,,,,,,,61,,,6,,,,,,,,157614,1,1,FALSE,,,
dig,137,497824,0.0-43.0-0.0,"""event"",""trial"",""time""
""fullscreenenter"",""1"",""14469""
""blur"",""12"",""87343""
""focus"",""12"",""88645""
","""event"",""trial"",""time""
""blur"",""12"",""87343""
","""event"",""trial"",""time""
""focus"",""12"",""88645""
","""event"",""trial"",""time""
""fullscreenenter"",""1"",""14469""
","
",,,,,,,,,,,,"[{""stimulus"":""run_exp/static/images/task_images/dig.jpg"",""time"":0.09999999403953552},{""stimulus"":""run_exp/static/images/task_images/land.jpg"",""time"":858.6999999880791},{""stimulus"":""run_exp/static/images/task_images/dig.jpg"",""time"":1715.4000000059605}]",[],6,,,,,,,,,,,,,,
harvest,138,498826,0.0-43.0-1.0,"""event"",""trial"",""time""
""fullscreenenter"",""1"",""14469""
""blur"",""12"",""87343""
""focus"",""12"",""88645""
","""event"",""trial"",""time""
""blur"",""12"",""87343""
","""event"",""trial"",""time""
""focus"",""12"",""88645""
","""event"",""trial"",""time""
""fullscreenenter"",""1"",""14469""
","
",,null,run_exp/static/images/task_images/gems/61.jpg,null,,,,,,,53,,,6,,,,,61,0.870457449,0.868852459,,,,,,,
decision,139,499349,0.0-43.0-2.0,"""event"",""trial"",""time""
""fullscreenenter"",""1"",""14469""
""blur"",""12"",""87343""
""focus"",""12"",""88645""
","""event"",""trial"",""time""
""blur"",""12"",""87343""
","""event"",""trial"",""time""
""focus"",""12"",""88645""
","""event"",""trial"",""time""
""fullscreenenter"",""1"",""14469""
","
",,522.1,run_exp/static/images/task_images/land.jpg,65,,,,,,,53,,,6,,,,,,,,161714,1,2,FALSE,,,
dig,140,501827,0.0-44.0-0.0,"""event"",""trial"",""time""
""fullscreenenter"",""1"",""14469""
""blur"",""12"",""87343""
""focus"",""12"",""88645""
","""event"",""trial"",""time""
""blur"",""12"",""87343""
","""event"",""trial"",""time""
""focus"",""12"",""88645""
","""event"",""trial"",""time""
""fullscreenenter"",""1"",""14469""
","
",,,,,,,,,,,,"[{""stimulus"":""run_exp/static/images/task_images/dig.jpg"",""time"":0.20000001788139343},{""stimulus"":""run_exp/static/images/task_images/land.jpg"",""time"":825.8000000119209},{""stimulus"":""run_exp/static/images/task_images/dig.jpg"",""time"":1651.300000011921}]",[],6,,,,,,,,,,,,,,
harvest,141,502830,0.0-44.0-1.0,"""event"",""trial"",""time""
""fullscreenenter"",""1"",""14469""
""blur"",""12"",""87343""
""focus"",""12"",""88645""
","""event"",""trial"",""time""
""blur"",""12"",""87343""
","""event"",""trial"",""time""
""focus"",""12"",""88645""
","""event"",""trial"",""time""
""fullscreenenter"",""1"",""14469""
","
",,null,run_exp/static/images/task_images/gems/53.jpg,null,,,,,,,42,,,6,,,,,53,0.78617203,0.79245283,,,,,,,
decision,142,503136,0.0-44.0-2.0,"""event"",""trial"",""time""
""fullscreenenter"",""1"",""14469""
""blur"",""12"",""87343""
""focus"",""12"",""88645""
","""event"",""trial"",""time""
""blur"",""12"",""87343""
","""event"",""trial"",""time""
""focus"",""12"",""88645""
","""event"",""trial"",""time""
""fullscreenenter"",""1"",""14469""
","
",,304.5,run_exp/static/images/task_images/land.jpg,65,,,,,,,42,,,6,,,,,,,,165501,1,3,FALSE,,,
dig,143,505834,0.0-45.0-0.0,"""event"",""trial"",""time""
""fullscreenenter"",""1"",""14469""
""blur"",""12"",""87343""
""focus"",""12"",""88645""
","""event"",""trial"",""time""
""blur"",""12"",""87343""
","""event"",""trial"",""time""
""focus"",""12"",""88645""
","""event"",""trial"",""time""
""fullscreenenter"",""1"",""14469""
","
",,,,,,,,,,,,"[{""stimulus"":""run_exp/static/images/task_images/dig.jpg"",""time"":0.29999998211860657},{""stimulus"":""run_exp/static/images/task_images/land.jpg"",""time"":900.1999999880791},{""stimulus"":""run_exp/static/images/task_images/dig.jpg"",""time"":1797.5999999940395}]",[],6,,,,,,,,,,,,,,
harvest,144,506837,0.0-45.0-1.0,"""event"",""trial"",""time""
""fullscreenenter"",""1"",""14469""
""blur"",""12"",""87343""
""focus"",""12"",""88645""
","""event"",""trial"",""time""
""blur"",""12"",""87343""
","""event"",""trial"",""time""
""focus"",""12"",""88645""
","""event"",""trial"",""time""
""fullscreenenter"",""1"",""14469""
","
",,null,run_exp/static/images/task_images/gems/42.jpg,null,,,,,,,37,,,6,,,,,42,0.882042856,0.880952381,,,,,,,
decision,145,507351,0.0-45.0-2.0,"""event"",""trial"",""time""
""fullscreenenter"",""1"",""14469""
""blur"",""12"",""87343""
""focus"",""12"",""88645""
","""event"",""trial"",""time""
""blur"",""12"",""87343""
","""event"",""trial"",""time""
""focus"",""12"",""88645""
","""event"",""trial"",""time""
""fullscreenenter"",""1"",""14469""
","
",,513.2,run_exp/static/images/task_images/land.jpg,65,,,,,,,37,,,6,,,,,,,,169717,1,4,FALSE,,,
dig,146,509839,0.0-46.0-0.0,"""event"",""trial"",""time""
""fullscreenenter"",""1"",""14469""
""blur"",""12"",""87343""
""focus"",""12"",""88645""
","""event"",""trial"",""time""
""blur"",""12"",""87343""
","""event"",""trial"",""time""
""focus"",""12"",""88645""
","""event"",""trial"",""time""
""fullscreenenter"",""1"",""14469""
","
",,,,,,,,,,,,"[{""stimulus"":""run_exp/static/images/task_images/dig.jpg"",""time"":0.20000001788139343},{""stimulus"":""run_exp/static/images/task_images/land.jpg"",""time"":828.9000000059605},{""stimulus"":""run_exp/static/images/task_images/dig.jpg"",""time"":1657.300000011921}]",[],6,,,,,,,,,,,,,,
harvest,147,510840,0.0-46.0-1.0,"""event"",""trial"",""time""
""fullscreenenter"",""1"",""14469""
""blur"",""12"",""87343""
""focus"",""12"",""88645""
","""event"",""trial"",""time""
""blur"",""12"",""87343""
","""event"",""trial"",""time""
""focus"",""12"",""88645""
","""event"",""trial"",""time""
""fullscreenenter"",""1"",""14469""
","
",,null,run_exp/static/images/task_images/gems/37.jpg,null,,,,,,,32,,,6,,,,,37,0.875356161,0.864864865,,,,,,,
decision,148,511362,0.0-46.0-2.0,"""event"",""trial"",""time""
""fullscreenenter"",""1"",""14469""
""blur"",""12"",""87343""
""focus"",""12"",""88645""
","""event"",""trial"",""time""
""blur"",""12"",""87343""
","""event"",""trial"",""time""
""focus"",""12"",""88645""
","""event"",""trial"",""time""
""fullscreenenter"",""1"",""14469""
","
",,520.7,run_exp/static/images/task_images/land.jpg,65,,,,,,,32,,,6,,,,,,,,173727,1,5,FALSE,,,
dig,149,513844,0.0-47.0-0.0,"""event"",""trial"",""time""
""fullscreenenter"",""1"",""14469""
""blur"",""12"",""87343""
""focus"",""12"",""88645""
","""event"",""trial"",""time""
""blur"",""12"",""87343""
","""event"",""trial"",""time""
""focus"",""12"",""88645""
","""event"",""trial"",""time""
""fullscreenenter"",""1"",""14469""
","
",,,,,,,,,,,,"[{""stimulus"":""run_exp/static/images/task_images/dig.jpg"",""time"":0.09999999403953552},{""stimulus"":""run_exp/static/images/task_images/land.jpg"",""time"":827.0999999940395},{""stimulus"":""run_exp/static/images/task_images/dig.jpg"",""time"":1652.9000000059605}]",[],6,,,,,,,,,,,,,,
harvest,150,514845,0.0-47.0-1.0,"""event"",""trial"",""time""
""fullscreenenter"",""1"",""14469""
""blur"",""12"",""87343""
""focus"",""12"",""88645""
","""event"",""trial"",""time""
""blur"",""12"",""87343""
","""event"",""trial"",""time""
""focus"",""12"",""88645""
","""event"",""trial"",""time""
""fullscreenenter"",""1"",""14469""
","
",,null,run_exp/static/images/task_images/gems/32.jpg,null,,,,,,,23,,,6,,,,,32,0.708772893,0.71875,,,,,,,
decision,151,515753,0.0-47.0-2.0,"""event"",""trial"",""time""
""fullscreenenter"",""1"",""14469""
""blur"",""12"",""87343""
""focus"",""12"",""88645""
","""event"",""trial"",""time""
""blur"",""12"",""87343""
","""event"",""trial"",""time""
""focus"",""12"",""88645""
","""event"",""trial"",""time""
""fullscreenenter"",""1"",""14469""
","
",,907.2,run_exp/static/images/task_images/land.jpg,65,,,,,,,23,,,6,,,,,,,,178119,1,6,FALSE,,,
dig,152,517849,0.0-48.0-0.0,"""event"",""trial"",""time""
""fullscreenenter"",""1"",""14469""
""blur"",""12"",""87343""
""focus"",""12"",""88645""
","""event"",""trial"",""time""
""blur"",""12"",""87343""
","""event"",""trial"",""time""
""focus"",""12"",""88645""
","""event"",""trial"",""time""
""fullscreenenter"",""1"",""14469""
","
",,,,,,,,,,,,"[{""stimulus"":""run_exp/static/images/task_images/dig.jpg"",""time"":0.09999999403953552},{""stimulus"":""run_exp/static/images/task_images/land.jpg"",""time"":699},{""stimulus"":""run_exp/static/images/task_images/dig.jpg"",""time"":1395.5999999940395}]",[],6,,,,,,,,,,,,,,
harvest,153,518850,0.0-48.0-1.0,"""event"",""trial"",""time""
""fullscreenenter"",""1"",""14469""
""blur"",""12"",""87343""
""focus"",""12"",""88645""
","""event"",""trial"",""time""
""blur"",""12"",""87343""
","""event"",""trial"",""time""
""focus"",""12"",""88645""
","""event"",""trial"",""time""
""fullscreenenter"",""1"",""14469""
","
",,null,run_exp/static/images/task_images/gems/23.jpg,null,,,,,,,18,,,6,,,,,23,0.804194059,0.782608696,,,,,,,
decision,154,519383,0.0-48.0-2.0,"""event"",""trial"",""time""
""fullscreenenter"",""1"",""14469""
""blur"",""12"",""87343""
""focus"",""12"",""88645""
","""event"",""trial"",""time""
""blur"",""12"",""87343""
","""event"",""trial"",""time""
""focus"",""12"",""88645""
","""event"",""trial"",""time""
""fullscreenenter"",""1"",""14469""
","
",,531.7,run_exp/static/images/task_images/land.jpg,65,,,,,,,18,,,6,,,,,,,,181748,1,7,FALSE,,,
dig,155,521853,0.0-49.0-0.0,"""event"",""trial"",""time""
""fullscreenenter"",""1"",""14469""
""blur"",""12"",""87343""
""focus"",""12"",""88645""
","""event"",""trial"",""time""
""blur"",""12"",""87343""
","""event"",""trial"",""time""
""focus"",""12"",""88645""
","""event"",""trial"",""time""
""fullscreenenter"",""1"",""14469""
","
",,,,,,,,,,,,"[{""stimulus"":""run_exp/static/images/task_images/dig.jpg"",""time"":0.20000001788139343},{""stimulus"":""run_exp/static/images/task_images/land.jpg"",""time"":824.4000000059605},{""stimulus"":""run_exp/static/images/task_images/dig.jpg"",""time"":1645.5}]",[],6,,,,,,,,,,,,,,
harvest,156,522854,0.0-49.0-1.0,"""event"",""trial"",""time""
""fullscreenenter"",""1"",""14469""
""blur"",""12"",""87343""
""focus"",""12"",""88645""
","""event"",""trial"",""time""
""blur"",""12"",""87343""
","""event"",""trial"",""time""
""focus"",""12"",""88645""
","""event"",""trial"",""time""
""fullscreenenter"",""1"",""14469""
","
",,null,run_exp/static/images/task_images/gems/18.jpg,null,,,,,,,15,,,6,,,,,18,0.832550381,0.833333333,,,,,,,
decision,157,523213,0.0-49.0-2.0,"""event"",""trial"",""time""
""fullscreenenter"",""1"",""14469""
""blur"",""12"",""87343""
""focus"",""12"",""88645""
","""event"",""trial"",""time""
""blur"",""12"",""87343""
","""event"",""trial"",""time""
""focus"",""12"",""88645""
","""event"",""trial"",""time""
""fullscreenenter"",""1"",""14469""
","
",,357.4,run_exp/static/images/task_images/land.jpg,65,,,,,,,15,,,6,,,,,,,,185578,1,8,FALSE,,,
dig,158,525864,0.0-50.0-0.0,"""event"",""trial"",""time""
""fullscreenenter"",""1"",""14469""
""blur"",""12"",""87343""
""focus"",""12"",""88645""
","""event"",""trial"",""time""
""blur"",""12"",""87343""
","""event"",""trial"",""time""
""focus"",""12"",""88645""
","""event"",""trial"",""time""
""fullscreenenter"",""1"",""14469""
","
",,,,,,,,,,,,"[{""stimulus"":""run_exp/static/images/task_images/dig.jpg"",""time"":0.19999998807907104},{""stimulus"":""run_exp/static/images/task_images/land.jpg"",""time"":881.2999999821186},{""stimulus"":""run_exp/static/images/task_images/dig.jpg"",""time"":1762}]",[],6,,,,,,,,,,,,,,
harvest,159,526866,0.0-50.0-1.0,"""event"",""trial"",""time""
""fullscreenenter"",""1"",""14469""
""blur"",""12"",""87343""
""focus"",""12"",""88645""
","""event"",""trial"",""time""
""blur"",""12"",""87343""
","""event"",""trial"",""time""
""focus"",""12"",""88645""
","""event"",""trial"",""time""
""fullscreenenter"",""1"",""14469""
","
",,null,run_exp/static/images/task_images/gems/15.jpg,null,,,,,,,11,,,6,,,,,15,0.763189864,0.733333333,,,,,,,
decision,160,527384,0.0-50.0-2.0,"""event"",""trial"",""time""
""fullscreenenter"",""1"",""14469""
""blur"",""12"",""87343""
""focus"",""12"",""88645""
","""event"",""trial"",""time""
""blur"",""12"",""87343""
","""event"",""trial"",""time""
""focus"",""12"",""88645""
","""event"",""trial"",""time""
""fullscreenenter"",""1"",""14469""
","
",,517,run_exp/static/images/task_images/land.jpg,65,,,,,,,11,,,6,,,,,,,,189749,1,9,FALSE,,,
dig,161,529867,0.0-51.0-0.0,"""event"",""trial"",""time""
""fullscreenenter"",""1"",""14469""
""blur"",""12"",""87343""
""focus"",""12"",""88645""
","""event"",""trial"",""time""
""blur"",""12"",""87343""
","""event"",""trial"",""time""
""focus"",""12"",""88645""
","""event"",""trial"",""time""
""fullscreenenter"",""1"",""14469""
","
",,,,,,,,,,,,"[{""stimulus"":""run_exp/static/images/task_images/dig.jpg"",""time"":0.19999998807907104},{""stimulus"":""run_exp/static/images/task_images/land.jpg"",""time"":828.7999999821186},{""stimulus"":""run_exp/static/images/task_images/dig.jpg"",""time"":1655.2999999821186}]",[],6,,,,,,,,,,,,,,
harvest,162,530869,0.0-51.0-1.0,"""event"",""trial"",""time""
""fullscreenenter"",""1"",""14469""
""blur"",""12"",""87343""
""focus"",""12"",""88645""
","""event"",""trial"",""time""
""blur"",""12"",""87343""
","""event"",""trial"",""time""
""focus"",""12"",""88645""
","""event"",""trial"",""time""
""fullscreenenter"",""1"",""14469""
","
",,null,run_exp/static/images/task_images/gems/11.jpg,null,,,,,,,8,,,6,,,,,11,0.758322138,0.727272727,,,,,,,
decision,163,531747,0.0-51.0-2.0,"""event"",""trial"",""time""
""fullscreenenter"",""1"",""14469""
""blur"",""12"",""87343""
""focus"",""12"",""88645""
","""event"",""trial"",""time""
""blur"",""12"",""87343""
","""event"",""trial"",""time""
""focus"",""12"",""88645""
","""event"",""trial"",""time""
""fullscreenenter"",""1"",""14469""
","
",,875.9,run_exp/static/images/task_images/land.jpg,65,,,,,,,8,,,6,,,,,,,,194112,1,10,FALSE,,,
dig,164,533883,0.0-52.0-0.0,"""event"",""trial"",""time""
""fullscreenenter"",""1"",""14469""
""blur"",""12"",""87343""
""focus"",""12"",""88645""
","""event"",""trial"",""time""
""blur"",""12"",""87343""
","""event"",""trial"",""time""
""focus"",""12"",""88645""
","""event"",""trial"",""time""
""fullscreenenter"",""1"",""14469""
","
",,,,,,,,,,,,"[{""stimulus"":""run_exp/static/images/task_images/dig.jpg"",""time"":0.09999999403953552},{""stimulus"":""run_exp/static/images/task_images/land.jpg"",""time"":709.9000000059605},{""stimulus"":""run_exp/static/images/task_images/dig.jpg"",""time"":1417.9000000059605}]",[],6,,,,,,,,,,,,,,
harvest,165,534884,0.0-52.0-1.0,"""event"",""trial"",""time""
""fullscreenenter"",""1"",""14469""
""blur"",""12"",""87343""
""focus"",""12"",""88645""
","""event"",""trial"",""time""
""blur"",""12"",""87343""
","""event"",""trial"",""time""
""focus"",""12"",""88645""
","""event"",""trial"",""time""
""fullscreenenter"",""1"",""14469""
","
",,null,run_exp/static/images/task_images/gems/8.jpg,null,,,,,,,7,,,6,,,,,8,0.856463253,0.875,,,,,,,
decision,166,535214,0.0-52.0-2.0,"""event"",""trial"",""time""
""fullscreenenter"",""1"",""14469""
""blur"",""12"",""87343""
""focus"",""12"",""88645""
","""event"",""trial"",""time""
""blur"",""12"",""87343""
","""event"",""trial"",""time""
""focus"",""12"",""88645""
","""event"",""trial"",""time""
""fullscreenenter"",""1"",""14469""
","
",,328.8,run_exp/static/images/task_images/land.jpg,76,,,,,,,7,,,6,,,,,,,,197579,1,11,TRUE,,,
travel,167,544884,0.0-53.0-0.0,"""event"",""trial"",""time""
""fullscreenenter"",""1"",""14469""
""blur"",""12"",""87343""
""focus"",""12"",""88645""
","""event"",""trial"",""time""
""blur"",""12"",""87343""
","""event"",""trial"",""time""
""focus"",""12"",""88645""
","""event"",""trial"",""time""
""fullscreenenter"",""1"",""14469""
","
",,,,,,,,,,,,"[{""stimulus"":""run_exp/static/images/task_images/rocket-01.jpg"",""time"":0.20000001788139343},{""stimulus"":""run_exp/static/images/task_images/rocket-02.jpg"",""time"":1080.1000000238419},{""stimulus"":""run_exp/static/images/task_images/rocket-03.jpg"",""time"":2150.2000000178814},{""stimulus"":""run_exp/static/images/task_images/rocket-04.jpg"",""time"":3232.600000023842},{""stimulus"":""run_exp/static/images/task_images/rocket-05.jpg"",""time"":4297.200000017881},{""stimulus"":""run_exp/static/images/task_images/rocket-06.jpg"",""time"":5371.600000023842},{""stimulus"":""run_exp/static/images/task_images/rocket-07.jpg"",""time"":6445.300000011921},{""stimulus"":""run_exp/static/images/task_images/rocket-08.jpg"",""time"":7520},{""stimulus"":""run_exp/static/images/task_images/rocket-09.jpg"",""time"":8603.600000023842}]",[],6,,,,,,,,,,,,,,
alien_welcome,168,549887,0.0-53.0-1.0,"""event"",""trial"",""time""
""fullscreenenter"",""1"",""14469""
""blur"",""12"",""87343""
""focus"",""12"",""88645""
","""event"",""trial"",""time""
""blur"",""12"",""87343""
","""event"",""trial"",""time""
""focus"",""12"",""88645""
","""event"",""trial"",""time""
""fullscreenenter"",""1"",""14469""
","
",,null,run_exp/static/images/task_images/aliens/old_aliens/planet/alien_planet-43.jpg,null,,,,,,,,,,,,,43,"14,50,32,79,9,24,43,2,27,63,31,71,69,55,42,73,21,40,22,47,33,51,67,72,52,26,12,1,23,37,76,49,30,25,75",,,,,,,,,,
land,169,550390,0.0-53.0-2.0,"""event"",""trial"",""time""
""fullscreenenter"",""1"",""14469""
""blur"",""12"",""87343""
""focus"",""12"",""88645""
","""event"",""trial"",""time""
""blur"",""12"",""87343""
","""event"",""trial"",""time""
""focus"",""12"",""88645""
","""event"",""trial"",""time""
""fullscreenenter"",""1"",""14469""
","
",,null,run_exp/static/images/task_images/land.jpg,null,,,,,,,103,,,7,,,,,,,,,,,,,,
dig,170,552393,0.0-53.0-3.0,"""event"",""trial"",""time""
""fullscreenenter"",""1"",""14469""
""blur"",""12"",""87343""
""focus"",""12"",""88645""
","""event"",""trial"",""time""
""blur"",""12"",""87343""
","""event"",""trial"",""time""
""focus"",""12"",""88645""
","""event"",""trial"",""time""
""fullscreenenter"",""1"",""14469""
","
",,,,,,,,,,,,"[{""stimulus"":""run_exp/static/images/task_images/dig.jpg"",""time"":0.4000000059604645},{""stimulus"":""run_exp/static/images/task_images/land.jpg"",""time"":669.5},{""stimulus"":""run_exp/static/images/task_images/dig.jpg"",""time"":1336.300000011921}]",[],7,,,,,,,,,,,,,,
harvest,171,553395,0.0-53.0-4.0,"""event"",""trial"",""time""
""fullscreenenter"",""1"",""14469""
""blur"",""12"",""87343""
""focus"",""12"",""88645""
","""event"",""trial"",""time""
""blur"",""12"",""87343""
","""event"",""trial"",""time""
""focus"",""12"",""88645""
","""event"",""trial"",""time""
""fullscreenenter"",""1"",""14469""
","
",,null,run_exp/static/images/task_images/gems/103.jpg,null,,,,,,,81,,,7,,,,,103,0.788985705,0.786407767,,,,,,,
decision,172,553829,0.0-53.0-5.0,"""event"",""trial"",""time""
""fullscreenenter"",""1"",""14469""
""blur"",""12"",""87343""
""focus"",""12"",""88645""
","""event"",""trial"",""time""
""blur"",""12"",""87343""
","""event"",""trial"",""time""
""focus"",""12"",""88645""
","""event"",""trial"",""time""
""fullscreenenter"",""1"",""14469""
","
",,432.7,run_exp/static/images/task_images/land.jpg,65,,,,,,,81,,,7,,,,,,,,216194,1,0,FALSE,,,
dig,173,556401,0.0-54.0-0.0,"""event"",""trial"",""time""
""fullscreenenter"",""1"",""14469""
""blur"",""12"",""87343""
""focus"",""12"",""88645""
","""event"",""trial"",""time""
""blur"",""12"",""87343""
","""event"",""trial"",""time""
""focus"",""12"",""88645""
","""event"",""trial"",""time""
""fullscreenenter"",""1"",""14469""
","
",,,,,,,,,,,,"[{""stimulus"":""run_exp/static/images/task_images/dig.jpg"",""time"":0.19999998807907104},{""stimulus"":""run_exp/static/images/task_images/land.jpg"",""time"":856.2999999821186},{""stimulus"":""run_exp/static/images/task_images/dig.jpg"",""time"":1711.199999988079}]",[],7,,,,,,,,,,,,,,
harvest,174,557403,0.0-54.0-1.0,"""event"",""trial"",""time""
""fullscreenenter"",""1"",""14469""
""blur"",""12"",""87343""
""focus"",""12"",""88645""
","""event"",""trial"",""time""
""blur"",""12"",""87343""
","""event"",""trial"",""time""
""focus"",""12"",""88645""
","""event"",""trial"",""time""
""fullscreenenter"",""1"",""14469""
","
",,null,run_exp/static/images/task_images/gems/81.jpg,null,,,,,,,66,,,7,,,,,81,0.809763924,0.814814815,,,,,,,
decision,175,557813,0.0-54.0-2.0,"""event"",""trial"",""time""
""fullscreenenter"",""1"",""14469""
""blur"",""12"",""87343""
""focus"",""12"",""88645""
","""event"",""trial"",""time""
""blur"",""12"",""87343""
","""event"",""trial"",""time""
""focus"",""12"",""88645""
","""event"",""trial"",""time""
""fullscreenenter"",""1"",""14469""
","
",,409.7,run_exp/static/images/task_images/land.jpg,65,,,,,,,66,,,7,,,,,,,,220179,1,1,FALSE,,,
dig,176,560406,0.0-55.0-0.0,"""event"",""trial"",""time""
""fullscreenenter"",""1"",""14469""
""blur"",""12"",""87343""
""focus"",""12"",""88645""
","""event"",""trial"",""time""
