trial_type,trial_index,time_elapsed,internal_node_id,interactions,blur_events,focus_events,fullscreenenter_events,fullscreenexit_events,success,rt,stimulus,key_press,prompt,subject_id,participant_id,age,gender,button_pressed,next_reward,animation_sequence,responses,planet,curr_prac_trial,n_prac_rounds,alien,aliens,reward_received,decay_rate_actual,decay_rate_exp,time_in_block,block_num,prt,last_trial_on_planet,button_html,bonus,num_failures
pavlovia,0,5,0.0-0.0,"""event"",""trial"",""time""
""fullscreenenter"",""1"",""1893""
","
","
","""event"",""trial"",""time""
""fullscreenenter"",""1"",""1893""
","
",,,,,,,,,,,,,,,,,,,,,,,,,,,,
fullscreen,1,2894,0.0-1.0,"""event"",""trial"",""time""
""fullscreenenter"",""1"",""1893""
","
","
","""event"",""trial"",""time""
""fullscreenenter"",""1"",""1893""
","
",TRUE,,,,,,,,,,,,,,,,,,,,,,,,,,,
instruc_welcome,2,12707,0.0-2.0,"""event"",""trial"",""time""
""fullscreenenter"",""1"",""1893""
","
","
","""event"",""trial"",""time""
""fullscreenenter"",""1"",""1893""
","
",,null,run_exp/static/audio/clip_1_welcome.m4a,null,"<p>Howdy! In this experiment, you’ll be an explorer traveling through space to collect space treasure.</p><p>Your mission is to collect as much treasure as possible.</p><br><br><p><img src='run_exp/static/images/task_images/opening_img-01.jpg' height='300' width='auto'></p>",7827,3754,25.31,Female,,,,,,,,,,,,,,,,,,,
audio-keyboard-response,3,29307,0.0-3.0,"""event"",""trial"",""time""
""fullscreenenter"",""1"",""1893""
","
","
","""event"",""trial"",""time""
""fullscreenenter"",""1"",""1893""
","
",,null,run_exp/static/audio/clip_2_move.m4a,null,,,,,,,,,,,,,,,,,,,,,,,,
welcome_dec,4,33574,0.0-4.0,"""event"",""trial"",""time""
""fullscreenenter"",""1"",""1893""
","
","
","""event"",""trial"",""time""
""fullscreenenter"",""1"",""1893""
","
",,4261.6,"<p>Howdy! In this experiment, you’ll be an explorer traveling through space to collect space treasure.</p><p>Your mission is to collect as much treasure as possible.</p><br><br><p><img src='run_exp/static/images/task_images/opening_img-01.jpg' height='300' width='auto'></p>",,,,,,,1,,,,,,,,,,,,,,,,,,
html-keyboard-response,5,34798,0.0-5.0,"""event"",""trial"",""time""
""fullscreenenter"",""1"",""1893""
","
","
","""event"",""trial"",""time""
""fullscreenenter"",""1"",""1893""
","
",,1221.7,"<p>Howdy! In this experiment, you’ll be an explorer traveling through space to collect space treasure.</p><p>Your mission is to collect as much treasure as possible.</p><br><br><p><img src='run_exp/static/images/task_images/opening_img-01.jpg' height='300' width='auto'></p><button class=""jspsych-html-btn-unchosen""><img src=""run_exp/static/images/task_images/planet-01.jpg"" height=""50""></button><button class=""jspsych-html-btn-chosen""><img src=""run_exp/static/images/task_images/planet-02.jpg"" height=""50""></button><p><b>[press the space bar to lock in your answer]<b><br></p>",32,,,,,,,,,,,,,,,,,,,,,,,,
instruc_goal,6,44866,0.0-6.0-0.0,"""event"",""trial"",""time""
""fullscreenenter"",""1"",""1893""
","
","
","""event"",""trial"",""time""
""fullscreenenter"",""1"",""1893""
","
",,null,run_exp/static/audio/clip_3_goal.m4a,null,"<p> As a space explorer, you’ll visit different planets to dig for space treasure, these pink gems.</p> <p> The more treasure you dig up, the more bonus money you’ll win! </p><br><br><p><img src='run_exp/static/images/task_images/pink_gem.jpg' height='300' width='auto'></p>",,,,,,,,,,,,,,,,,,,,,,,
instruc_goal,7,47735,0.0-6.0-1.0,"""event"",""trial"",""time""
""fullscreenenter"",""1"",""1893""
","
","
","""event"",""trial"",""time""
""fullscreenenter"",""1"",""1893""
","
",,2865.3,"<p> As a space explorer, you’ll visit different planets to dig for space treasure, these pink gems.</p> <p> The more treasure you dig up, the more bonus money you’ll win! </p><br><br><p><img src='run_exp/static/images/task_images/pink_gem.jpg' height='300' width='auto'></p>",,,,,,,1,,,,,,,,,,,,,,,,,,
html-keyboard-response,8,48052,0.0-6.0-2.0,"""event"",""trial"",""time""
""fullscreenenter"",""1"",""1893""
","
","
","""event"",""trial"",""time""
""fullscreenenter"",""1"",""1893""
","
",,314.4,"<p> As a space explorer, you’ll visit different planets to dig for space treasure, these pink gems.</p> <p> The more treasure you dig up, the more bonus money you’ll win! </p><br><br><p><img src='run_exp/static/images/task_images/pink_gem.jpg' height='300' width='auto'></p><button class=""jspsych-html-btn-unchosen""><img src=""run_exp/static/images/task_images/planet-01.jpg"" height=""50""></button><button class=""jspsych-html-btn-chosen""><img src=""run_exp/static/images/task_images/planet-02.jpg"" height=""50""></button><p><b>[press the space bar to lock in your answer]<b><br></p>",32,,,,,,,,,,,,,,,,,,,,,,,,
instruc_dig,9,64065,0.0-7.0-0.0,"""event"",""trial"",""time""
""fullscreenenter"",""1"",""1893""
","
","
","""event"",""trial"",""time""
""fullscreenenter"",""1"",""1893""
","
",,null,run_exp/static/audio/clip_4_dig.m4a,null,,,,,,,100,,,,,,,,,,,,,,,,,
instruc_dig_try,10,64471,0.0-7.0-1.0,"""event"",""trial"",""time""
""fullscreenenter"",""1"",""1893""
","
","
","""event"",""trial"",""time""
""fullscreenenter"",""1"",""1893""
","
",,403.4,"<p> When you’ve arrived at a new planet, you will dig once. </p> <p>Then, you get to decide if you want to stay on the planet and dig again or travel to a new planet and dig there.</p> <p> To stay and dig, press the letter <strong>‘A’</strong> on your keyboard. Try pressing it now! </p><p><img src='run_exp/static/images/task_images/land.jpg'  height='700' width='auto'></p>",65,"<p> When you’ve arrived at a new planet, you will dig once. </p> <p>Then, you get to decide if you want to stay on the planet and dig again or travel to a new planet and dig there.</p> <p> To stay and dig, press the letter <strong>‘A’</strong> on your keyboard. Try pressing it now! </p><p><img src='run_exp/static/images/task_images/land.jpg'  height='700' width='auto'></p>",,,,,,100,,,,,,,,,,,,,,,,,
dig_prac,11,66573,0.0-7.0-2.0,"""event"",""trial"",""time""
""fullscreenenter"",""1"",""1893""
","
","
","""event"",""trial"",""time""
""fullscreenenter"",""1"",""1893""
","
",,,,,,,,,,,,"[{""stimulus"":""run_exp/static/images/task_images/dig.jpg"",""time"":0.5999999940395355},{""stimulus"":""run_exp/static/images/task_images/land.jpg"",""time"":685.2999999970198},{""stimulus"":""run_exp/static/images/task_images/dig.jpg"",""time"":1355.5}]",[],,,,,,,,,,,,,,,
instruc_travel,12,102824,0.0-7.0-3.0,"""event"",""trial"",""time""
""fullscreenenter"",""1"",""1893""
","
","
","""event"",""trial"",""time""
""fullscreenenter"",""1"",""1893""
","
",,null,run_exp/static/audio/clip_5_travel.m4a,null,"<p>Every time you dig up gems, there are less gems on the planet, so the more you dig on a planet the fewer gems you’ll get with each dig.</p><p>When gems are running low, you may want to travel to a new planet. </p> <p>  Planets are very far apart in this galaxy, so it will take some time to travel between them. </p> <br><p>There are lots and lots of planets for you to visit, so you won’t be able to return to any planets you’ve seen before. </p><br><p>To leave this planet and travel to a new one, press the letter <strong>‘L’</strong> on your keyboard. Try pressing it now! </p><p><img src='run_exp/static/images/task_images/rocket-01.jpg'  height='600' width='auto'></p>",,,,,,,,,,,,,,,,,,,,,,,
instruc_travel_try,13,103565,0.0-7.0-4.0,"""event"",""trial"",""time""
""fullscreenenter"",""1"",""1893""
","
","
","""event"",""trial"",""time""
""fullscreenenter"",""1"",""1893""
","
",,739.2,"<p>Every time you dig up gems, there are less gems on the planet, so the more you dig on a planet the fewer gems you’ll get with each dig.</p><p>When gems are running low, you may want to travel to a new planet. </p> <p>  Planets are very far apart in this galaxy, so it will take some time to travel between them. </p> <br><p>There are lots and lots of planets for you to visit, so you won’t be able to return to any planets you’ve seen before. </p><br><p>To leave this planet and travel to a new one, press the letter <strong>‘L’</strong> on your keyboard. Try pressing it now! </p><p><img src='run_exp/static/images/task_images/rocket-01.jpg'  height='600' width='auto'></p>",76,"<p>Every time you dig up gems, there are less gems on the planet, so the more you dig on a planet the fewer gems you’ll get with each dig.</p><p>When gems are running low, you may want to travel to a new planet. </p> <p>  Planets are very far apart in this galaxy, so it will take some time to travel between them. </p> <br><p>There are lots and lots of planets for you to visit, so you won’t be able to return to any planets you’ve seen before. </p><br><p>To leave this planet and travel to a new one, press the letter <strong>‘L’</strong> on your keyboard. Try pressing it now! </p><p><img src='run_exp/static/images/task_images/rocket-01.jpg'  height='600' width='auto'></p>",,,,,,,,,,,,,,,,,,,,,,,
travel_prac,14,113582,0.0-7.0-5.0,"""event"",""trial"",""time""
""fullscreenenter"",""1"",""1893""
","
","
","""event"",""trial"",""time""
""fullscreenenter"",""1"",""1893""
","
",,,,,,,,,,,,"[{""stimulus"":""run_exp/static/images/task_images/rocket-01.jpg"",""time"":0.4000000059604645},{""stimulus"":""run_exp/static/images/task_images/rocket-02.jpg"",""time"":1124.4000000059605},{""stimulus"":""run_exp/static/images/task_images/rocket-03.jpg"",""time"":2224.9000000059605},{""stimulus"":""run_exp/static/images/task_images/rocket-04.jpg"",""time"":3344.7999999970198},{""stimulus"":""run_exp/static/images/task_images/rocket-05.jpg"",""time"":4464.79999999702},{""stimulus"":""run_exp/static/images/task_images/rocket-06.jpg"",""time"":5565},{""stimulus"":""run_exp/static/images/task_images/rocket-07.jpg"",""time"":6684.5},{""stimulus"":""run_exp/static/images/task_images/rocket-08.jpg"",""time"":7784.5},{""stimulus"":""run_exp/static/images/task_images/rocket-09.jpg"",""time"":8904.70000000298}]",[],0,,,,,,,,,,,,,,
instruc_alien_greet,15,140774,0.0-7.0-6.0,"""event"",""trial"",""time""
""fullscreenenter"",""1"",""1893""
","
","
","""event"",""trial"",""time""
""fullscreenenter"",""1"",""1893""
","
",,null,run_exp/static/audio/clip_6_alien.m4a,null,"<p>When you arrive at a new planet, the alien who owns the treasure mine on that planet will greet you!</p><p>The better an alien takes care of their mine the easier it is to dig for gems. Some aliens take better care of their mine than others. So, you won’t get exactly the same amount of gems on each planet.</p><p>What the alien looks like does not tell you anything about how many gems there are on the planet.</p><br><p><img src=""run_exp/static/images/task_images/aliens/instructions_aliens/planet/alien_planet-1.jpg""  height=""600"" width=""auto""></p>",,,,,,,,,,,,,,,,,,,,,,,
instruc_alien_greet,16,143859,0.0-7.0-7.0,"""event"",""trial"",""time""
""fullscreenenter"",""1"",""1893""
","
","
","""event"",""trial"",""time""
""fullscreenenter"",""1"",""1893""
","
",,3083,"<p>When you arrive at a new planet, the alien who owns the treasure mine on that planet will greet you!</p><p>The better an alien takes care of their mine the easier it is to dig for gems. Some aliens take better care of their mine than others. So, you won’t get exactly the same amount of gems on each planet.</p><p>What the alien looks like does not tell you anything about how many gems there are on the planet.</p><br><p><img src=""run_exp/static/images/task_images/aliens/instructions_aliens/planet/alien_planet-1.jpg""  height=""600"" width=""auto""></p>",,,,,,,1,,,,,,,,,,,,,,,,,,
html-keyboard-response,17,144074,0.0-7.0-8.0,"""event"",""trial"",""time""
""fullscreenenter"",""1"",""1893""
","
","
","""event"",""trial"",""time""
""fullscreenenter"",""1"",""1893""
","
",,212.6,"<p>When you arrive at a new planet, the alien who owns the treasure mine on that planet will greet you!</p><p>The better an alien takes care of their mine the easier it is to dig for gems. Some aliens take better care of their mine than others. So, you won’t get exactly the same amount of gems on each planet.</p><p>What the alien looks like does not tell you anything about how many gems there are on the planet.</p><br><p><img src=""run_exp/static/images/task_images/aliens/instructions_aliens/planet/alien_planet-1.jpg""  height=""600"" width=""auto""></p><button class=""jspsych-html-btn-unchosen""><img src=""run_exp/static/images/task_images/planet-01.jpg"" height=""50""></button><button class=""jspsych-html-btn-chosen""><img src=""run_exp/static/images/task_images/planet-02.jpg"" height=""50""></button><p><b>[press the space bar to lock in your answer]<b><br></p>",32,,,,,,,,,,,,,,,,,,,,,,,,
time_out,18,155175,0.0-8.0-0.0,"""event"",""trial"",""time""
""fullscreenenter"",""1"",""1893""
","
","
","""event"",""trial"",""time""
""fullscreenenter"",""1"",""1893""
","
",,null,run_exp/static/audio/clip_7_timeout.m4a,null,"<p>If you don't make your choice fast enough, you’ll have to wait a few seconds before you can make another one.</p><p>You can’t dig for more gems or travel to new planets. You just have to sit and wait.</p><br><p><img src='run_exp/static/images/task_images/time_out.jpg'  height='600' width='auto'></p>",,,,,,,,,,,,,,,,,,,,,,,
time_out,19,158790,0.0-8.0-1.0,"""event"",""trial"",""time""
""fullscreenenter"",""1"",""1893""
","
","
","""event"",""trial"",""time""
""fullscreenenter"",""1"",""1893""
","
",,3611.1,"<p>If you don't make your choice fast enough, you’ll have to wait a few seconds before you can make another one.</p><p>You can’t dig for more gems or travel to new planets. You just have to sit and wait.</p><br><p><img src='run_exp/static/images/task_images/time_out.jpg'  height='600' width='auto'></p>",,,,,,,1,,,,,,,,,,,,,,,,,,
html-keyboard-response,20,159633,0.0-8.0-2.0,"""event"",""trial"",""time""
""fullscreenenter"",""1"",""1893""
","
","
","""event"",""trial"",""time""
""fullscreenenter"",""1"",""1893""
","
",,841.5,"<p>If you don't make your choice fast enough, you’ll have to wait a few seconds before you can make another one.</p><p>You can’t dig for more gems or travel to new planets. You just have to sit and wait.</p><br><p><img src='run_exp/static/images/task_images/time_out.jpg'  height='600' width='auto'></p><button class=""jspsych-html-btn-unchosen""><img src=""run_exp/static/images/task_images/planet-01.jpg"" height=""50""></button><button class=""jspsych-html-btn-chosen""><img src=""run_exp/static/images/task_images/planet-02.jpg"" height=""50""></button><p><b>[press the space bar to lock in your answer]<b><br></p>",32,,,,,,,,,,,,,,,,,,,,,,,,
instruc_break,21,175315,0.0-9.0-0.0,"""event"",""trial"",""time""
""fullscreenenter"",""1"",""1893""
","
","
","""event"",""trial"",""time""
""fullscreenenter"",""1"",""1893""
","
",,null,run_exp/static/audio/clip_8_break.m4a,null,"<p> After digging and traveling for a while, you’ll be able to take a break at home base. </p><p>The game will last 20 minutes no matter what.</p><p>You will visit home base every 5 minutes, so, you will visit home base three times during the game.</p><br><p><img src='run_exp/static/images/task_images/home_base.jpg' height='600' width='auto'></p>",,,,,,,,,,,,,,,,,,,,,,,
instruc_break,22,177237,0.0-9.0-1.0,"""event"",""trial"",""time""
""fullscreenenter"",""1"",""1893""
","
","
","""event"",""trial"",""time""
""fullscreenenter"",""1"",""1893""
","
",,1918.8,"<p> After digging and traveling for a while, you’ll be able to take a break at home base. </p><p>The game will last 20 minutes no matter what.</p><p>You will visit home base every 5 minutes, so, you will visit home base three times during the game.</p><br><p><img src='run_exp/static/images/task_images/home_base.jpg' height='600' width='auto'></p>",,,,,,,1,,,,,,,,,,,,,,,,,,
html-keyboard-response,23,177505,0.0-9.0-2.0,"""event"",""trial"",""time""
""fullscreenenter"",""1"",""1893""
","
","
","""event"",""trial"",""time""
""fullscreenenter"",""1"",""1893""
","
",,266.2,"<p> After digging and traveling for a while, you’ll be able to take a break at home base. </p><p>The game will last 20 minutes no matter what.</p><p>You will visit home base every 5 minutes, so, you will visit home base three times during the game.</p><br><p><img src='run_exp/static/images/task_images/home_base.jpg' height='600' width='auto'></p><button class=""jspsych-html-btn-unchosen""><img src=""run_exp/static/images/task_images/planet-01.jpg"" height=""50""></button><button class=""jspsych-html-btn-chosen""><img src=""run_exp/static/images/task_images/planet-02.jpg"" height=""50""></button><p><b>[press the space bar to lock in your answer]<b><br></p>",32,,,,,,,,,,,,,,,,,,,,,,,,
instruc_prac_game,24,187635,0.0-10.0-0.0,"""event"",""trial"",""time""
""fullscreenenter"",""1"",""1893""
","
","
","""event"",""trial"",""time""
""fullscreenenter"",""1"",""1893""
","
",,null,run_exp/static/audio/clip_9_practice.m4a,null,"<p> Are you ready to play a practice game? </p> <p>In this practice game, you'll be digging up barrels of gems. But, in the real game, you'll be digging up the gems themselves. </p>",,,,,,,,,,,,,,,,,,,,,,,
html-button-response,25,191174,0.0-10.0-1.0,"""event"",""trial"",""time""
""fullscreenenter"",""1"",""1893""
","
","
","""event"",""trial"",""time""
""fullscreenenter"",""1"",""1893""
","
",,3536.6,"<p> Are you ready to play a practice game? </p> <p>In this practice game, you'll be digging up barrels of gems. But, in the real game, you'll be digging up the gems themselves. </p>",,,,,,,0,,,,,,,,,,,,,,,,,,
alien_welcome_prac,26,196183,0.0-11.0-0.0,"""event"",""trial"",""time""
""fullscreenenter"",""1"",""1893""
","
","
","""event"",""trial"",""time""
""fullscreenenter"",""1"",""1893""
","
",,null,run_exp/static/images/task_images/aliens/practice_aliens/planet/alien_planet-5.jpg,null,,,,,,,,,,,,,,,,,,,,,,,,
land_prac,27,196693,0.0-11.0-1.0,"""event"",""trial"",""time""
""fullscreenenter"",""1"",""1893""
","
","
","""event"",""trial"",""time""
""fullscreenenter"",""1"",""1893""
","
",,null,run_exp/static/images/task_images/land.jpg,null,,,,,,,105,,,0,,,,,,,,,,,,,,
dig_prac,28,198703,0.0-11.0-2.0,"""event"",""trial"",""time""
""fullscreenenter"",""1"",""1893""
","
","
","""event"",""trial"",""time""
""fullscreenenter"",""1"",""1893""
","
",,,,,,,,,,,,"[{""stimulus"":""run_exp/static/images/task_images/dig.jpg"",""time"":0.4000000059604645},{""stimulus"":""run_exp/static/images/task_images/land.jpg"",""time"":677.7000000029802},{""stimulus"":""run_exp/static/images/task_images/dig.jpg"",""time"":1337.5}]",[],,,,,,,,,,,,,,,
harvest_prac,29,199723,0.0-11.0-3.0,"""event"",""trial"",""time""
""fullscreenenter"",""1"",""1893""
","
","
","""event"",""trial"",""time""
""fullscreenenter"",""1"",""1893""
","
",,null,run_exp/static/images/task_images/barrel_text.jpg,null,,,,,,,,,,,,,,,,,,,,,,,,
decision_prac,30,201324,0.0-11.0-4.0,"""event"",""trial"",""time""
""fullscreenenter"",""1"",""1893""
","
","
","""event"",""trial"",""time""
""fullscreenenter"",""1"",""1893""
","
",,1606.6,run_exp/static/images/task_images/land.jpg,65,,,,,,,,,,,1,,,,,,,,,,,,,
dig_prac,31,203352,0.0-12.0-0.0,"""event"",""trial"",""time""
""fullscreenenter"",""1"",""1893""
","
","
","""event"",""trial"",""time""
""fullscreenenter"",""1"",""1893""
","
",,,,,,,,,,,,"[{""stimulus"":""run_exp/static/images/task_images/dig.jpg"",""time"":0.29999999701976776},{""stimulus"":""run_exp/static/images/task_images/land.jpg"",""time"":686.2999999970198},{""stimulus"":""run_exp/static/images/task_images/dig.jpg"",""time"":1336.7999999970198}]",[],,,,,,,,,,,,,,,
harvest_prac,32,204355,0.0-12.0-1.0,"""event"",""trial"",""time""
""fullscreenenter"",""1"",""1893""
","
","
","""event"",""trial"",""time""
""fullscreenenter"",""1"",""1893""
","
",,null,run_exp/static/images/task_images/barrel_text.jpg,null,,,,,,,,,,,,,,,,,,,,,,,,
decision_prac,33,204722,0.0-12.0-2.0,"""event"",""trial"",""time""
""fullscreenenter"",""1"",""1893""
","
","
","""event"",""trial"",""time""
""fullscreenenter"",""1"",""1893""
","
",,365,run_exp/static/images/task_images/land.jpg,65,,,,,,,,,,,2,,,,,,,,,,,,,
dig_prac,34,206745,0.0-13.0-0.0,"""event"",""trial"",""time""
""fullscreenenter"",""1"",""1893""
","
","
","""event"",""trial"",""time""
""fullscreenenter"",""1"",""1893""
","
",,,,,,,,,,,,"[{""stimulus"":""run_exp/static/images/task_images/dig.jpg"",""time"":0.29999999701976776},{""stimulus"":""run_exp/static/images/task_images/land.jpg"",""time"":688.5},{""stimulus"":""run_exp/static/images/task_images/dig.jpg"",""time"":1344.1000000089407}]",[],,,,,,,,,,,,,,,
harvest_prac,35,207755,0.0-13.0-1.0,"""event"",""trial"",""time""
""fullscreenenter"",""1"",""1893""
","
","
","""event"",""trial"",""time""
""fullscreenenter"",""1"",""1893""
","
",,null,run_exp/static/images/task_images/barrel_text.jpg,null,,,,,,,,,,,,,,,,,,,,,,,,
decision_prac,36,208603,0.0-13.0-2.0,"""event"",""trial"",""time""
""fullscreenenter"",""1"",""1893""
","
","
","""event"",""trial"",""time""
""fullscreenenter"",""1"",""1893""
","
",,846,run_exp/static/images/task_images/land.jpg,65,,,,,,,,,,,3,,,,,,,,,,,,,
dig_prac,37,210625,0.0-14.0-0.0,"""event"",""trial"",""time""
""fullscreenenter"",""1"",""1893""
","
","
","""event"",""trial"",""time""
""fullscreenenter"",""1"",""1893""
","
",,,,,,,,,,,,"[{""stimulus"":""run_exp/static/images/task_images/dig.jpg"",""time"":0.29999999701976776},{""stimulus"":""run_exp/static/images/task_images/land.jpg"",""time"":677},{""stimulus"":""run_exp/static/images/task_images/dig.jpg"",""time"":1337.0999999940395}]",[],,,,,,,,,,,,,,,
harvest_prac,38,211635,0.0-14.0-1.0,"""event"",""trial"",""time""
""fullscreenenter"",""1"",""1893""
","
","
","""event"",""trial"",""time""
""fullscreenenter"",""1"",""1893""
","
",,null,run_exp/static/images/task_images/barrel_text.jpg,null,,,,,,,,,,,,,,,,,,,,,,,,
decision_prac,39,212063,0.0-14.0-2.0,"""event"",""trial"",""time""
""fullscreenenter"",""1"",""1893""
","
","
","""event"",""trial"",""time""
""fullscreenenter"",""1"",""1893""
","
",,426.6,run_exp/static/images/task_images/land.jpg,65,,,,,,,,,,,4,,,,,,,,,,,,,
dig_prac,40,214082,0.0-15.0-0.0,"""event"",""trial"",""time""
""fullscreenenter"",""1"",""1893""
","
","
","""event"",""trial"",""time""
""fullscreenenter"",""1"",""1893""
","
",,,,,,,,,,,,"[{""stimulus"":""run_exp/static/images/task_images/dig.jpg"",""time"":0.29999999701976776},{""stimulus"":""run_exp/static/images/task_images/land.jpg"",""time"":686.2999999970198},{""stimulus"":""run_exp/static/images/task_images/dig.jpg"",""time"":1336.5999999940395}]",[],,,,,,,,,,,,,,,
harvest_prac,41,215105,0.0-15.0-1.0,"""event"",""trial"",""time""
""fullscreenenter"",""1"",""1893""
","
","
","""event"",""trial"",""time""
""fullscreenenter"",""1"",""1893""
","
",,null,run_exp/static/images/task_images/barrel_text.jpg,null,,,,,,,,,,,,,,,,,,,,,,,,
decision_prac,42,215512,0.0-15.0-2.0,"""event"",""trial"",""time""
""fullscreenenter"",""1"",""1893""
","
","
","""event"",""trial"",""time""
""fullscreenenter"",""1"",""1893""
","
",,404.6,run_exp/static/images/task_images/land.jpg,65,,,,,,,,,,,,1,,,,,,,,,,,,
quiz_instruc,43,219221,0.0-16.0-0.0,"""event"",""trial"",""time""
""fullscreenenter"",""1"",""1893""
","
","
","""event"",""trial"",""time""
""fullscreenenter"",""1"",""1893""
","
",,3703.6,run_exp/static/audio/clip_10_quiz.m4a,,,,,,,0,,,,,,,,,,,,,,,,,,
instruc_repeat,44,261994,0.0-16.0-1.0,"""event"",""trial"",""time""
""fullscreenenter"",""1"",""1893""
","
","
","""event"",""trial"",""time""
""fullscreenenter"",""1"",""1893""
","
",,null,"<p> Are you ready to play a practice game? </p> <p>In this practice game, you'll be digging up barrels of gems. But, in the real game, you'll be digging up the gems themselves. </p>",null,"<p>In this game, your goal is to collect as many gems as you can. That’s how you will win bonus money. </p> <p>The entire game will last 20 minutes no matter how many gems you collect or how many planets you visit. </p><p>To stay on a planet and dig again, press the letter A on your keyboard. To leave for a new planet, press the letter L.</p><p>The more you dig on a planet, the fewer gems you’ll get with each dig which is why you might consider leaving for a new planet. </p><p>When you arrive at a new planet, you’ll be greeted by an alien. What the alien looks like does not tell you anything about how much treasure is on the planet. </p>",,,,,,,,,,,,,,,,,,,,,,,
instruc_repeat_continue,45,263022,0.0-16.0-2.0,"""event"",""trial"",""time""
""fullscreenenter"",""1"",""1893""
","
","
","""event"",""trial"",""time""
""fullscreenenter"",""1"",""1893""
","
",,1025.3,"<p> Are you ready to play a practice game? </p> <p>In this practice game, you'll be digging up barrels of gems. But, in the real game, you'll be digging up the gems themselves. </p>",,,,,,,0,,,,,,,,,,,,,,,,,,
quiz_q_1_ask,46,267170,0.0-16.0-3.0,"""event"",""trial"",""time""
""fullscreenenter"",""1"",""1893""
","
","
","""event"",""trial"",""time""
""fullscreenenter"",""1"",""1893""
","
",,4146.9,run_exp/static/audio/clip_11_q1_ask.m4a,,,,,,,2,,,,,,,,,,,,,,,,,,
quiz_q_1_fb_correct,47,271014,0.0-17.0-0.0,"""event"",""trial"",""time""
""fullscreenenter"",""1"",""1893""
","
","
","""event"",""trial"",""time""
""fullscreenenter"",""1"",""1893""
","
",,null,run_exp/static/audio/clip_12_q1_correct.m4a,null,<p>That’s correct. You win extra money by collecting more gems.</p>,,,,,,,,,,,,,,,,,,,,,,,
quiz_q_2_ask,48,273485,0.0-17.0-1.0,"""event"",""trial"",""time""
""fullscreenenter"",""1"",""1893""
","
","
","""event"",""trial"",""time""
""fullscreenenter"",""1"",""1893""
","
",,2468.1,run_exp/static/audio/clip_14_q2_ask.m4a,,,,,,,1,,,,,,,,,,,,,,,,,,
quiz_q_2_fb_correct,49,277494,0.0-18.0-0.0,"""event"",""trial"",""time""
""fullscreenenter"",""1"",""1893""
","
","
","""event"",""trial"",""time""
""fullscreenenter"",""1"",""1893""
","
",,null,run_exp/static/audio/clip_15_q2_correct.m4a,null,<p>That’s correct. The experiment is 20 minutes no matter what.</p>,,,,,,,,,,,,,,,,,,,,,,,
quiz_q_3_ask,50,279283,0.0-18.0-1.0,"""event"",""trial"",""time""
""fullscreenenter"",""1"",""1893""
","
","
","""event"",""trial"",""time""
""fullscreenenter"",""1"",""1893""
","
",,1786.9,run_exp/static/audio/clip_17_q3_ask.m4a,,,,,,,1,,,,,,,,,,,,,,,,,,
quiz_q_3_fb_correct,51,283274,0.0-19.0-0.0,"""event"",""trial"",""time""
""fullscreenenter"",""1"",""1893""
","
","
","""event"",""trial"",""time""
""fullscreenenter"",""1"",""1893""
","
",,null,run_exp/static/audio/clip_18_q3_correct.m4a,null,<p> That’s correct. You press the letter L to travel to a new planet.</p>,,,,,,,,,,,,,,,,,,,,,,,
quiz_q_4_ask,52,287017,0.0-19.0-1.0,"""event"",""trial"",""time""
""fullscreenenter"",""1"",""1893""
","
","
","""event"",""trial"",""time""
""fullscreenenter"",""1"",""1893""
","
",,3740.9,run_exp/static/audio/clip_20_q4_ask.m4a,,,,,,,0,,,,,,,,,,,,,,,,,,
quiz_q_4_fb_correct,53,292334,0.0-20.0-0.0,"""event"",""trial"",""time""
""fullscreenenter"",""1"",""1893""
","
","
","""event"",""trial"",""time""
""fullscreenenter"",""1"",""1893""
","
",,null,run_exp/static/audio/clip_21_q4_correct.m4a,null,<p> That’s correct. The more you dig on a planet the fewer gems you’ll get with each dig. </p>,,,,,,,,,,,,,,,,,,,,,,,
quiz_q_5_ask,54,294383,0.0-20.0-1.0,"""event"",""trial"",""time""
""fullscreenenter"",""1"",""1893""
","
","
","""event"",""trial"",""time""
""fullscreenenter"",""1"",""1893""
","
",,2046.6,run_exp/static/audio/clip_23_q5_ask.m4a,,,,,,,1,,,,,,,,,,,,,,,,,,
quiz_q_5_fb_correct,55,299394,0.0-21.0-0.0,"""event"",""trial"",""time""
""fullscreenenter"",""1"",""1893""
","
","
","""event"",""trial"",""time""
""fullscreenenter"",""1"",""1893""
","
",,null,run_exp/static/audio/clip_24_q5_correct.m4a,null,<p> That’s correct. The alien tells you nothing about how much treasure is on the planet.</p>,,,,,,,,,,,,,,,,,,,,,,,
quiz_correct,56,302874,0.0-22.0-0.0,"""event"",""trial"",""time""
""fullscreenenter"",""1"",""1893""
","
","
","""event"",""trial"",""time""
""fullscreenenter"",""1"",""1893""
","
",,null,run_exp/static/audio/clip_26_correct_quiz.m4a,null,,,,,,,,,,,,,,,,,,,,,,,,
quiz_correct_continue,57,303660,0.0-22.0-1.0,"""event"",""trial"",""time""
""fullscreenenter"",""1"",""1893""
","
","
","""event"",""trial"",""time""
""fullscreenenter"",""1"",""1893""
","
",,784.9,<p>Good job! You're now ready to move on to the real game!</p>,,,,,,,0,,,,,,,,,,,,,,,,,,
audio-keyboard-response,58,313774,0.0-22.0-2.0,"""event"",""trial"",""time""
""fullscreenenter"",""1"",""1893""
","
","
","""event"",""trial"",""time""
""fullscreenenter"",""1"",""1893""
","
",,null,run_exp/static/audio/clip_28_real_game.m4a,null,,,,,,,,,,,,,,,,,,,,,,,,
instruc_begin_exp_contine,59,315713,0.0-22.0-3.0,"""event"",""trial"",""time""
""fullscreenenter"",""1"",""1893""
","
","
","""event"",""trial"",""time""
""fullscreenenter"",""1"",""1893""
","
",,1936.2,"<p>Now that you know how  to dig for space treasure and travel to new planets,you can start exploring! </p><p>Do you want to go over the instructions again or get started with the real game?</p>",,,,,,,1,,,,,,1,,,,,,,,,,,,
alien_welcome,60,320732,0.0-23.0-0.0,"""event"",""trial"",""time""
""fullscreenenter"",""1"",""1893""
","
","
","""event"",""trial"",""time""
""fullscreenenter"",""1"",""1893""
","
",,null,run_exp/static/images/task_images/aliens/old_aliens/planet/alien_planet-26.jpg,null,,,,,,,,,,,,,26,"26,56,76,47,20,4,25,43,49,12,29,61,6,77,50,24,78,48,18,5,80,75,10,79,19,46,44,31",,,,,,,,,,
land,61,321242,0.0-23.0-1.0,"""event"",""trial"",""time""
""fullscreenenter"",""1"",""1893""
","
","
","""event"",""trial"",""time""
""fullscreenenter"",""1"",""1893""
","
",,null,run_exp/static/images/task_images/land.jpg,null,,,,,,,100,,,1,,,,,,,,,,,,,,
dig,62,323252,0.0-23.0-2.0,"""event"",""trial"",""time""
""fullscreenenter"",""1"",""1893""
","
","
","""event"",""trial"",""time""
""fullscreenenter"",""1"",""1893""
","
",,,,,,,,,,,,"[{""stimulus"":""run_exp/static/images/task_images/dig.jpg"",""time"":0.5},{""stimulus"":""run_exp/static/images/task_images/land.jpg"",""time"":677.9000000059605},{""stimulus"":""run_exp/static/images/task_images/dig.jpg"",""time"":1337.800000011921}]",[],1,,,,,,,,,,,,,,
harvest,63,324272,0.0-23.0-3.0,"""event"",""trial"",""time""
""fullscreenenter"",""1"",""1893""
","
","
","""event"",""trial"",""time""
""fullscreenenter"",""1"",""1893""
","
",,null,run_exp/static/images/task_images/gems/100.jpg,null,,,,,,,13,,,1,,,,,100,0.128110076,0.13,,,,,,,
decision,64,325599,0.0-23.0-4.0,"""event"",""trial"",""time""
""fullscreenenter"",""1"",""1893""
","
","
","""event"",""trial"",""time""
""fullscreenenter"",""1"",""1893""
","
",,1324.4,run_exp/static/images/task_images/land.jpg,65,,,,,,,13,,,1,,,,,,,,9885,1,0,FALSE,,,
dig,65,327292,0.0-24.0-0.0,"""event"",""trial"",""time""
""fullscreenenter"",""1"",""1893""
","
","
","""event"",""trial"",""time""
""fullscreenenter"",""1"",""1893""
","
",,,,,,,,,,,,"[{""stimulus"":""run_exp/static/images/task_images/dig.jpg"",""time"":0.29999999701976776},{""stimulus"":""run_exp/static/images/task_images/land.jpg"",""time"":576.9000000059605},{""stimulus"":""run_exp/static/images/task_images/dig.jpg"",""time"":1118.2000000029802}]",[],1,,,,,,,,,,,,,,
harvest,66,328302,0.0-24.0-1.0,"""event"",""trial"",""time""
""fullscreenenter"",""1"",""1893""
","
","
","""event"",""trial"",""time""
""fullscreenenter"",""1"",""1893""
","
",,null,run_exp/static/images/task_images/gems/13.jpg,null,,,,,,,3,,,1,,,,,13,0.220377489,0.230769231,,,,,,,
decision,67,328780,0.0-24.0-2.0,"""event"",""trial"",""time""
""fullscreenenter"",""1"",""1893""
","
","
","""event"",""trial"",""time""
""fullscreenenter"",""1"",""1893""
","
",,476.4,run_exp/static/images/task_images/land.jpg,65,,,,,,,3,,,1,,,,,,,,13066,1,1,FALSE,,,
dig,68,331322,0.0-25.0-0.0,"""event"",""trial"",""time""
""fullscreenenter"",""1"",""1893""
","
","
","""event"",""trial"",""time""
""fullscreenenter"",""1"",""1893""
","
",,,,,,,,,,,,"[{""stimulus"":""run_exp/static/images/task_images/dig.jpg"",""time"":0.30000001192092896},{""stimulus"":""run_exp/static/images/task_images/land.jpg"",""time"":845.7000000029802},{""stimulus"":""run_exp/static/images/task_images/dig.jpg"",""time"":1685.7000000029802}]",[],1,,,,,,,,,,,,,,
harvest,69,332332,0.0-25.0-1.0,"""event"",""trial"",""time""
""fullscreenenter"",""1"",""1893""
","
","
","""event"",""trial"",""time""
""fullscreenenter"",""1"",""1893""
","
",,null,run_exp/static/images/task_images/gems/3.jpg,null,,,,,,,1,,,1,,,,,3,0.201278171,0.333333333,,,,,,,
decision,70,332335,0.0-25.0-2.0,"""event"",""trial"",""time""
""fullscreenenter"",""1"",""1893""
","
","
","""event"",""trial"",""time""
""fullscreenenter"",""1"",""1893""
","
",,0.299999997,run_exp/static/images/task_images/land.jpg,65,,,,,,,1,,,1,,,,,,,,16620,1,2,FALSE,,,
dig,71,335342,0.0-26.0-0.0,"""event"",""trial"",""time""
""fullscreenenter"",""1"",""1893""
","
","
","""event"",""trial"",""time""
""fullscreenenter"",""1"",""1893""
","
",,,,,,,,,,,,"[{""stimulus"":""run_exp/static/images/task_images/dig.jpg"",""time"":0.29999999701976776},{""stimulus"":""run_exp/static/images/task_images/land.jpg"",""time"":1011.7000000029802},{""stimulus"":""run_exp/static/images/task_images/dig.jpg"",""time"":2001}]",[],1,,,,,,,,,,,,,,
harvest,72,336350,0.0-26.0-1.0,"""event"",""trial"",""time""
""fullscreenenter"",""1"",""1893""
","
","
","""event"",""trial"",""time""
""fullscreenenter"",""1"",""1893""
","
",,null,run_exp/static/images/task_images/gems/1.jpg,null,,,,,,,0,,,1,,,,,1,0.240593299,0,,,,,,,
decision,73,337256,0.0-26.0-2.0,"""event"",""trial"",""time""
""fullscreenenter"",""1"",""1893""
","
","
","""event"",""trial"",""time""
""fullscreenenter"",""1"",""1893""
","
",,903.8,run_exp/static/images/task_images/land.jpg,76,,,,,,,0,,,1,,,,,,,,21541,1,3,TRUE,,,
travel,74,346367,0.0-27.0-0.0,"""event"",""trial"",""time""
""fullscreenenter"",""1"",""1893""
","
","
","""event"",""trial"",""time""
""fullscreenenter"",""1"",""1893""
","
",,,,,,,,,,,,"[{""stimulus"":""run_exp/static/images/task_images/rocket-01.jpg"",""time"":0.20000000298023224},{""stimulus"":""run_exp/static/images/task_images/rocket-02.jpg"",""time"":1020.9000000059605},{""stimulus"":""run_exp/static/images/task_images/rocket-03.jpg"",""time"":2030.7000000029802},{""stimulus"":""run_exp/static/images/task_images/rocket-04.jpg"",""time"":3040.5999999940395},{""stimulus"":""run_exp/static/images/task_images/rocket-05.jpg"",""time"":4050.5999999940395},{""stimulus"":""run_exp/static/images/task_images/rocket-06.jpg"",""time"":5069.9000000059605},{""stimulus"":""run_exp/static/images/task_images/rocket-07.jpg"",""time"":6080.5999999940395},{""stimulus"":""run_exp/static/images/task_images/rocket-08.jpg"",""time"":7080.70000000298},{""stimulus"":""run_exp/static/images/task_images/rocket-09.jpg"",""time"":8100.5}]",[],1,,,,,,,,,,,,,,
alien_welcome,75,351372,0.0-27.0-1.0,"""event"",""trial"",""time""
""fullscreenenter"",""1"",""1893""
","
","
","""event"",""trial"",""time""
""fullscreenenter"",""1"",""1893""
","
",,null,run_exp/static/images/task_images/aliens/old_aliens/planet/alien_planet-56.jpg,null,,,,,,,,,,,,,56,"26,56,76,47,20,4,25,43,49,12,29,61,6,77,50,24,78,48,18,5,80,75,10,79,19,46,44,31",,,,,,,,,,
land,76,351882,0.0-27.0-2.0,"""event"",""trial"",""time""
""fullscreenenter"",""1"",""1893""
","
","
","""event"",""trial"",""time""
""fullscreenenter"",""1"",""1893""
","
",,null,run_exp/static/images/task_images/land.jpg,null,,,,,,,100,,,2,,,,,,,,,,,,,,
dig,77,353901,0.0-27.0-3.0,"""event"",""trial"",""time""
""fullscreenenter"",""1"",""1893""
","
","
","""event"",""trial"",""time""
""fullscreenenter"",""1"",""1893""
","
",,,,,,,,,,,,"[{""stimulus"":""run_exp/static/images/task_images/dig.jpg"",""time"":0.3999999910593033},{""stimulus"":""run_exp/static/images/task_images/land.jpg"",""time"":687.5},{""stimulus"":""run_exp/static/images/task_images/dig.jpg"",""time"":1347.3999999910593}]",[],2,,,,,,,,,,,,,,
harvest,78,354911,0.0-27.0-4.0,"""event"",""trial"",""time""
""fullscreenenter"",""1"",""1893""
","
","
","""event"",""trial"",""time""
""fullscreenenter"",""1"",""1893""
","
",,null,run_exp/static/images/task_images/gems/100.jpg,null,,,,,,,15,,,2,,,,,100,0.149424906,0.15,,,,,,,
decision,79,356867,0.0-27.0-5.0,"""event"",""trial"",""time""
""fullscreenenter"",""1"",""1893""
","
","
","""event"",""trial"",""time""
""fullscreenenter"",""1"",""1893""
","
",,1954.6,run_exp/static/images/task_images/land.jpg,65,,,,,,,15,,,2,,,,,,,,41152,1,0,FALSE,,,
dig,80,357931,0.0-28.0-0.0,"""event"",""trial"",""time""
""fullscreenenter"",""1"",""1893""
","
","
","""event"",""trial"",""time""
""fullscreenenter"",""1"",""1893""
","
",,,,,,,,,,,,"[{""stimulus"":""run_exp/static/images/task_images/dig.jpg"",""time"":0.20000000298023224},{""stimulus"":""run_exp/static/images/task_images/land.jpg"",""time"":362.80000001192093},{""stimulus"":""run_exp/static/images/task_images/dig.jpg"",""time"":702.5}]",[],2,,,,,,,,,,,,,,
harvest,81,358941,0.0-28.0-1.0,"""event"",""trial"",""time""
""fullscreenenter"",""1"",""1893""
","
","
","""event"",""trial"",""time""
""fullscreenenter"",""1"",""1893""
","
",,null,run_exp/static/images/task_images/gems/15.jpg,null,,,,,,,3,,,2,,,,,15,0.208547921,0.2,,,,,,,
decision,82,359885,0.0-28.0-2.0,"""event"",""trial"",""time""
""fullscreenenter"",""1"",""1893""
","
","
","""event"",""trial"",""time""
""fullscreenenter"",""1"",""1893""
","
",,942.2,run_exp/static/images/task_images/land.jpg,65,,,,,,,3,,,2,,,,,,,,44170,1,1,FALSE,,,
dig,83,361961,0.0-29.0-0.0,"""event"",""trial"",""time""
""fullscreenenter"",""1"",""1893""
","
","
","""event"",""trial"",""time""
""fullscreenenter"",""1"",""1893""
","
",,,,,,,,,,,,"[{""stimulus"":""run_exp/static/images/task_images/dig.jpg"",""time"":0.29999999701976776},{""stimulus"":""run_exp/static/images/task_images/land.jpg"",""time"":692},{""stimulus"":""run_exp/static/images/task_images/dig.jpg"",""time"":1381.0999999940395}]",[],2,,,,,,,,,,,,,,
harvest,84,362972,0.0-29.0-1.0,"""event"",""trial"",""time""
""fullscreenenter"",""1"",""1893""
","
","
","""event"",""trial"",""time""
""fullscreenenter"",""1"",""1893""
","
",,null,run_exp/static/images/task_images/gems/3.jpg,null,,,,,,,1,,,2,,,,,3,0.277318219,0.333333333,,,,,,,
decision,85,363631,0.0-29.0-2.0,"""event"",""trial"",""time""
""fullscreenenter"",""1"",""1893""
","
","
","""event"",""trial"",""time""
""fullscreenenter"",""1"",""1893""
","
",,658.9,run_exp/static/images/task_images/land.jpg,65,,,,,,,1,,,2,,,,,,,,47916,1,2,FALSE,,,
dig,86,365982,0.0-30.0-0.0,"""event"",""trial"",""time""
""fullscreenenter"",""1"",""1893""
","
","
","""event"",""trial"",""time""
""fullscreenenter"",""1"",""1893""
","
",,,,,,,,,,,,"[{""stimulus"":""run_exp/static/images/task_images/dig.jpg"",""time"":0.10000000894069672},{""stimulus"":""run_exp/static/images/task_images/land.jpg"",""time"":787.7000000029802},{""stimulus"":""run_exp/static/images/task_images/dig.jpg"",""time"":1568.2000000029802}]",[],2,,,,,,,,,,,,,,
harvest,87,366992,0.0-30.0-1.0,"""event"",""trial"",""time""
""fullscreenenter"",""1"",""1893""
","
","
","""event"",""trial"",""time""
""fullscreenenter"",""1"",""1893""
","
",,null,run_exp/static/images/task_images/gems/1.jpg,null,,,,,,,0,,,2,,,,,1,0.200553142,0,,,,,,,
decision,88,367541,0.0-30.0-2.0,"""event"",""trial"",""time""
""fullscreenenter"",""1"",""1893""
","
","
","""event"",""trial"",""time""
""fullscreenenter"",""1"",""1893""
","
",,547.5,run_exp/static/images/task_images/land.jpg,65,,,,,,,0,,,2,,,,,,,,51826,1,3,FALSE,,,
dig,89,370012,0.0-31.0-0.0,"""event"",""trial"",""time""
""fullscreenenter"",""1"",""1893""
","
","
","""event"",""trial"",""time""
""fullscreenenter"",""1"",""1893""
","
",,,,,,,,,,,,"[{""stimulus"":""run_exp/static/images/task_images/dig.jpg"",""time"":0.10000000894069672},{""stimulus"":""run_exp/static/images/task_images/land.jpg"",""time"":819.1000000089407},{""stimulus"":""run_exp/static/images/task_images/dig.jpg"",""time"":1638.7999999970198}]",[],2,,,,,,,,,,,,,,
harvest,90,371022,0.0-31.0-1.0,"""event"",""trial"",""time""
""fullscreenenter"",""1"",""1893""
","
","
","""event"",""trial"",""time""
""fullscreenenter"",""1"",""1893""
","
",,null,run_exp/static/images/task_images/gems/0.jpg,null,,,,,,,0,,,2,,,,,0,0.13036535,NaN,,,,,,,
decision,91,371153,0.0-31.0-2.0,"""event"",""trial"",""time""
""fullscreenenter"",""1"",""1893""
","
","
","""event"",""trial"",""time""
""fullscreenenter"",""1"",""1893""
","
",,130.4,run_exp/static/images/task_images/land.jpg,76,,,,,,,0,,,2,,,,,,,,55438,1,4,TRUE,,,
travel,92,381031,0.0-32.0-0.0,"""event"",""trial"",""time""
""fullscreenenter"",""1"",""1893""
","
","
","""event"",""trial"",""time""
""fullscreenenter"",""1"",""1893""
","
",,,,,,,,,,,,"[{""stimulus"":""run_exp/static/images/task_images/rocket-01.jpg"",""time"":0.20000000298023224},{""stimulus"":""run_exp/static/images/task_images/rocket-02.jpg"",""time"":1097.0999999940395},{""stimulus"":""run_exp/static/images/task_images/rocket-03.jpg"",""time"":2216.5},{""stimulus"":""run_exp/static/images/task_images/rocket-04.jpg"",""time"":3306.5},{""stimulus"":""run_exp/static/images/task_images/rocket-05.jpg"",""time"":4385.0999999940395},{""stimulus"":""run_exp/static/images/task_images/rocket-06.jpg"",""time"":5485.899999991059},{""stimulus"":""run_exp/static/images/task_images/rocket-07.jpg"",""time"":6596.20000000298},{""stimulus"":""run_exp/static/images/task_images/rocket-08.jpg"",""time"":7676.29999999702},{""stimulus"":""run_exp/static/images/task_images/rocket-09.jpg"",""time"":8776.20000000298}]",[],2,,,,,,,,,,,,,,
alien_welcome,93,386042,0.0-32.0-1.0,"""event"",""trial"",""time""
""fullscreenenter"",""1"",""1893""
","
","
","""event"",""trial"",""time""
""fullscreenenter"",""1"",""1893""
","
",,null,run_exp/static/images/task_images/aliens/old_aliens/planet/alien_planet-76.jpg,null,,,,,,,,,,,,,76,"26,56,76,47,20,4,25,43,49,12,29,61,6,77,50,24,78,48,18,5,80,75,10,79,19,46,44,31",,,,,,,,,,
land,94,386551,0.0-32.0-2.0,"""event"",""trial"",""time""
""fullscreenenter"",""1"",""1893""
","
","
","""event"",""trial"",""time""
""fullscreenenter"",""1"",""1893""
","
",,null,run_exp/static/images/task_images/land.jpg,null,,,,,,,101,,,3,,,,,,,,,,,,,,
dig,95,388561,0.0-32.0-3.0,"""event"",""trial"",""time""
""fullscreenenter"",""1"",""1893""
","
","
","""event"",""trial"",""time""
""fullscreenenter"",""1"",""1893""
","
",,,,,,,,,,,,"[{""stimulus"":""run_exp/static/images/task_images/dig.jpg"",""time"":0.3999999910593033},{""stimulus"":""run_exp/static/images/task_images/land.jpg"",""time"":688.2999999970198},{""stimulus"":""run_exp/static/images/task_images/dig.jpg"",""time"":1338.199999988079}]",[],3,,,,,,,,,,,,,,
harvest,96,389581,0.0-32.0-4.0,"""event"",""trial"",""time""
""fullscreenenter"",""1"",""1893""
","
","
","""event"",""trial"",""time""
""fullscreenenter"",""1"",""1893""
","
",,null,run_exp/static/images/task_images/gems/101.jpg,null,,,,,,,49,,,3,,,,,101,0.481999805,0.485148515,,,,,,,
decision,97,390564,0.0-32.0-5.0,"""event"",""trial"",""time""
""fullscreenenter"",""1"",""1893""
","
","
","""event"",""trial"",""time""
""fullscreenenter"",""1"",""1893""
","
",,980.4,run_exp/static/images/task_images/land.jpg,65,,,,,,,49,,,3,,,,,,,,74849,1,0,FALSE,,,
dig,98,392591,0.0-33.0-0.0,"""event"",""trial"",""time""
""fullscreenenter"",""1"",""1893""
","
","
","""event"",""trial"",""time""
""fullscreenenter"",""1"",""1893""
","
",,,,,,,,,,,,"[{""stimulus"":""run_exp/static/images/task_images/dig.jpg"",""time"":0.30000001192092896},{""stimulus"":""run_exp/static/images/task_images/land.jpg"",""time"":682.2000000029802},{""stimulus"":""run_exp/static/images/task_images/dig.jpg"",""time"":1358.2000000029802}]",[],3,,,,,,,,,,,,,,
harvest,99,393601,0.0-33.0-1.0,"""event"",""trial"",""time""
""fullscreenenter"",""1"",""1893""
","
","
","""event"",""trial"",""time""
""fullscreenenter"",""1"",""1893""
","
",,null,run_exp/static/images/task_images/gems/49.jpg,null,,,,,,,26,,,3,,,,,49,0.531498948,0.530612245,,,,,,,
decision,100,393956,0.0-33.0-2.0,"""event"",""trial"",""time""
""fullscreenenter"",""1"",""1893""
","
","
","""event"",""trial"",""time""
""fullscreenenter"",""1"",""1893""
","
",,353,run_exp/static/images/task_images/land.jpg,65,,,,,,,26,,,3,,,,,,,,78241,1,1,FALSE,,,
dig,101,396611,0.0-34.0-0.0,"""event"",""trial"",""time""
""fullscreenenter"",""1"",""1893""
","
","
","""event"",""trial"",""time""
""fullscreenenter"",""1"",""1893""
","
",,,,,,,,,,,,"[{""stimulus"":""run_exp/static/images/task_images/dig.jpg"",""time"":0.29999999701976776},{""stimulus"":""run_exp/static/images/task_images/land.jpg"",""time"":890.3999999910593},{""stimulus"":""run_exp/static/images/task_images/dig.jpg"",""time"":1780}]",[],3,,,,,,,,,,,,,,
harvest,102,397631,0.0-34.0-1.0,"""event"",""trial"",""time""
""fullscreenenter"",""1"",""1893""
","
","
","""event"",""trial"",""time""
""fullscreenenter"",""1"",""1893""
","
",,null,run_exp/static/images/task_images/gems/26.jpg,null,,,,,,,13,,,3,,,,,26,0.497276177,0.5,,,,,,,
decision,103,398544,0.0-34.0-2.0,"""event"",""trial"",""time""
""fullscreenenter"",""1"",""1893""
","
","
","""event"",""trial"",""time""
""fullscreenenter"",""1"",""1893""
","
",,910.3,run_exp/static/images/task_images/land.jpg,65,,,,,,,13,,,3,,,,,,,,82829,1,2,FALSE,,,
dig,104,400651,0.0-35.0-0.0,"""event"",""trial"",""time""
""fullscreenenter"",""1"",""1893""
","
","
","""event"",""trial"",""time""
""fullscreenenter"",""1"",""1893""
","
",,,,,,,,,,,,"[{""stimulus"":""run_exp/static/images/task_images/dig.jpg"",""time"":0.4000000059604645},{""stimulus"":""run_exp/static/images/task_images/land.jpg"",""time"":702.6000000089407},{""stimulus"":""run_exp/static/images/task_images/dig.jpg"",""time"":1402.300000011921}]",[],3,,,,,,,,,,,,,,
harvest,105,401666,0.0-35.0-1.0,"""event"",""trial"",""time""
""fullscreenenter"",""1"",""1893""
","
","
","""event"",""trial"",""time""
""fullscreenenter"",""1"",""1893""
","
",,null,run_exp/static/images/task_images/gems/13.jpg,null,,,,,,,7,,,3,,,,,13,0.544579216,0.538461538,,,,,,,
decision,106,401887,0.0-35.0-2.0,"""event"",""trial"",""time""
""fullscreenenter"",""1"",""1893""
","
","
","""event"",""trial"",""time""
""fullscreenenter"",""1"",""1893""
","
",,219.3,run_exp/static/images/task_images/land.jpg,65,,,,,,,7,,,3,,,,,,,,86173,1,3,FALSE,,,
dig,107,404691,0.0-36.0-0.0,"""event"",""trial"",""time""
""fullscreenenter"",""1"",""1893""
","
","
","""event"",""trial"",""time""
""fullscreenenter"",""1"",""1893""
","
",,,,,,,,,,,,"[{""stimulus"":""run_exp/static/images/task_images/dig.jpg"",""time"":0.29999999701976776},{""stimulus"":""run_exp/static/images/task_images/land.jpg"",""time"":927.5},{""stimulus"":""run_exp/static/images/task_images/dig.jpg"",""time"":1858.3999999910593}]",[],3,,,,,,,,,,,,,,
harvest,108,405711,0.0-36.0-1.0,"""event"",""trial"",""time""
""fullscreenenter"",""1"",""1893""
","
","
","""event"",""trial"",""time""
""fullscreenenter"",""1"",""1893""
","
",,null,run_exp/static/images/task_images/gems/7.jpg,null,,,,,,,3,,,3,,,,,7,0.486957002,0.428571429,,,,,,,
decision,109,408721,0.0-36.0-2.0,"""event"",""trial"",""time""
""fullscreenenter"",""1"",""1893""
","
","
","""event"",""trial"",""time""
""fullscreenenter"",""1"",""1893""
","
",,null,run_exp/static/images/task_images/land.jpg,null,,,,,,,3,,,3,,,,,,,,93006,1,4,FALSE,,,
time_out,110,410741,0.0-37.0-0.0,"""event"",""trial"",""time""
""fullscreenenter"",""1"",""1893""
","
","
","""event"",""trial"",""time""
""fullscreenenter"",""1"",""1893""
","
",,null,run_exp/static/images/task_images/time_out.jpg,null,,,,,,,3,,,,,,,,,,,,,,,,,
decision,111,411286,0.0-37.0-1.0,"""event"",""trial"",""time""
""fullscreenenter"",""1"",""1893""
","
","
","""event"",""trial"",""time""
""fullscreenenter"",""1"",""1893""
","
",,542.5,run_exp/static/images/task_images/land.jpg,65,,,,,,,3,,,3,,,,,,,,95571,1,4,FALSE,,,
dig,112,413751,0.0-38.0-0.0,"""event"",""trial"",""time""
""fullscreenenter"",""1"",""1893""
","
","
","""event"",""trial"",""time""
""fullscreenenter"",""1"",""1893""
","
",,,,,,,,,,,,"[{""stimulus"":""run_exp/static/images/task_images/dig.jpg"",""time"":0.20000000298023224},{""stimulus"":""run_exp/static/images/task_images/land.jpg"",""time"":840.2000000029802},{""stimulus"":""run_exp/static/images/task_images/dig.jpg"",""time"":1650.1000000089407}]",[],3,,,,,,,,,,,,,,
harvest,113,414771,0.0-38.0-1.0,"""event"",""trial"",""time""
""fullscreenenter"",""1"",""1893""
","
","
","""event"",""trial"",""time""
""fullscreenenter"",""1"",""1893""
","
",,null,run_exp/static/images/task_images/gems/3.jpg,null,,,,,,,2,,,3,,,,,3,0.525543765,0.666666667,,,,,,,
decision,114,415550,0.0-38.0-2.0,"""event"",""trial"",""time""
""fullscreenenter"",""1"",""1893""
","
","
","""event"",""trial"",""time""
""fullscreenenter"",""1"",""1893""
","
",,776.7,run_exp/static/images/task_images/land.jpg,65,,,,,,,2,,,3,,,,,,,,99835,1,5,FALSE,,,
dig,115,417791,0.0-39.0-0.0,"""event"",""trial"",""time""
""fullscreenenter"",""1"",""1893""
","
","
","""event"",""trial"",""time""
""fullscreenenter"",""1"",""1893""
","
",,,,,,,,,,,,"[{""stimulus"":""run_exp/static/images/task_images/dig.jpg"",""time"":0.20000000298023224},{""stimulus"":""run_exp/static/images/task_images/land.jpg"",""time"":754.8000000119209},{""stimulus"":""run_exp/static/images/task_images/dig.jpg"",""time"":1485.6000000089407}]",[],3,,,,,,,,,,,,,,
harvest,116,418802,0.0-39.0-1.0,"""event"",""trial"",""time""
""fullscreenenter"",""1"",""1893""
","
","
","""event"",""trial"",""time""
""fullscreenenter"",""1"",""1893""
","
",,null,run_exp/static/images/task_images/gems/2.jpg,null,,,,,,,1,,,3,,,,,2,0.442466146,0.5,,,,,,,
decision,117,418804,0.0-39.0-2.0,"""event"",""trial"",""time""
""fullscreenenter"",""1"",""1893""
","
","
","""event"",""trial"",""time""
""fullscreenenter"",""1"",""1893""
","
",,0.299999997,run_exp/static/images/task_images/land.jpg,65,,,,,,,1,,,3,,,,,,,,103089,1,6,FALSE,,,
dig,118,421811,0.0-40.0-0.0,"""event"",""trial"",""time""
""fullscreenenter"",""1"",""1893""
","
","
","""event"",""trial"",""time""
""fullscreenenter"",""1"",""1893""
","
",,,,,,,,,,,,"[{""stimulus"":""run_exp/static/images/task_images/dig.jpg"",""time"":0.20000000298023224},{""stimulus"":""run_exp/static/images/task_images/land.jpg"",""time"":1013},{""stimulus"":""run_exp/static/images/task_images/dig.jpg"",""time"":2003}]",[],3,,,,,,,,,,,,,,
harvest,119,422821,0.0-40.0-1.0,"""event"",""trial"",""time""
""fullscreenenter"",""1"",""1893""
","
","
","""event"",""trial"",""time""
""fullscreenenter"",""1"",""1893""
","
",,null,run_exp/static/images/task_images/gems/1.jpg,null,,,,,,,0,,,3,,,,,1,0.474488462,0,,,,,,,
decision,120,423928,0.0-40.0-2.0,"""event"",""trial"",""time""
""fullscreenenter"",""1"",""1893""
","
","
","""event"",""trial"",""time""
""fullscreenenter"",""1"",""1893""
","
",,1104.6,run_exp/static/images/task_images/land.jpg,76,,,,,,,0,,,3,,,,,,,,108213,1,7,TRUE,,,
travel,121,432828,0.0-41.0-0.0,"""event"",""trial"",""time""
""fullscreenenter"",""1"",""1893""
","
","
","""event"",""trial"",""time""
""fullscreenenter"",""1"",""1893""
","
",,,,,,,,,,,,"[{""stimulus"":""run_exp/static/images/task_images/rocket-01.jpg"",""time"":0.30000001192092896},{""stimulus"":""run_exp/static/images/task_images/rocket-02.jpg"",""time"":998},{""stimulus"":""run_exp/static/images/task_images/rocket-03.jpg"",""time"":1977.800000011921},{""stimulus"":""run_exp/static/images/task_images/rocket-04.jpg"",""time"":2967.300000011921},{""stimulus"":""run_exp/static/images/task_images/rocket-05.jpg"",""time"":3967.7000000029802},{""stimulus"":""run_exp/static/images/task_images/rocket-06.jpg"",""time"":4957.9000000059605},{""stimulus"":""run_exp/static/images/task_images/rocket-07.jpg"",""time"":5947.4000000059605},{""stimulus"":""run_exp/static/images/task_images/rocket-08.jpg"",""time"":6937.70000000298},{""stimulus"":""run_exp/static/images/task_images/rocket-09.jpg"",""time"":7918}]",[],3,,,,,,,,,,,,,,
alien_welcome,122,437831,0.0-41.0-1.0,"""event"",""trial"",""time""
""fullscreenenter"",""1"",""1893""
","
","
","""event"",""trial"",""time""
""fullscreenenter"",""1"",""1893""
","
",,null,run_exp/static/images/task_images/aliens/old_aliens/planet/alien_planet-47.jpg,null,,,,,,,,,,,,,47,"26,56,76,47,20,4,25,43,49,12,29,61,6,77,50,24,78,48,18,5,80,75,10,79,19,46,44,31",,,,,,,,,,
land,123,438341,0.0-41.0-2.0,"""event"",""trial"",""time""
""fullscreenenter"",""1"",""1893""
","
","
","""event"",""trial"",""time""
""fullscreenenter"",""1"",""1893""
","
",,null,run_exp/static/images/task_images/land.jpg,null,,,,,,,103,,,4,,,,,,,,,,,,,,
dig,124,440351,0.0-41.0-3.0,"""event"",""trial"",""time""
""fullscreenenter"",""1"",""1893""
","
","
","""event"",""trial"",""time""
""fullscreenenter"",""1"",""1893""
","
",,,,,,,,,,,,"[{""stimulus"":""run_exp/static/images/task_images/dig.jpg"",""time"":0.4000000059604645},{""stimulus"":""run_exp/static/images/task_images/land.jpg"",""time"":688.1000000089407},{""stimulus"":""run_exp/static/images/task_images/dig.jpg"",""time"":1337.9000000059605}]",[],4,,,,,,,,,,,,,,
harvest,125,441364,0.0-41.0-4.0,"""event"",""trial"",""time""
""fullscreenenter"",""1"",""1893""
","
","
","""event"",""trial"",""time""
""fullscreenenter"",""1"",""1893""
","
",,null,run_exp/static/images/task_images/gems/103.jpg,null,,,,,,,61,,,4,,,,,103,0.596752186,0.59223301,,,,,,,
decision,126,442183,0.0-41.0-5.0,"""event"",""trial"",""time""
""fullscreenenter"",""1"",""1893""
","
","
","""event"",""trial"",""time""
""fullscreenenter"",""1"",""1893""
","
",,817.3,run_exp/static/images/task_images/land.jpg,65,,,,,,,61,,,4,,,,,,,,126468,1,0,FALSE,,,
dig,127,444371,0.0-42.0-0.0,"""event"",""trial"",""time""
""fullscreenenter"",""1"",""1893""
","
","
","""event"",""trial"",""time""
""fullscreenenter"",""1"",""1893""
","
",,,,,,,,,,,,"[{""stimulus"":""run_exp/static/images/task_images/dig.jpg"",""time"":0.3999999910593033},{""stimulus"":""run_exp/static/images/task_images/land.jpg"",""time"":742.6999999880791},{""stimulus"":""run_exp/static/images/task_images/dig.jpg"",""time"":1462.7999999970198}]",[],4,,,,,,,,,,,,,,
harvest,128,445391,0.0-42.0-1.0,"""event"",""trial"",""time""
""fullscreenenter"",""1"",""1893""
","
","
","""event"",""trial"",""time""
""fullscreenenter"",""1"",""1893""
","
",,null,run_exp/static/images/task_images/gems/61.jpg,null,,,,,,,31,,,4,,,,,61,0.506081765,0.508196721,,,,,,,
decision,129,445574,0.0-42.0-2.0,"""event"",""trial"",""time""
""fullscreenenter"",""1"",""1893""
","
","
","""event"",""trial"",""time""
""fullscreenenter"",""1"",""1893""
","
",,181.5,run_exp/static/images/task_images/land.jpg,65,,,,,,,31,,,4,,,,,,,,129859,1,1,FALSE,,,
dig,130,448411,0.0-43.0-0.0,"""event"",""trial"",""time""
""fullscreenenter"",""1"",""1893""
","
","
","""event"",""trial"",""time""
""fullscreenenter"",""1"",""1893""
","
",,,,,,,,,,,,"[{""stimulus"":""run_exp/static/images/task_images/dig.jpg"",""time"":0.19999998807907104},{""stimulus"":""run_exp/static/images/task_images/land.jpg"",""time"":951.0999999940395},{""stimulus"":""run_exp/static/images/task_images/dig.jpg"",""time"":1890.7999999970198}]",[],4,,,,,,,,,,,,,,
harvest,131,449431,0.0-43.0-1.0,"""event"",""trial"",""time""
""fullscreenenter"",""1"",""1893""
","
","
","""event"",""trial"",""time""
""fullscreenenter"",""1"",""1893""
","
",,null,run_exp/static/images/task_images/gems/31.jpg,null,,,,,,,17,,,4,,,,,31,0.560112128,0.548387097,,,,,,,
decision,132,449488,0.0-43.0-2.0,"""event"",""trial"",""time""
""fullscreenenter"",""1"",""1893""
","
","
","""event"",""trial"",""time""
""fullscreenenter"",""1"",""1893""
","
",,54.90000001,run_exp/static/images/task_images/land.jpg,65,,,,,,,17,,,4,,,,,,,,133773,1,2,FALSE,,,
dig,133,452441,0.0-44.0-0.0,"""event"",""trial"",""time""
""fullscreenenter"",""1"",""1893""
","
","
","""event"",""trial"",""time""
""fullscreenenter"",""1"",""1893""
","
",,,,,,,,,,,,"[{""stimulus"":""run_exp/static/images/task_images/dig.jpg"",""time"":0.19999998807907104},{""stimulus"":""run_exp/static/images/task_images/land.jpg"",""time"":987.5},{""stimulus"":""run_exp/static/images/task_images/dig.jpg"",""time"":1977.5}]",[],4,,,,,,,,,,,,,,
harvest,134,453461,0.0-44.0-1.0,"""event"",""trial"",""time""
""fullscreenenter"",""1"",""1893""
","
","
","""event"",""trial"",""time""
""fullscreenenter"",""1"",""1893""
","
",,null,run_exp/static/images/task_images/gems/17.jpg,null,,,,,,,10,,,4,,,,,17,0.568771465,0.588235294,,,,,,,
decision,135,454389,0.0-44.0-2.0,"""event"",""trial"",""time""
""fullscreenenter"",""1"",""1893""
","
","
","""event"",""trial"",""time""
""fullscreenenter"",""1"",""1893""
","
",,925.6,run_exp/static/images/task_images/land.jpg,65,,,,,,,10,,,4,,,,,,,,138674,1,3,FALSE,,,
dig,136,456477,0.0-45.0-0.0,"""event"",""trial"",""time""
""fullscreenenter"",""1"",""1893""
","
","
","""event"",""trial"",""time""
""fullscreenenter"",""1"",""1893""
","
",,,,,,,,,,,,"[{""stimulus"":""run_exp/static/images/task_images/dig.jpg"",""time"":0.29999999701976776},{""stimulus"":""run_exp/static/images/task_images/land.jpg"",""time"":706.6000000089407},{""stimulus"":""run_exp/static/images/task_images/dig.jpg"",""time"":1387.4000000059605}]",[],4,,,,,,,,,,,,,,
harvest,137,457481,0.0-45.0-1.0,"""event"",""trial"",""time""
""fullscreenenter"",""1"",""1893""
","
","
","""event"",""trial"",""time""
""fullscreenenter"",""1"",""1893""
","
",,null,run_exp/static/images/task_images/gems/10.jpg,null,,,,,,,5,,,4,,,,,10,0.523108676,0.5,,,,,,,
decision,138,460491,0.0-45.0-2.0,"""event"",""trial"",""time""
""fullscreenenter"",""1"",""1893""
","
","
","""event"",""trial"",""time""
""fullscreenenter"",""1"",""1893""
","
",,null,run_exp/static/images/task_images/land.jpg,null,,,,,,,5,,,4,,,,,,,,144776,1,4,FALSE,,,
time_out,139,462511,0.0-46.0-0.0,"""event"",""trial"",""time""
""fullscreenenter"",""1"",""1893""
","
","
","""event"",""trial"",""time""
""fullscreenenter"",""1"",""1893""
","
",,null,run_exp/static/images/task_images/time_out.jpg,null,,,,,,,5,,,,,,,,,,,,,,,,,
decision,140,463048,0.0-46.0-1.0,"""event"",""trial"",""time""
""fullscreenenter"",""1"",""1893""
","
","
","""event"",""trial"",""time""
""fullscreenenter"",""1"",""1893""
","
",,534.6,run_exp/static/images/task_images/land.jpg,65,,,,,,,5,,,4,,,,,,,,147333,1,4,FALSE,,,
dig,141,465531,0.0-47.0-0.0,"""event"",""trial"",""time""
""fullscreenenter"",""1"",""1893""
","
","
","""event"",""trial"",""time""
""fullscreenenter"",""1"",""1893""
","
",,,,,,,,,,,,"[{""stimulus"":""run_exp/static/images/task_images/dig.jpg"",""time"":0.29999999701976776},{""stimulus"":""run_exp/static/images/task_images/land.jpg"",""time"":837.7999999970198},{""stimulus"":""run_exp/static/images/task_images/dig.jpg"",""time"":1657.2999999970198}]",[],4,,,,,,,,,,,,,,
harvest,142,466551,0.0-47.0-1.0,"""event"",""trial"",""time""
""fullscreenenter"",""1"",""1893""
","
","
","""event"",""trial"",""time""
""fullscreenenter"",""1"",""1893""
","
",,null,run_exp/static/images/task_images/gems/5.jpg,null,,,,,,,2,,,4,,,,,5,0.465706805,0.4,,,,,,,
decision,143,467187,0.0-47.0-2.0,"""event"",""trial"",""time""
""fullscreenenter"",""1"",""1893""
","
","
","""event"",""trial"",""time""
""fullscreenenter"",""1"",""1893""
","
",,634.6,run_exp/static/images/task_images/land.jpg,65,,,,,,,2,,,4,,,,,,,,151472,1,5,FALSE,,,
dig,144,469561,0.0-48.0-0.0,"""event"",""trial"",""time""
""fullscreenenter"",""1"",""1893""
","
","
","""event"",""trial"",""time""
""fullscreenenter"",""1"",""1893""
","
",,,,,,,,,,,,"[{""stimulus"":""run_exp/static/images/task_images/dig.jpg"",""time"":0.20000000298023224},{""stimulus"":""run_exp/static/images/task_images/land.jpg"",""time"":807.5999999940395},{""stimulus"":""run_exp/static/images/task_images/dig.jpg"",""time"":1597}]",[],4,,,,,,,,,,,,,,
harvest,145,470571,0.0-48.0-1.0,"""event"",""trial"",""time""
""fullscreenenter"",""1"",""1893""
","
","
","""event"",""trial"",""time""
""fullscreenenter"",""1"",""1893""
","
",,null,run_exp/static/images/task_images/gems/2.jpg,null,,,,,,,1,,,4,,,,,2,0.497676076,0.5,,,,,,,
decision,146,471062,0.0-48.0-2.0,"""event"",""trial"",""time""
""fullscreenenter"",""1"",""1893""
","
","
","""event"",""trial"",""time""
""fullscreenenter"",""1"",""1893""
","
",,489.4,run_exp/static/images/task_images/land.jpg,76,,,,,,,1,,,4,,,,,,,,155347,1,6,TRUE,,,
travel,147,480575,0.0-49.0-0.0,"""event"",""trial"",""time""
""fullscreenenter"",""1"",""1893""
","
","
","""event"",""trial"",""time""
""fullscreenenter"",""1"",""1893""
","
",,,,,,,,,,,,"[{""stimulus"":""run_exp/static/images/task_images/rocket-01.jpg"",""time"":0.4000000059604645},{""stimulus"":""run_exp/static/images/task_images/rocket-02.jpg"",""time"":1063.2000000029802},{""stimulus"":""run_exp/static/images/task_images/rocket-03.jpg"",""time"":2123.2000000029802},{""stimulus"":""run_exp/static/images/task_images/rocket-04.jpg"",""time"":3172.7999999970198},{""stimulus"":""run_exp/static/images/task_images/rocket-05.jpg"",""time"":4233.100000008941},{""stimulus"":""run_exp/static/images/task_images/rocket-06.jpg"",""time"":5293},{""stimulus"":""run_exp/static/images/task_images/rocket-07.jpg"",""time"":6343.20000000298},{""stimulus"":""run_exp/static/images/task_images/rocket-08.jpg"",""time"":7413.100000008941},{""stimulus"":""run_exp/static/images/task_images/rocket-09.jpg"",""time"":8452.79999999702}]",[],4,,,,,,,,,,,,,,
alien_welcome,148,485590,0.0-49.0-1.0,"""event"",""trial"",""time""
""fullscreenenter"",""1"",""1893""
","
","
","""event"",""trial"",""time""
""fullscreenenter"",""1"",""1893""
","
",,null,run_exp/static/images/task_images/aliens/old_aliens/planet/alien_planet-20.jpg,null,,,,,,,,,,,,,20,"26,56,76,47,20,4,25,43,49,12,29,61,6,77,50,24,78,48,18,5,80,75,10,79,19,46,44,31",,,,,,,,,,
land,149,486110,0.0-49.0-2.0,"""event"",""trial"",""time""
""fullscreenenter"",""1"",""1893""
","
","
","""event"",""trial"",""time""
""fullscreenenter"",""1"",""1893""
","
",,null,run_exp/static/images/task_images/land.jpg,null,,,,,,,97,,,5,,,,,,,,,,,,,,
dig,150,488120,0.0-49.0-3.0,"""event"",""trial"",""time""
""fullscreenenter"",""1"",""1893""
","
","
","""event"",""trial"",""time""
""fullscreenenter"",""1"",""1893""
","
",,,,,,,,,,,,"[{""stimulus"":""run_exp/static/images/task_images/dig.jpg"",""time"":0.3999999910593033},{""stimulus"":""run_exp/static/images/task_images/land.jpg"",""time"":678.2999999970198},{""stimulus"":""run_exp/static/images/task_images/dig.jpg"",""time"":1338.0999999940395}]",[],5,,,,,,,,,,,,,,
harvest,151,489141,0.0-49.0-4.0,"""event"",""trial"",""time""
""fullscreenenter"",""1"",""1893""
","
","
","""event"",""trial"",""time""
""fullscreenenter"",""1"",""1893""
","
",,null,run_exp/static/images/task_images/gems/97.jpg,null,,,,,,,49,,,5,,,,,97,0.503708464,0.505154639,,,,,,,
decision,152,489477,0.0-49.0-5.0,"""event"",""trial"",""time""
""fullscreenenter"",""1"",""1893""
","
","
","""event"",""trial"",""time""
""fullscreenenter"",""1"",""1893""
","
",,334.6,run_exp/static/images/task_images/land.jpg,65,,,,,,,49,,,5,,,,,,,,173763,1,0,FALSE,,,
dig,153,492161,0.0-50.0-0.0,"""event"",""trial"",""time""
""fullscreenenter"",""1"",""1893""
","
","
","""event"",""trial"",""time""
""fullscreenenter"",""1"",""1893""
","
",,,,,,,,,,,,"[{""stimulus"":""run_exp/static/images/task_images/dig.jpg"",""time"":0.29999999701976776},{""stimulus"":""run_exp/static/images/task_images/land.jpg"",""time"":897.5},{""stimulus"":""run_exp/static/images/task_images/dig.jpg"",""time"":1777.7999999970198}]",[],5,,,,,,,,,,,,,,
harvest,154,493171,0.0-50.0-1.0,"""event"",""trial"",""time""
""fullscreenenter"",""1"",""1893""
","
","
","""event"",""trial"",""time""
""fullscreenenter"",""1"",""1893""
","
",,null,run_exp/static/images/task_images/gems/49.jpg,null,,,,,,,24,,,5,,,,,49,0.484656065,0.489795918,,,,,,,
decision,155,493324,0.0-50.0-2.0,"""event"",""trial"",""time""
""fullscreenenter"",""1"",""1893""
","
","
","""event"",""trial"",""time""
""fullscreenenter"",""1"",""1893""
","
",,151.1,run_exp/static/images/task_images/land.jpg,65,,,,,,,24,,,5,,,,,,,,177609,1,1,FALSE,,,
dig,156,496185,0.0-51.0-0.0,"""event"",""trial"",""time""
""fullscreenenter"",""1"",""1893""
","
","
","""event"",""trial"",""time""
""fullscreenenter"",""1"",""1893""
","
",,,,,,,,,,,,"[{""stimulus"":""run_exp/static/images/task_images/dig.jpg"",""time"":0.20000000298023224},{""stimulus"":""run_exp/static/images/task_images/land.jpg"",""time"":960.2000000029802},{""stimulus"":""run_exp/static/images/task_images/dig.jpg"",""time"":1900.7000000029802}]",[],5,,,,,,,,,,,,,,
harvest,157,497190,0.0-51.0-1.0,"""event"",""trial"",""time""
""fullscreenenter"",""1"",""1893""
","
","
","""event"",""trial"",""time""
""fullscreenenter"",""1"",""1893""
","
",,null,run_exp/static/images/task_images/gems/24.jpg,null,,,,,,,12,,,5,,,,,24,0.498575452,0.5,,,,,,,
decision,158,497604,0.0-51.0-2.0,"""event"",""trial"",""time""
""fullscreenenter"",""1"",""1893""
","
","
","""event"",""trial"",""time""
""fullscreenenter"",""1"",""1893""
","
",,412.9,run_exp/static/images/task_images/land.jpg,65,,,,,,,12,,,5,,,,,,,,181889,1,2,FALSE,,,
dig,159,500211,0.0-52.0-0.0,"""event"",""trial"",""time""
""fullscreenenter"",""1"",""1893""
","
","
","""event"",""trial"",""time""
""fullscreenenter"",""1"",""1893""
","
",,,,,,,,,,,,"[{""stimulus"":""run_exp/static/images/task_images/dig.jpg"",""time"":0.29999999701976776},{""stimulus"":""run_exp/static/images/task_images/land.jpg"",""time"":882.5999999940395},{""stimulus"":""run_exp/static/images/task_images/dig.jpg"",""time"":1742.5}]",[],5,,,,,,,,,,,,,,
harvest,160,501231,0.0-52.0-1.0,"""event"",""trial"",""time""
""fullscreenenter"",""1"",""1893""
","
","
","""event"",""trial"",""time""
""fullscreenenter"",""1"",""1893""
","
",,null,run_exp/static/images/task_images/gems/12.jpg,null,,,,,,,6,,,5,,,,,12,0.536235391,0.5,,,,,,,
decision,161,501387,0.0-52.0-2.0,"""event"",""trial"",""time""
""fullscreenenter"",""1"",""1893""
","
","
","""event"",""trial"",""time""
""fullscreenenter"",""1"",""1893""
","
",,154.2,run_exp/static/images/task_images/land.jpg,65,,,,,,,6,,,5,,,,,,,,185672,1,3,FALSE,,,
dig,162,504240,0.0-53.0-0.0,"""event"",""trial"",""time""
""fullscreenenter"",""1"",""1893""
","
","
","""event"",""trial"",""time""
""fullscreenenter"",""1"",""1893""
","
",,,,,,,,,,,,"[{""stimulus"":""run_exp/static/images/task_images/dig.jpg"",""time"":0.30000001192092896},{""stimulus"":""run_exp/static/images/task_images/land.jpg"",""time"":957.8000000119209},{""stimulus"":""run_exp/static/images/task_images/dig.jpg"",""time"":1907.9000000059605}]",[],5,,,,,,,,,,,,,,
harvest,163,505260,0.0-53.0-1.0,"""event"",""trial"",""time""
""fullscreenenter"",""1"",""1893""
","
","
","""event"",""trial"",""time""
""fullscreenenter"",""1"",""1893""
","
",,null,run_exp/static/images/task_images/gems/6.jpg,null,,,,,,,3,,,5,,,,,6,0.513993047,0.5,,,,,,,
decision,164,507170,0.0-53.0-2.0,"""event"",""trial"",""time""
""fullscreenenter"",""1"",""1893""
","
","
","""event"",""trial"",""time""
""fullscreenenter"",""1"",""1893""
","
",,1909.5,run_exp/static/images/task_images/land.jpg,65,,,,,,,3,,,5,,,,,,,,191455,1,4,FALSE,,,
dig,165,508269,0.0-54.0-0.0,"""event"",""trial"",""time""
""fullscreenenter"",""1"",""1893""
","
","
","""event"",""trial"",""time""
""fullscreenenter"",""1"",""1893""
","
",,,,,,,,,,,,"[{""stimulus"":""run_exp/static/images/task_images/dig.jpg"",""time"":0.29999999701976776},{""stimulus"":""run_exp/static/images/task_images/land.jpg"",""time"":382.5},{""stimulus"":""run_exp/static/images/task_images/dig.jpg"",""time"":742.7999999970198}]",[],5,,,,,,,,,,,,,,
harvest,166,509279,0.0-54.0-1.0,"""event"",""trial"",""time""
""fullscreenenter"",""1"",""1893""
","
","
","""event"",""trial"",""time""
""fullscreenenter"",""1"",""1893""
","
",,null,run_exp/static/images/task_images/gems/3.jpg,null,,,,,,,1,,,5,,,,,3,0.431437008,0.333333333,,,,,,,
decision,167,510259,0.0-54.0-2.0,"""event"",""trial"",""time""
""fullscreenenter"",""1"",""1893""
","
","
","""event"",""trial"",""time""
""fullscreenenter"",""1"",""1893""
","
",,977.6,run_exp/static/images/task_images/land.jpg,65,,,,,,,1,,,5,,,,,,,,194544,1,5,FALSE,,,
dig,168,512289,0.0-55.0-0.0,"""event"",""trial"",""time""
""fullscreenenter"",""1"",""1893""
","
","
","""event"",""trial"",""time""
""fullscreenenter"",""1"",""1893""
","
",,,,,,,,,,,,"[{""stimulus"":""run_exp/static/images/task_images/dig.jpg"",""time"":0.30000001192092896},{""stimulus"":""run_exp/static/images/task_images/land.jpg"",""time"":685.1000000089407},{""stimulus"":""run_exp/static/images/task_images/dig.jpg"",""time"":1359.800000011921}]",[],5,,,,,,,,,,,,,,
harvest,169,513299,0.0-55.0-1.0,"""event"",""trial"",""time""
""fullscreenenter"",""1"",""1893""
","
","
","""event"",""trial"",""time""
""fullscreenenter"",""1"",""1893""
","
",,null,run_exp/static/images/task_images/gems/1.jpg,null,,,,,,,1,,,5,,,,,1,0.606622663,1,,,,,,,
decision,170,514518,0.0-55.0-2.0,"""event"",""trial"",""time""
""fullscreenenter"",""1"",""1893""
","
","
","""event"",""trial"",""time""
""fullscreenenter"",""1"",""1893""
","
",,1217.4,run_exp/static/images/task_images/land.jpg,76,,,,,,,1,,,5,,,,,,,,198803,1,6,TRUE,,,
travel,171,523309,0.0-56.0-0.0,"""event"",""trial"",""time""
""fullscreenenter"",""1"",""1893""
","
","
","""event"",""trial"",""time""
""fullscreenenter"",""1"",""1893""
","
",,,,,,,,,,,,"[{""stimulus"":""run_exp/static/images/task_images/rocket-01.jpg"",""time"":0.20000000298023224},{""stimulus"":""run_exp/static/images/task_images/rocket-02.jpg"",""time"":989.7999999970198},{""stimulus"":""run_exp/static/images/task_images/rocket-03.jpg"",""time"":1954.7999999970198},{""stimulus"":""run_exp/static/images/task_images/rocket-04.jpg"",""time"":2944.7999999970198},{""stimulus"":""run_exp/static/images/task_images/rocket-05.jpg"",""time"":3914.5999999940395},{""stimulus"":""run_exp/static/images/task_images/rocket-06.jpg"",""time"":4894.9000000059605},{""stimulus"":""run_exp/static/images/task_images/rocket-07.jpg"",""time"":5854.5999999940395},{""stimulus"":""run_exp/static/images/task_images/rocket-08.jpg"",""time"":6832.0999999940395},{""stimulus"":""run_exp/static/images/task_images/rocket-09.jpg"",""time"":7804.70000000298}]",[],5,,,,,,,,,,,,,,
alien_welcome,172,528329,0.0-56.0-1.0,"""event"",""trial"",""time""
""fullscreenenter"",""1"",""1893""
","
","
","""event"",""trial"",""time""
""fullscreenenter"",""1"",""1893""
","
",,null,run_exp/static/images/task_images/aliens/old_aliens/planet/alien_planet-4.jpg,null,,,,,,,,,,,,,4,"26,56,76,47,20,4,25,43,49,12,29,61,6,77,50,24,78,48,18,5,80,75,10,79,19,46,44,31",,,,,,,,,,
land,173,528849,0.0-56.0-2.0,"""event"",""trial"",""time""
""fullscreenenter"",""1"",""1893""
","
","
","""event"",""trial"",""time""
""fullscreenenter"",""1"",""1893""
","
",,null,run_exp/static/images/task_images/land.jpg,null,,,,,,,94,,,6,,,,,,,,,,,,,,
dig,174,530859,0.0-56.0-3.0,"""event"",""trial"",""time""
""fullscreenenter"",""1"",""1893""
","
","
","""event"",""trial"",""time""
""fullscreenenter"",""1"",""1893""
","
",,,,,,,,,,,,"[{""stimulus"":""run_exp/static/images/task_images/dig.jpg"",""time"":0.29999999701976776},{""stimulus"":""run_exp/static/images/task_images/land.jpg"",""time"":677.9000000059605},{""stimulus"":""run_exp/static/images/task_images/dig.jpg"",""time"":1347.7000000029802}]",[],6,,,,,,,,,,,,,,
harvest,175,531879,0.0-56.0-4.0,"""event"",""trial"",""time""
""fullscreenenter"",""1"",""1893""
","
","
","""event"",""trial"",""time""
""fullscreenenter"",""1"",""1893""
","
",,null,run_exp/static/images/task_images/gems/94.jpg,null,,,,,,,78,,,6,,,,,94,0.830060468,0.829787234,,,,,,,
decision,176,532425,0.0-56.0-5.0,"""event"",""trial"",""time""
""fullscreenenter"",""1"",""1893""
","
","
","""event"",""trial"",""time""
""fullscreenenter"",""1"",""1893""
","
",,544.3,run_exp/static/images/task_images/land.jpg,65,,,,,,,78,,,6,,,,,,,,216711,1,0,FALSE,,,
dig,177,534899,0.0-57.0-0.0,"""event"",""trial"",""time""
""fullscreenenter"",""1"",""1893""
","
","
","""event"",""trial"",""time""
""fullscreenenter"",""1"",""1893""
","
",,,,,,,,,,,,"[{""stimulus"":""run_exp/static/images/task_images/dig.jpg"",""time"":0.30000001192092896},{""stimulus"":""run_exp/static/images/task_images/land.jpg"",""time"":827.2000000029802},{""stimulus"":""run_exp/static/images/task_images/dig.jpg"",""time"":1656.9000000059605}]",[],6,,,,,,,,,,,,,,
harvest,178,535919,0.0-57.0-1.0,"""event"",""trial"",""time""
""fullscreenenter"",""1"",""1893""
","
","
","""event"",""trial"",""time""
""fullscreenenter"",""1"",""1893""
","
",,null,run_exp/static/images/task_images/gems/78.jpg,null,,,,,,,63,,,6,,,,,78,0.805773717,0.807692308,,,,,,,
decision,179,536277,0.0-57.0-2.0,"""event"",""trial"",""time""
""fullscreenenter"",""1"",""1893""
","
","
","""event"",""trial"",""time""
""fullscreenenter"",""1"",""1893""
","
",,356,run_exp/static/images/task_images/land.jpg,65,,,,,,,63,,,6,,,,,,,,220562,1,1,FALSE,,,
dig,180,538928,0.0-58.0-0.0,"""event"",""trial"",""time""
""fullscreenenter"",""1"",""1893""
","
","
","""event"",""trial"",""time""
""fullscreenenter"",""1"",""1893""
","
",,,,,,,,,,,,"[{""stimulus"":""run_exp/static/images/task_images/dig.jpg"",""time"":0.29999999701976776},{""stimulus"":""run_exp/static/images/task_images/land.jpg"",""time"":896.2999999970198},{""stimulus"":""run_exp/static/images/task_images/dig.jpg"",""time"":1766.4000000059605}]",[],6,,,,,,,,,,,,,,
harvest,181,539939,0.0-58.0-1.0,"""event"",""trial"",""time""
""fullscreenenter"",""1"",""1893""
","
","
","""event"",""trial"",""time""
""fullscreenenter"",""1"",""1893""
","
",,null,run_exp/static/images/task_images/gems/63.jpg,null,,,,,,,51,,,6,,,,,63,0.804230557,0.80952381,,,,,,,
decision,182,539969,0.0-58.0-2.0,"""event"",""trial"",""time""
""fullscreenenter"",""1"",""1893""
","
","
","""event"",""trial"",""time""
""fullscreenenter"",""1"",""1893""
","
",,28.09999999,run_exp/static/images/task_images/land.jpg,65,,,,,,,51,,,6,,,,,,,,224254,1,2,FALSE,,,
dig,183,542948,0.0-59.0-0.0,"""event"",""trial"",""time""
""fullscreenenter"",""1"",""1893""
","
","
","""event"",""trial"",""time""
""fullscreenenter"",""1"",""1893""
","
",,,,,,,,,,,,"[{""stimulus"":""run_exp/static/images/task_images/dig.jpg"",""time"":0.29999999701976776},{""stimulus"":""run_exp/static/images/task_images/land.jpg"",""time"":1004.2999999970198},{""stimulus"":""run_exp/static/images/task_images/dig.jpg"",""time"":1994.0999999940395}]",[],6,,,,,,,,,,,,,,
harvest,184,543959,0.0-59.0-1.0,"""event"",""trial"",""time""
""fullscreenenter"",""1"",""1893""
","
","
","""event"",""trial"",""time""
""fullscreenenter"",""1"",""1893""
","
",,null,run_exp/static/images/task_images/gems/51.jpg,null,,,,,,,42,,,6,,,,,51,0.830080167,0.823529412,,,,,,,
decision,185,544652,0.0-59.0-2.0,"""event"",""trial"",""time""
""fullscreenenter"",""1"",""1893""
","
","
","""event"",""trial"",""time""
""fullscreenenter"",""1"",""1893""
","
",,690.5,run_exp/static/images/task_images/land.jpg,65,,,,,,,42,,,6,,,,,,,,228937,1,3,FALSE,,,
dig,186,546969,0.0-60.0-0.0,"""event"",""trial"",""time""
""fullscreenenter"",""1"",""1893""
","
","
","""event"",""trial"",""time""
""fullscreenenter"",""1"",""1893""
","
",,,,,,,,,,,,"[{""stimulus"":""run_exp/static/images/task_images/dig.jpg"",""time"":0.20000000298023224},{""stimulus"":""run_exp/static/images/task_images/land.jpg"",""time"":771.0999999940395},{""stimulus"":""run_exp/static/images/task_images/dig.jpg"",""time"":1551.3999999910593}]",[],6,,,,,,,,,,,,,,
harvest,187,547979,0.0-60.0-1.0,"""event"",""trial"",""time""
""fullscreenenter"",""1"",""1893""
","
","
","""event"",""trial"",""time""
""fullscreenenter"",""1"",""1893""
","
",,null,run_exp/static/images/task_images/gems/42.jpg,null,,,,,,,32,,,6,,,,,42,0.75852602,0.761904762,,,,,,,
decision,188,548202,0.0-60.0-2.0,"""event"",""trial"",""time""
""fullscreenenter"",""1"",""1893""
","
","
","""event"",""trial"",""time""
""fullscreenenter"",""1"",""1893""
","
",,221.4,run_exp/static/images/task_images/land.jpg,65,,,,,,,32,,,6,,,,,,,,232487,1,4,FALSE,,,
dig,189,550989,0.0-61.0-0.0,"""event"",""trial"",""time""
""fullscreenenter"",""1"",""1893""
","
","
","""event"",""trial"",""time""
""fullscreenenter"",""1"",""1893""
","
",,,,,,,,,,,,"[{""stimulus"":""run_exp/static/images/task_images/dig.jpg"",""time"":0.30000001192092896},{""stimulus"":""run_exp/static/images/task_images/land.jpg"",""time"":934.4000000059605},{""stimulus"":""run_exp/static/images/task_images/dig.jpg"",""time"":1861.2000000029802}]",[],6,,,,,,,,,,,,,,
harvest,190,552009,0.0-61.0-1.0,"""event"",""trial"",""time""
""fullscreenenter"",""1"",""1893""
","
","
","""event"",""trial"",""time""
""fullscreenenter"",""1"",""1893""
","
",,null,run_exp/static/images/task_images/gems/32.jpg,null,,,,,,,28,,,6,,,,,32,0.874057711,0.875,,,,,,,
decision,191,552071,0.0-61.0-2.0,"""event"",""trial"",""time""
""fullscreenenter"",""1"",""1893""
","
","
","""event"",""trial"",""time""
""fullscreenenter"",""1"",""1893""
","
",,60,run_exp/static/images/task_images/land.jpg,65,,,,,,,28,,,6,,,,,,,,236356,1,5,FALSE,,,
dig,192,555028,0.0-62.0-0.0,"""event"",""trial"",""time""
""fullscreenenter"",""1"",""1893""
","
","
","""event"",""trial"",""time""
""fullscreenenter"",""1"",""1893""
","
",,,,,,,,,,,,"[{""stimulus"":""run_exp/static/images/task_images/dig.jpg"",""time"":0.29999999701976776},{""stimulus"":""run_exp/static/images/task_images/land.jpg"",""time"":982.0999999940395},{""stimulus"":""run_exp/static/images/task_images/dig.jpg"",""time"":1981.8999999910593}]",[],6,,,,,,,,,,,,,,
harvest,193,556038,0.0-62.0-1.0,"""event"",""trial"",""time""
""fullscreenenter"",""1"",""1893""
","
","
","""event"",""trial"",""time""
""fullscreenenter"",""1"",""1893""
","
",,null,run_exp/static/images/task_images/gems/28.jpg,null,,,,,,,23,,,6,,,,,28,0.809519052,0.821428571,,,,,,,
decision,194,556237,0.0-62.0-2.0,"""event"",""trial"",""time""
""fullscreenenter"",""1"",""1893""
","
","
","""event"",""trial"",""time""
""fullscreenenter"",""1"",""1893""
","
",,196.7,run_exp/static/images/task_images/land.jpg,65,,,,,,,23,,,6,,,,,,,,240522,1,6,FALSE,,,
dig,195,559058,0.0-63.0-0.0,"""event"",""trial"",""time""
""fullscreenenter"",""1"",""1893""
","
","
","""event"",""trial"",""time""
""fullscreenenter"",""1"",""1893""
","
",,,,,,,,,,,,"[{""stimulus"":""run_exp/static/images/task_images/dig.jpg"",""time"":0.29999999701976776},{""stimulus"":""run_exp/static/images/task_images/land.jpg"",""time"":945.2000000029802},{""stimulus"":""run_exp/static/images/task_images/dig.jpg"",""time"":1885.6000000089407}]",[],6,,,,,,,,,,,,,,
harvest,196,560078,0.0-63.0-1.0,"""event"",""trial"",""time""
""fullscreenenter"",""1"",""1893""
","
","
","""event"",""trial"",""time""
""fullscreenenter"",""1"",""1893""
","
",,null,run_exp/static/images/task_images/gems/23.jpg,null,,,,,,,17,,,6,,,,,23,0.72153006,0.739130435,,,,,,,
decision,197,560112,0.0-63.0-2.0,"""event"",""trial"",""time""
""fullscreenenter"",""1"",""1893""
","
","
","""event"",""trial"",""time""
""fullscreenenter"",""1"",""1893""
","
",,31.60000001,run_exp/static/images/task_images/land.jpg,65,,,,,,,17,,,6,,,,,,,,244397,1,7,FALSE,,,
dig,198,563088,0.0-64.0-0.0,"""event"",""trial"",""time""
""fullscreenenter"",""1"",""1893""
","
","
","""event"",""trial"",""time""
""fullscreenenter"",""1"",""1893""
","
",,,,,,,,,,,,"[{""stimulus"":""run_exp/static/images/task_images/dig.jpg"",""time"":0.29999999701976776},{""stimulus"":""run_exp/static/images/task_images/land.jpg"",""time"":991},{""stimulus"":""run_exp/static/images/task_images/dig.jpg"",""time"":1990.8999999910593}]",[],6,,,,,,,,,,,,,,
harvest,199,564108,0.0-64.0-1.0,"""event"",""trial"",""time""
""fullscreenenter"",""1"",""1893""
","
","
","""event"",""trial"",""time""
""fullscreenenter"",""1"",""1893""
","
",,null,run_exp/static/images/task_images/gems/17.jpg,null,,,,,,,13,,,6,,,,,17,0.737240466,0.764705882,,,,,,,
decision,200,565384,0.0-64.0-2.0,"""event"",""trial"",""time""
""fullscreenenter"",""1"",""1893""
","
","
","""event"",""trial"",""time""
""fullscreenenter"",""1"",""1893""
","
",,1273.4,run_exp/static/images/task_images/land.jpg,65,,,,,,,13,,,6,,,,,,,,249669,1,8,FALSE,,,
dig,201,567118,0.0-65.0-0.0,"""event"",""trial"",""time""
""fullscreenenter"",""1"",""1893""
","
","
","""event"",""trial"",""time""
""fullscreenenter"",""1"",""1893""
","
",,,,,,,,,,,,"[{""stimulus"":""run_exp/static/images/task_images/dig.jpg"",""time"":0.29999999701976776},{""stimulus"":""run_exp/static/images/task_images/land.jpg"",""time"":578.7000000029802},{""stimulus"":""run_exp/static/images/task_images/dig.jpg"",""time"":1155.5}]",[],6,,,,,,,,,,,,,,
harvest,202,568139,0.0-65.0-1.0,"""event"",""trial"",""time""
""fullscreenenter"",""1"",""1893""
","
","
","""event"",""trial"",""time""
""fullscreenenter"",""1"",""1893""
","
",,null,run_exp/static/images/task_images/gems/13.jpg,null,,,,,,,10,,,6,,,,,13,0.781085908,0.769230769,,,,,,,
decision,203,568459,0.0-65.0-2.0,"""event"",""trial"",""time""
""fullscreenenter"",""1"",""1893""
","
","
","""event"",""trial"",""time""
""fullscreenenter"",""1"",""1893""
","
",,317.5,run_exp/static/images/task_images/land.jpg,65,,,,,,,10,,,6,,,,,,,,252744,1,9,FALSE,,,
dig,204,571159,0.0-66.0-0.0,"""event"",""trial"",""time""
""fullscreenenter"",""1"",""1893""
","
","
","""event"",""trial"",""time""
""fullscreenenter"",""1"",""1893""
","
",,,,,,,,,,,,"[{""stimulus"":""run_exp/static/images/task_images/dig.jpg"",""time"":0.20000000298023224},{""stimulus"":""run_exp/static/images/task_images/land.jpg"",""time"":915},{""stimulus"":""run_exp/static/images/task_images/dig.jpg"",""time"":1805}]",[],6,,,,,,,,,,,,,,
harvest,205,572170,0.0-66.0-1.0,"""event"",""trial"",""time""
""fullscreenenter"",""1"",""1893""
","
","
","""event"",""trial"",""time""
""fullscreenenter"",""1"",""1893""
","
",,null,run_exp/static/images/task_images/gems/10.jpg,null,,,,,,,9,,,6,,,,,10,0.893037923,0.9,,,,,,,
decision,206,572729,0.0-66.0-2.0,"""event"",""trial"",""time""
""fullscreenenter"",""1"",""1893""
","
","
","""event"",""trial"",""time""
""fullscreenenter"",""1"",""1893""
","
",,557.6,run_exp/static/images/task_images/land.jpg,65,,,,,,,9,,,6,,,,,,,,257015,1,10,FALSE,,,
dig,207,575189,0.0-67.0-0.0,"""event"",""trial"",""time""
""fullscreenenter"",""1"",""1893""
","
","
","""event"",""trial"",""time""
""fullscreenenter"",""1"",""1893""
","
",,,,,,,,,,,,"[{""stimulus"":""run_exp/static/images/task_images/dig.jpg"",""time"":0.20000000298023224},{""stimulus"":""run_exp/static/images/task_images/land.jpg"",""time"":824.2999999970198},{""stimulus"":""run_exp/static/images/task_images/dig.jpg"",""time"":1634.2000000029802}]",[],6,,,,,,,,,,,,,,
harvest,208,576200,0.0-67.0-1.0,"""event"",""trial"",""time""
""fullscreenenter"",""1"",""1893""
","
","
","""event"",""trial"",""time""
""fullscreenenter"",""1"",""1893""
","
",,null,run_exp/static/images/task_images/gems/9.jpg,null,,,,,,,7,,,6,,,,,9,0.723060947,0.777777778,,,,,,,
decision,209,576916,0.0-67.0-2.0,"""event"",""trial"",""time""
""fullscreenenter"",""1"",""1893""
","
","
","""event"",""trial"",""time""
""fullscreenenter"",""1"",""1893""
","
",,714.7,run_exp/static/images/task_images/land.jpg,65,,,,,,,7,,,6,,,,,,,,261201,1,11,FALSE,,,
dig,210,579220,0.0-68.0-0.0,"""event"",""trial"",""time""
""fullscreenenter"",""1"",""1893""
","
","
","""event"",""trial"",""time""
""fullscreenenter"",""1"",""1893""
","
",,,,,,,,,,,,"[{""stimulus"":""run_exp/static/images/task_images/dig.jpg"",""time"":0.4000000059604645},{""stimulus"":""run_exp/static/images/task_images/land.jpg"",""time"":767.7999999970198},{""stimulus"":""run_exp/static/images/task_images/dig.jpg"",""time"":1527.7999999970198}]",[],6,,,,,,,,,,,,,,
harvest,211,580230,0.0-68.0-1.0,"""event"",""trial"",""time""
""fullscreenenter"",""1"",""1893""
","
","
","""event"",""trial"",""time""
""fullscreenenter"",""1"",""1893""
","
",,null,run_exp/static/images/task_images/gems/7.jpg,null,,,,,,,5,,,6,,,,,7,0.761422459,0.714285714,,,,,,,
decision,212,580379,0.0-68.0-2.0,"""event"",""trial"",""time""
""fullscreenenter"",""1"",""1893""
","
","
","""event"",""trial"",""time""
""fullscreenenter"",""1"",""1893""
","
",,147.1,run_exp/static/images/task_images/land.jpg,65,,,,,,,5,,,6,,,,,,,,264664,1,12,FALSE,,,
dig,213,583249,0.0-69.0-0.0,"""event"",""trial"",""time""
""fullscreenenter"",""1"",""1893""
","
","
","""event"",""trial"",""time""
""fullscreenenter"",""1"",""1893""
","
",,,,,,,,,,,,"[{""stimulus"":""run_exp/static/images/task_images/dig.jpg"",""time"":0.29999999701976776},{""stimulus"":""run_exp/static/images/task_images/land.jpg"",""time"":955.1000000089407},{""stimulus"":""run_exp/static/images/task_images/dig.jpg"",""time"":1905.1000000089407}]",[],6,,,,,,,,,,,,,,
harvest,214,584259,0.0-69.0-1.0,"""event"",""trial"",""time""
""fullscreenenter"",""1"",""1893""
","
","
","""event"",""trial"",""time""
""fullscreenenter"",""1"",""1893""
","
",,null,run_exp/static/images/task_images/gems/5.jpg,null,,,,,,,4,,,6,,,,,5,0.849844096,0.8,,,,,,,
decision,215,585566,0.0-69.0-2.0,"""event"",""trial"",""time""
""fullscreenenter"",""1"",""1893""
","
","
","""event"",""trial"",""time""
""fullscreenenter"",""1"",""1893""
","
",,1305.8,run_exp/static/images/task_images/land.jpg,65,,,,,,,4,,,6,,,,,,,,269851,1,13,FALSE,,,
dig,216,587270,0.0-70.0-0.0,"""event"",""trial"",""time""
""fullscreenenter"",""1"",""1893""
","
","
","""event"",""trial"",""time""
""fullscreenenter"",""1"",""1893""
","
",,,,,,,,,,,,"[{""stimulus"":""run_exp/static/images/task_images/dig.jpg"",""time"":0.20000000298023224},{""stimulus"":""run_exp/static/images/task_images/land.jpg"",""time"":587.3999999910593},{""stimulus"":""run_exp/static/images/task_images/dig.jpg"",""time"":1147.5}]",[],6,,,,,,,,,,,,,,
harvest,217,588279,0.0-70.0-1.0,"""event"",""trial"",""time""
""fullscreenenter"",""1"",""1893""
","
","
","""event"",""trial"",""time""
""fullscreenenter"",""1"",""1893""
","
",,null,run_exp/static/images/task_images/gems/4.jpg,null,,,,,,,3,,,6,,,,,4,0.812179772,0.75,,,,,,,
decision,218,588448,0.0-70.0-2.0,"""event"",""trial"",""time""
""fullscreenenter"",""1"",""1893""
","
","
","""event"",""trial"",""time""
""fullscreenenter"",""1"",""1893""
","
",,166.5,run_exp/static/images/task_images/land.jpg,65,,,,,,,3,,,6,,,,,,,,272733,1,14,FALSE,,,
dig,219,591299,0.0-71.0-0.0,"""event"",""trial"",""time""
""fullscreenenter"",""1"",""1893""
","
","
","""event"",""trial"",""time""
""fullscreenenter"",""1"",""1893""
","
",,,,,,,,,,,,"[{""stimulus"":""run_exp/static/images/task_images/dig.jpg"",""time"":0.20000000298023224},{""stimulus"":""run_exp/static/images/task_images/land.jpg"",""time"":956},{""stimulus"":""run_exp/static/images/task_images/dig.jpg"",""time"":1895.9000000059605}]",[],6,,,,,,,,,,,,,,
harvest,220,592310,0.0-71.0-1.0,"""event"",""trial"",""time""
""fullscreenenter"",""1"",""1893""
","
","
","""event"",""trial"",""time""
""fullscreenenter"",""1"",""1893""
","
",,null,run_exp/static/images/task_images/gems/3.jpg,null,,,,,,,2,,,6,,,,,3,0.797171415,0.666666667,,,,,,,
decision,221,592969,0.0-71.0-2.0,"""event"",""trial"",""time""
""fullscreenenter"",""1"",""1893""
","
","
","""event"",""trial"",""time""
""fullscreenenter"",""1"",""1893""
","
",,657.3,run_exp/static/images/task_images/land.jpg,65,,,,,,,2,,,6,,,,,,,,277254,1,15,FALSE,,,
dig,222,595319,0.0-72.0-0.0,"""event"",""trial"",""time""
""fullscreenenter"",""1"",""1893""
","
","
","""event"",""trial"",""time""
""fullscreenenter"",""1"",""1893""
","
",,,,,,,,,,,,"[{""stimulus"":""run_exp/static/images/task_images/dig.jpg"",""time"":0.30000001192092896},{""stimulus"":""run_exp/static/images/task_images/land.jpg"",""time"":787.1000000089407},{""stimulus"":""run_exp/static/images/task_images/dig.jpg"",""time"":1574.4000000059605}]",[],6,,,,,,,,,,,,,,
harvest,223,596330,0.0-72.0-1.0,"""event"",""trial"",""time""
""fullscreenenter"",""1"",""1893""
","
","
","""event"",""trial"",""time""
""fullscreenenter"",""1"",""1893""
","
",,null,run_exp/static/images/task_images/gems/2.jpg,null,,,,,,,1,,,6,,,,,2,0.742041514,0.5,,,,,,,
decision,224,597685,0.0-72.0-2.0,"""event"",""trial"",""time""
""fullscreenenter"",""1"",""1893""
","
","
","""event"",""trial"",""time""
""fullscreenenter"",""1"",""1893""
","
",,1353.4,run_exp/static/images/task_images/land.jpg,76,,,,,,,1,,,6,,,,,,,,281970,1,16,TRUE,,,
travel,225,606339,0.0-73.0-0.0,"""event"",""trial"",""time""
""fullscreenenter"",""1"",""1893""
","
","
","""event"",""trial"",""time""
""fullscreenenter"",""1"",""1893""
","
",,,,,,,,,,,,"[{""stimulus"":""run_exp/static/images/task_images/rocket-01.jpg"",""time"":0.29999999701976776},{""stimulus"":""run_exp/static/images/task_images/rocket-02.jpg"",""time"":978.2999999970198},{""stimulus"":""run_exp/static/images/task_images/rocket-03.jpg"",""time"":1928.2000000029802},{""stimulus"":""run_exp/static/images/task_images/rocket-04.jpg"",""time"":2887.9000000059605},{""stimulus"":""run_exp/static/images/task_images/rocket-05.jpg"",""time"":3858.2000000029802},{""stimulus"":""run_exp/static/images/task_images/rocket-06.jpg"",""time"":4818.29999999702},{""stimulus"":""run_exp/static/images/task_images/rocket-07.jpg"",""time"":5778.29999999702},{""stimulus"":""run_exp/static/images/task_images/rocket-08.jpg"",""time"":6728.20000000298},{""stimulus"":""run_exp/static/images/task_images/rocket-09.jpg"",""time"":7688.100000008941}]",[],6,,,,,,,,,,,,,,
alien_welcome,226,611349,0.0-73.0-1.0,"""event"",""trial"",""time""
""fullscreenenter"",""1"",""1893""
","
","
","""event"",""trial"",""time""
""fullscreenenter"",""1"",""1893""
","
",,null,run_exp/static/images/task_images/aliens/old_aliens/planet/alien_planet-25.jpg,null,,,,,,,,,,,,,25,"26,56,76,47,20,4,25,43,49,12,29,61,6,77,50,24,78,48,18,5,80,75,10,79,19,46,44,31",,,,,,,,,,
land,227,611860,0.0-73.0-2.0,"""event"",""trial"",""time""
""fullscreenenter"",""1"",""1893""
","
","
","""event"",""trial"",""time""
""fullscreenenter"",""1"",""1893""
","
",,null,run_exp/static/images/task_images/land.jpg,null,,,,,,,95,,,7,,,,,,,,,,,,,,
dig,228,613869,0.0-73.0-3.0,"""event"",""trial"",""time""
""fullscreenenter"",""1"",""1893""
","
","
","""event"",""trial"",""time""
""fullscreenenter"",""1"",""1893""
","
",,,,,,,,,,,,"[{""stimulus"":""run_exp/static/images/task_images/dig.jpg"",""time"":0.5},{""stimulus"":""run_exp/static/images/task_images/land.jpg"",""time"":687.9000000059605},{""stimulus"":""run_exp/static/images/task_images/dig.jpg"",""time"":1337.800000011921}]",[],7,,,,,,,,,,,,,,
harvest,229,614880,0.0-73.0-4.0,"""event"",""trial"",""time""
""fullscreenenter"",""1"",""1893""
","
","
","""event"",""trial"",""time""
""fullscreenenter"",""1"",""1893""
","
",,null,run_exp/static/images/task_images/gems/95.jpg,null,,,,,,,82,,,7,,,,,95,0.863460619,0.863157895,,,,,,,
decision,230,616459,0.0-73.0-5.0,"""event"",""trial"",""time""
""fullscreenenter"",""1"",""1893""
","
","
","""event"",""trial"",""time""
""fullscreenenter"",""1"",""1893""
","
",,1577.5,run_exp/static/images/task_images/land.jpg,65,,,,,,,82,,,7,,,,,,,,300744,1,0,TRUE,,,
end_of_block_continue,231,619689,0.0-74.0-0.0,"""event"",""trial"",""time""
""fullscreenenter"",""1"",""1893""
","
","
","""event"",""trial"",""time""
""fullscreenenter"",""1"",""1893""
","
",,3223.1,run_exp/static/audio/clip_32_block_end.m4a,,,,,,,0,,,,,,,,,,,,,,,,,,
alien_welcome,232,624709,0.0-75.0-0.0,"""event"",""trial"",""time""
""fullscreenenter"",""1"",""1893""
","
","
","""event"",""trial"",""time""
""fullscreenenter"",""1"",""1893""
","
",,null,run_exp/static/images/task_images/aliens/old_aliens/planet/alien_planet-43.jpg,null,,,,,,,,,,,,,43,"26,56,76,47,20,4,25,43,49,12,29,61,6,77,50,24,78,48,18,5,80,75,10,79,19,46,44,31",,,,,,,,,,
land,233,625219,0.0-75.0-1.0,"""event"",""trial"",""time""
""fullscreenenter"",""1"",""1893""
","
","
","""event"",""trial"",""time""
""fullscreenenter"",""1"",""1893""
","
",,null,run_exp/static/images/task_images/land.jpg,null,,,,,,,101,,,8,,,,,,,,,,,,,,
dig,234,627239,0.0-75.0-2.0,"""event"",""trial"",""time""
""fullscreenenter"",""1"",""1893""
","
","
","""event"",""trial"",""time""
""fullscreenenter"",""1"",""1893""
","
",,,,,,,,,,,,"[{""stimulus"":""run_exp/static/images/task_images/dig.jpg"",""time"":0.4000000059604645},{""stimulus"":""run_exp/static/images/task_images/land.jpg"",""time"":677.5},{""stimulus"":""run_exp/static/images/task_images/dig.jpg"",""time"":1337.9000000059605}]",[],8,,,,,,,,,,,,,,
harvest,235,628249,0.0-75.0-3.0,"""event"",""trial"",""time""
""fullscreenenter"",""1"",""1893""
","
","
","""event"",""trial"",""time""
""fullscreenenter"",""1"",""1893""
","
",,null,run_exp/static/images/task_images/gems/101.jpg,null,,,,,,,22,,,8,,,,,101,0.219229573,0.217821782,,,,,,,
decision,236,629403,0.0-75.0-4.0,"""event"",""trial"",""time""
""fullscreenenter"",""1"",""1893""
","
","
","""event"",""trial"",""time""
""fullscreenenter"",""1"",""1893""
","
",,1151.5,run_exp/static/images/task_images/land.jpg,65,,,,,,,22,,,8,,,,,,,,9711,2,0,FALSE,,,
dig,237,631279,0.0-76.0-0.0,"""event"",""trial"",""time""
""fullscreenenter"",""1"",""1893""
","
","
","""event"",""trial"",""time""
""fullscreenenter"",""1"",""1893""
","
",,,,,,,,,,,,"[{""stimulus"":""run_exp/static/images/task_images/dig.jpg"",""time"":0.4000000059604645},{""stimulus"":""run_exp/static/images/task_images/land.jpg"",""time"":629.5},{""stimulus"":""run_exp/static/images/task_images/dig.jpg"",""time"":1239.4000000059605}]",[],8,,,,,,,,,,,,,,
harvest,238,632299,0.0-76.0-1.0,"""event"",""trial"",""time""
""fullscreenenter"",""1"",""1893""
","
","
","""event"",""trial"",""time""
""fullscreenenter"",""1"",""1893""
","
",,null,run_exp/static/images/task_images/gems/22.jpg,null,,,,,,,3,,,8,,,,,22,0.139088387,0.136363636,,,,,,,
decision,239,633560,0.0-76.0-2.0,"""event"",""trial"",""time""
""fullscreenenter"",""1"",""1893""
","
","
","""event"",""trial"",""time""
""fullscreenenter"",""1"",""1893""
","
",,1258.8,run_exp/static/images/task_images/land.jpg,65,,,,,,,3,,,8,,,,,,,,13868,2,1,FALSE,,,
dig,240,635309,0.0-77.0-0.0,"""event"",""trial"",""time""
""fullscreenenter"",""1"",""1893""
","
","
","""event"",""trial"",""time""
""fullscreenenter"",""1"",""1893""
","
",,,,,,,,,,,,"[{""stimulus"":""run_exp/static/images/task_images/dig.jpg"",""time"":0.20000000298023224},{""stimulus"":""run_exp/static/images/task_images/land.jpg"",""time"":592.2999999970198},{""stimulus"":""run_exp/static/images/task_images/dig.jpg"",""time"":1162.7000000029802}]",[],8,,,,,,,,,,,,,,
harvest,241,636317,0.0-77.0-1.0,"""event"",""trial"",""time""
""fullscreenenter"",""1"",""1893""
","
","
","""event"",""trial"",""time""
""fullscreenenter"",""1"",""1893""
","
",,null,run_exp/static/images/task_images/gems/3.jpg,null,,,,,,,1,,,8,,,,,3,0.223988171,0.333333333,,,,,,,
decision,242,637803,0.0-77.0-2.0,"""event"",""trial"",""time""
""fullscreenenter"",""1"",""1893""
","
","
","""event"",""trial"",""time""
""fullscreenenter"",""1"",""1893""
","
",,1484,run_exp/static/images/task_images/land.jpg,65,,,,,,,1,,,8,,,,,,,,18111,2,2,FALSE,,,
dig,243,639339,0.0-78.0-0.0,"""event"",""trial"",""time""
""fullscreenenter"",""1"",""1893""
","
","
","""event"",""trial"",""time""
""fullscreenenter"",""1"",""1893""
","
",,,,,,,,,,,,"[{""stimulus"":""run_exp/static/images/task_images/dig.jpg"",""time"":0.19999998807907104},{""stimulus"":""run_exp/static/images/task_images/land.jpg"",""time"":509.09999999403954},{""stimulus"":""run_exp/static/images/task_images/dig.jpg"",""time"":1019.5}]",[],8,,,,,,,,,,,,,,
harvest,244,640342,0.0-78.0-1.0,"""event"",""trial"",""time""
""fullscreenenter"",""1"",""1893""
","
","
","""event"",""trial"",""time""
""fullscreenenter"",""1"",""1893""
","
",,null,run_exp/static/images/task_images/gems/1.jpg,null,,,,,,,0,,,8,,,,,1,0.216877657,0,,,,,,,
decision,245,640946,0.0-78.0-2.0,"""event"",""trial"",""time""
""fullscreenenter"",""1"",""1893""
","
","
","""event"",""trial"",""time""
""fullscreenenter"",""1"",""1893""
","
",,602.7,run_exp/static/images/task_images/land.jpg,65,,,,,,,0,,,8,,,,,,,,21254,2,3,FALSE,,,
dig,246,643359,0.0-79.0-0.0,"""event"",""trial"",""time""
""fullscreenenter"",""1"",""1893""
","
","
","""event"",""trial"",""time""
""fullscreenenter"",""1"",""1893""
","
",,,,,,,,,,,,"[{""stimulus"":""run_exp/static/images/task_images/dig.jpg"",""time"":0.29999999701976776},{""stimulus"":""run_exp/static/images/task_images/land.jpg"",""time"":806.4000000059605},{""stimulus"":""run_exp/static/images/task_images/dig.jpg"",""time"":1606.2999999970198}]",[],8,,,,,,,,,,,,,,
harvest,247,644379,0.0-79.0-1.0,"""event"",""trial"",""time""
""fullscreenenter"",""1"",""1893""
","
","
","""event"",""trial"",""time""
""fullscreenenter"",""1"",""1893""
","
",,null,run_exp/static/images/task_images/gems/0.jpg,null,,,,,,,0,,,8,,,,,0,0.328110704,NaN,,,,,,,
decision,248,644909,0.0-79.0-2.0,"""event"",""trial"",""time""
""fullscreenenter"",""1"",""1893""
","
","
","""event"",""trial"",""time""
""fullscreenenter"",""1"",""1893""
","
",,527.7,run_exp/static/images/task_images/land.jpg,65,,,,,,,0,,,8,,,,,,,,25217,2,4,FALSE,,,
dig,249,647399,0.0-80.0-0.0,"""event"",""trial"",""time""
""fullscreenenter"",""1"",""1893""
","
","
","""event"",""trial"",""time""
""fullscreenenter"",""1"",""1893""
","
",,,,,,,,,,,,"[{""stimulus"":""run_exp/static/images/task_images/dig.jpg"",""time"":0.20000000298023224},{""stimulus"":""run_exp/static/images/task_images/land.jpg"",""time"":844.2000000029802},{""stimulus"":""run_exp/static/images/task_images/dig.jpg"",""time"":1653.7999999970198}]",[],8,,,,,,,,,,,,,,
harvest,250,648419,0.0-80.0-1.0,"""event"",""trial"",""time""
""fullscreenenter"",""1"",""1893""
","
","
","""event"",""trial"",""time""
""fullscreenenter"",""1"",""1893""
","
",,null,run_exp/static/images/task_images/gems/0.jpg,null,,,,,,,0,,,8,,,,,0,0.137820926,NaN,,,,,,,
decision,251,648613,0.0-80.0-2.0,"""event"",""trial"",""time""
""fullscreenenter"",""1"",""1893""
","
","
","""event"",""trial"",""time""
""fullscreenenter"",""1"",""1893""
","
",,192.3,run_exp/static/images/task_images/land.jpg,65,,,,,,,0,,,8,,,,,,,,28921,2,5,FALSE,,,
dig,252,651439,0.0-81.0-0.0,"""event"",""trial"",""time""
""fullscreenenter"",""1"",""1893""
","
","
","""event"",""trial"",""time""
""fullscreenenter"",""1"",""1893""
","
",,,,,,,,,,,,"[{""stimulus"":""run_exp/static/images/task_images/dig.jpg"",""time"":0.20000000298023224},{""stimulus"":""run_exp/static/images/task_images/land.jpg"",""time"":949.0999999940395},{""stimulus"":""run_exp/static/images/task_images/dig.jpg"",""time"":1889.5}]",[],8,,,,,,,,,,,,,,
harvest,253,652449,0.0-81.0-1.0,"""event"",""trial"",""time""
""fullscreenenter"",""1"",""1893""
","
","
","""event"",""trial"",""time""
""fullscreenenter"",""1"",""1893""
","
",,null,run_exp/static/images/task_images/gems/0.jpg,null,,,,,,,0,,,8,,,,,0,0.134008481,NaN,,,,,,,
decision,254,653665,0.0-81.0-2.0,"""event"",""trial"",""time""
""fullscreenenter"",""1"",""1893""
","
","
","""event"",""trial"",""time""
""fullscreenenter"",""1"",""1893""
","
",,1213.6,run_exp/static/images/task_images/land.jpg,65,,,,,,,0,,,8,,,,,,,,33973,2,6,FALSE,,,
dig,255,655459,0.0-82.0-0.0,"""event"",""trial"",""time""
""fullscreenenter"",""1"",""1893""
","
","
","""event"",""trial"",""time""
""fullscreenenter"",""1"",""1893""
","
",,,,,,,,,,,,"[{""stimulus"":""run_exp/static/images/task_images/dig.jpg"",""time"":0.20000000298023224},{""stimulus"":""run_exp/static/images/task_images/land.jpg"",""time"":597.4000000059605},{""stimulus"":""run_exp/static/images/task_images/dig.jpg"",""time"":1197.7999999970198}]",[],8,,,,,,,,,,,,,,
harvest,256,656469,0.0-82.0-1.0,"""event"",""trial"",""time""
""fullscreenenter"",""1"",""1893""
","
","
","""event"",""trial"",""time""
""fullscreenenter"",""1"",""1893""
","
",,null,run_exp/static/images/task_images/gems/0.jpg,null,,,,,,,0,,,8,,,,,0,0.280630801,NaN,,,,,,,
decision,257,657783,0.0-82.0-2.0,"""event"",""trial"",""time""
""fullscreenenter"",""1"",""1893""
","
","
","""event"",""trial"",""time""
""fullscreenenter"",""1"",""1893""
","
