trial_type,trial_index,time_elapsed,internal_node_id,success,rt,stimulus,key_press,prompt,subject_id,age,gender,button_pressed,next_reward,animation_sequence,responses,planet,curr_prac_trial,n_prac_rounds,alien,aliens,reward_received,decay_rate_actual,decay_rate_exp,time_in_block,block_num,prt,last_trial_on_planet,button_html,bonus,num_failures
pavlovia,0,6,0.0-0.0,,,,,,,,,,,,,,,,,,,,,,,,,,,
fullscreen,1,3822,0.0-1.0,TRUE,,,,,,,,,,,,,,,,,,,,,,,,,,
instruc_welcome,2,13684,0.0-2.0,,null,run_exp/static/audio/clip_1_welcome.m4a,null,"<p>Howdy! In this experiment, you’ll be an explorer traveling through space to collect space treasure.</p><p>Your mission is to collect as much treasure as possible.</p><br><br><p><img src='run_exp/static/images/task_images/opening_img-01.jpg' height='300' width='auto'></p>",MicTJc7gB7zY7i5_1Y3uCvx5VSxv8Zo_MLRP_cOwF7Hlo0YsLwMK,16.59,male,,,,,,,,,,,,,,,,,,,
audio-keyboard-response,3,30343,0.0-3.0,,null,run_exp/static/audio/clip_2_move.m4a,null,,,,,,,,,,,,,,,,,,,,,,,
welcome_dec,4,36547,0.0-4.0,,6199.9,"<p>Howdy! In this experiment, you’ll be an explorer traveling through space to collect space treasure.</p><p>Your mission is to collect as much treasure as possible.</p><br><br><p><img src='run_exp/static/images/task_images/opening_img-01.jpg' height='300' width='auto'></p>",,,,,,1,,,,,,,,,,,,,,,,,,
html-keyboard-response,5,38928,0.0-5.0,,2373,"<p>Howdy! In this experiment, you’ll be an explorer traveling through space to collect space treasure.</p><p>Your mission is to collect as much treasure as possible.</p><br><br><p><img src='run_exp/static/images/task_images/opening_img-01.jpg' height='300' width='auto'></p><button class=""jspsych-html-btn-unchosen""><img src=""run_exp/static/images/task_images/planet-01.jpg"" height=""50""></button><button class=""jspsych-html-btn-chosen""><img src=""run_exp/static/images/task_images/planet-02.jpg"" height=""50""></button><p><b>[press the space bar to lock in your answer]<b><br></p>",32,,,,,,,,,,,,,,,,,,,,,,,
instruc_goal,6,49031,0.0-6.0-0.0,,null,run_exp/static/audio/clip_3_goal.m4a,null,"<p> As a space explorer, you’ll visit different planets to dig for space treasure, these pink gems.</p> <p> The more treasure you dig up, the more bonus money you’ll win! </p><br><br><p><img src='run_exp/static/images/task_images/pink_gem.jpg' height='300' width='auto'></p>",,,,,,,,,,,,,,,,,,,,,,
instruc_goal,7,50795,0.0-6.0-1.0,,1759.6,"<p> As a space explorer, you’ll visit different planets to dig for space treasure, these pink gems.</p> <p> The more treasure you dig up, the more bonus money you’ll win! </p><br><br><p><img src='run_exp/static/images/task_images/pink_gem.jpg' height='300' width='auto'></p>",,,,,,1,,,,,,,,,,,,,,,,,,
html-keyboard-response,8,51403,0.0-6.0-2.0,,602,"<p> As a space explorer, you’ll visit different planets to dig for space treasure, these pink gems.</p> <p> The more treasure you dig up, the more bonus money you’ll win! </p><br><br><p><img src='run_exp/static/images/task_images/pink_gem.jpg' height='300' width='auto'></p><button class=""jspsych-html-btn-unchosen""><img src=""run_exp/static/images/task_images/planet-01.jpg"" height=""50""></button><button class=""jspsych-html-btn-chosen""><img src=""run_exp/static/images/task_images/planet-02.jpg"" height=""50""></button><p><b>[press the space bar to lock in your answer]<b><br></p>",32,,,,,,,,,,,,,,,,,,,,,,,
instruc_dig,9,67462,0.0-7.0-0.0,,null,run_exp/static/audio/clip_4_dig.m4a,null,,,,,,100,,,,,,,,,,,,,,,,,
instruc_dig_try,10,68780,0.0-7.0-1.0,,1316.4,"<p> When you’ve arrived at a new planet, you will dig once. </p> <p>Then, you get to decide if you want to stay on the planet and dig again or travel to a new planet and dig there.</p> <p> To stay and dig, press the letter <strong>‘A’</strong> on your keyboard. Try pressing it now! </p><p><img src='run_exp/static/images/task_images/land.jpg'  height='700' width='auto'></p>",65,"<p> When you’ve arrived at a new planet, you will dig once. </p> <p>Then, you get to decide if you want to stay on the planet and dig again or travel to a new planet and dig there.</p> <p> To stay and dig, press the letter <strong>‘A’</strong> on your keyboard. Try pressing it now! </p><p><img src='run_exp/static/images/task_images/land.jpg'  height='700' width='auto'></p>",,,,,100,,,,,,,,,,,,,,,,,
dig_prac,11,70807,0.0-7.0-2.0,,,,,,,,,,,"[{""stimulus"":""run_exp/static/images/task_images/dig.jpg"",""time"":0.5},{""stimulus"":""run_exp/static/images/task_images/land.jpg"",""time"":672.2999999523163},{""stimulus"":""run_exp/static/images/task_images/dig.jpg"",""time"":1338.8999999761581}]",[],,,,,,,,,,,,,,,
instruc_travel,12,107098,0.0-7.0-3.0,,null,run_exp/static/audio/clip_5_travel.m4a,null,"<p>Every time you dig up gems, there are less gems on the planet, so the more you dig on a planet the fewer gems you’ll get with each dig.</p><p>When gems are running low, you may want to travel to a new planet. </p> <p>  Planets are very far apart in this galaxy, so it will take some time to travel between them. </p> <br><p>There are lots and lots of planets for you to visit, so you won’t be able to return to any planets you’ve seen before. </p><br><p>To leave this planet and travel to a new one, press the letter <strong>‘L’</strong> on your keyboard. Try pressing it now! </p><p><img src='run_exp/static/images/task_images/rocket-01.jpg'  height='600' width='auto'></p>",,,,,,,,,,,,,,,,,,,,,,
instruc_travel_try,13,109116,0.0-7.0-4.0,,2016.4,"<p>Every time you dig up gems, there are less gems on the planet, so the more you dig on a planet the fewer gems you’ll get with each dig.</p><p>When gems are running low, you may want to travel to a new planet. </p> <p>  Planets are very far apart in this galaxy, so it will take some time to travel between them. </p> <br><p>There are lots and lots of planets for you to visit, so you won’t be able to return to any planets you’ve seen before. </p><br><p>To leave this planet and travel to a new one, press the letter <strong>‘L’</strong> on your keyboard. Try pressing it now! </p><p><img src='run_exp/static/images/task_images/rocket-01.jpg'  height='600' width='auto'></p>",76,"<p>Every time you dig up gems, there are less gems on the planet, so the more you dig on a planet the fewer gems you’ll get with each dig.</p><p>When gems are running low, you may want to travel to a new planet. </p> <p>  Planets are very far apart in this galaxy, so it will take some time to travel between them. </p> <br><p>There are lots and lots of planets for you to visit, so you won’t be able to return to any planets you’ve seen before. </p><br><p>To leave this planet and travel to a new one, press the letter <strong>‘L’</strong> on your keyboard. Try pressing it now! </p><p><img src='run_exp/static/images/task_images/rocket-01.jpg'  height='600' width='auto'></p>",,,,,,,,,,,,,,,,,,,,,,
travel_prac,14,119118,0.0-7.0-5.0,,,,,,,,,,,"[{""stimulus"":""run_exp/static/images/task_images/rocket-01.jpg"",""time"":0.2999999523162842},{""stimulus"":""run_exp/static/images/task_images/rocket-02.jpg"",""time"":1113},{""stimulus"":""run_exp/static/images/task_images/rocket-03.jpg"",""time"":2227.5},{""stimulus"":""run_exp/static/images/task_images/rocket-04.jpg"",""time"":3337.5},{""stimulus"":""run_exp/static/images/task_images/rocket-05.jpg"",""time"":4448.199999928474},{""stimulus"":""run_exp/static/images/task_images/rocket-06.jpg"",""time"":5562},{""stimulus"":""run_exp/static/images/task_images/rocket-07.jpg"",""time"":6669.899999976158},{""stimulus"":""run_exp/static/images/task_images/rocket-08.jpg"",""time"":7779},{""stimulus"":""run_exp/static/images/task_images/rocket-09.jpg"",""time"":8891.399999976158}]",[],0,,,,,,,,,,,,,,
instruc_alien_greet,15,146329,0.0-7.0-6.0,,null,run_exp/static/audio/clip_6_alien.m4a,null,"<p>When you arrive at a new planet, the alien who owns the treasure mine on that planet will greet you!</p><p>The better an alien takes care of their mine the easier it is to dig for gems. Some aliens take better care of their mine than others. So, you won’t get exactly the same amount of gems on each planet.</p><p>What the alien looks like does not tell you anything about how many gems there are on the planet.</p><br><p><img src=""run_exp/static/images/task_images/aliens/instructions_aliens/planet/alien_planet-1.jpg""  height=""600"" width=""auto""></p>",,,,,,,,,,,,,,,,,,,,,,
instruc_alien_greet,16,148470,0.0-7.0-7.0,,2138.7,"<p>When you arrive at a new planet, the alien who owns the treasure mine on that planet will greet you!</p><p>The better an alien takes care of their mine the easier it is to dig for gems. Some aliens take better care of their mine than others. So, you won’t get exactly the same amount of gems on each planet.</p><p>What the alien looks like does not tell you anything about how many gems there are on the planet.</p><br><p><img src=""run_exp/static/images/task_images/aliens/instructions_aliens/planet/alien_planet-1.jpg""  height=""600"" width=""auto""></p>",,,,,,1,,,,,,,,,,,,,,,,,,
html-keyboard-response,17,149963,0.0-7.0-8.0,,1487.3,"<p>When you arrive at a new planet, the alien who owns the treasure mine on that planet will greet you!</p><p>The better an alien takes care of their mine the easier it is to dig for gems. Some aliens take better care of their mine than others. So, you won’t get exactly the same amount of gems on each planet.</p><p>What the alien looks like does not tell you anything about how many gems there are on the planet.</p><br><p><img src=""run_exp/static/images/task_images/aliens/instructions_aliens/planet/alien_planet-1.jpg""  height=""600"" width=""auto""></p><button class=""jspsych-html-btn-unchosen""><img src=""run_exp/static/images/task_images/planet-01.jpg"" height=""50""></button><button class=""jspsych-html-btn-chosen""><img src=""run_exp/static/images/task_images/planet-02.jpg"" height=""50""></button><p><b>[press the space bar to lock in your answer]<b><br></p>",32,,,,,,,,,,,,,,,,,,,,,,,
time_out,18,161091,0.0-8.0-0.0,,null,run_exp/static/audio/clip_7_timeout.m4a,null,"<p>If you don't make your choice fast enough, you’ll have to wait a few seconds before you can make another one.</p><p>You can’t dig for more gems or travel to new planets. You just have to sit and wait.</p><br><p><img src='run_exp/static/images/task_images/time_out.jpg'  height='600' width='auto'></p>",,,,,,,,,,,,,,,,,,,,,,
time_out,19,163064,0.0-8.0-1.0,,1969.7,"<p>If you don't make your choice fast enough, you’ll have to wait a few seconds before you can make another one.</p><p>You can’t dig for more gems or travel to new planets. You just have to sit and wait.</p><br><p><img src='run_exp/static/images/task_images/time_out.jpg'  height='600' width='auto'></p>",,,,,,1,,,,,,,,,,,,,,,,,,
html-keyboard-response,20,164455,0.0-8.0-2.0,,1385.3,"<p>If you don't make your choice fast enough, you’ll have to wait a few seconds before you can make another one.</p><p>You can’t dig for more gems or travel to new planets. You just have to sit and wait.</p><br><p><img src='run_exp/static/images/task_images/time_out.jpg'  height='600' width='auto'></p><button class=""jspsych-html-btn-unchosen""><img src=""run_exp/static/images/task_images/planet-01.jpg"" height=""50""></button><button class=""jspsych-html-btn-chosen""><img src=""run_exp/static/images/task_images/planet-02.jpg"" height=""50""></button><p><b>[press the space bar to lock in your answer]<b><br></p>",32,,,,,,,,,,,,,,,,,,,,,,,
instruc_break,21,180162,0.0-9.0-0.0,,null,run_exp/static/audio/clip_8_break.m4a,null,"<p> After digging and traveling for a while, you’ll be able to take a break at home base. </p><p>The game will last 20 minutes no matter what.</p><p>You will visit home base every 5 minutes, so, you will visit home base three times during the game.</p><br><p><img src='run_exp/static/images/task_images/home_base.jpg' height='600' width='auto'></p>",,,,,,,,,,,,,,,,,,,,,,
instruc_break,22,182074,0.0-9.0-1.0,,1904.9,"<p> After digging and traveling for a while, you’ll be able to take a break at home base. </p><p>The game will last 20 minutes no matter what.</p><p>You will visit home base every 5 minutes, so, you will visit home base three times during the game.</p><br><p><img src='run_exp/static/images/task_images/home_base.jpg' height='600' width='auto'></p>",,,,,,1,,,,,,,,,,,,,,,,,,
html-keyboard-response,23,183188,0.0-9.0-2.0,,1111.9,"<p> After digging and traveling for a while, you’ll be able to take a break at home base. </p><p>The game will last 20 minutes no matter what.</p><p>You will visit home base every 5 minutes, so, you will visit home base three times during the game.</p><br><p><img src='run_exp/static/images/task_images/home_base.jpg' height='600' width='auto'></p><button class=""jspsych-html-btn-unchosen""><img src=""run_exp/static/images/task_images/planet-01.jpg"" height=""50""></button><button class=""jspsych-html-btn-chosen""><img src=""run_exp/static/images/task_images/planet-02.jpg"" height=""50""></button><p><b>[press the space bar to lock in your answer]<b><br></p>",32,,,,,,,,,,,,,,,,,,,,,,,
instruc_prac_game,24,193346,0.0-10.0-0.0,,null,run_exp/static/audio/clip_9_practice.m4a,null,"<p> Are you ready to play a practice game? </p> <p>In this practice game, you'll be digging up barrels of gems. But, in the real game, you'll be digging up the gems themselves. </p>",,,,,,,,,,,,,,,,,,,,,,
html-button-response,25,195098,0.0-10.0-1.0,,1750.1,"<p> Are you ready to play a practice game? </p> <p>In this practice game, you'll be digging up barrels of gems. But, in the real game, you'll be digging up the gems themselves. </p>",,,,,,0,,,,,,,,,,,,,,,,,,
alien_welcome_prac,26,200111,0.0-11.0-0.0,,null,run_exp/static/images/task_images/aliens/practice_aliens/planet/alien_planet-5.jpg,null,,,,,,,,,,,,,,,,,,,,,,,
land_prac,27,200617,0.0-11.0-1.0,,null,run_exp/static/images/task_images/land.jpg,null,,,,,,98,,,0,,,,,,,,,,,,,,
dig_prac,28,202625,0.0-11.0-2.0,,,,,,,,,,,"[{""stimulus"":""run_exp/static/images/task_images/dig.jpg"",""time"":0.6000000238418579},{""stimulus"":""run_exp/static/images/task_images/land.jpg"",""time"":670},{""stimulus"":""run_exp/static/images/task_images/dig.jpg"",""time"":1341.3999999761581}]",[],,,,,,,,,,,,,,,
harvest_prac,29,203628,0.0-11.0-3.0,,null,run_exp/static/images/task_images/barrel_text.jpg,null,,,,,,,,,,,,,,,,,,,,,,,
decision_prac,30,205810,0.0-11.0-4.0,,2180.3,run_exp/static/images/task_images/land.jpg,65,,,,,,,,,,1,,,,,,,,,,,,,
dig_prac,31,207819,0.0-12.0-0.0,,,,,,,,,,,"[{""stimulus"":""run_exp/static/images/task_images/dig.jpg"",""time"":0.20000004768371582},{""stimulus"":""run_exp/static/images/task_images/land.jpg"",""time"":673.6000000238419},{""stimulus"":""run_exp/static/images/task_images/dig.jpg"",""time"":1340.3999999761581}]",[],,,,,,,,,,,,,,,
harvest_prac,32,208825,0.0-12.0-1.0,,null,run_exp/static/images/task_images/barrel_text.jpg,null,,,,,,,,,,,,,,,,,,,,,,,
decision_prac,33,209458,0.0-12.0-2.0,,630.8,run_exp/static/images/task_images/land.jpg,65,,,,,,,,,,2,,,,,,,,,,,,,
dig_prac,34,211467,0.0-13.0-0.0,,,,,,,,,,,"[{""stimulus"":""run_exp/static/images/task_images/dig.jpg"",""time"":0.3999999761581421},{""stimulus"":""run_exp/static/images/task_images/land.jpg"",""time"":668.6999999284744},{""stimulus"":""run_exp/static/images/task_images/dig.jpg"",""time"":1340.6000000238419}]",[],,,,,,,,,,,,,,,
harvest_prac,35,212471,0.0-13.0-1.0,,null,run_exp/static/images/task_images/barrel_text.jpg,null,,,,,,,,,,,,,,,,,,,,,,,
decision_prac,36,212793,0.0-13.0-2.0,,321.5,run_exp/static/images/task_images/land.jpg,65,,,,,,,,,,3,,,,,,,,,,,,,
dig_prac,37,214898,0.0-14.0-0.0,,,,,,,,,,,"[{""stimulus"":""run_exp/static/images/task_images/dig.jpg"",""time"":0.30000007152557373},{""stimulus"":""run_exp/static/images/task_images/land.jpg"",""time"":673.5},{""stimulus"":""run_exp/static/images/task_images/dig.jpg"",""time"":1338.9000000953674}]",[],,,,,,,,,,,,,,,
harvest_prac,38,215903,0.0-14.0-1.0,,null,run_exp/static/images/task_images/barrel_text.jpg,null,,,,,,,,,,,,,,,,,,,,,,,
decision_prac,39,216201,0.0-14.0-2.0,,296.2,run_exp/static/images/task_images/land.jpg,65,,,,,,,,,,4,,,,,,,,,,,,,
dig_prac,40,218205,0.0-15.0-0.0,,,,,,,,,,,"[{""stimulus"":""run_exp/static/images/task_images/dig.jpg"",""time"":0.30000007152557373},{""stimulus"":""run_exp/static/images/task_images/land.jpg"",""time"":768.6000000238419},{""stimulus"":""run_exp/static/images/task_images/dig.jpg"",""time"":1336.5}]",[],,,,,,,,,,,,,,,
harvest_prac,41,219209,0.0-15.0-1.0,,null,run_exp/static/images/task_images/barrel_text.jpg,null,,,,,,,,,,,,,,,,,,,,,,,
decision_prac,42,219457,0.0-15.0-2.0,,246.9000001,run_exp/static/images/task_images/land.jpg,65,,,,,,,,,,,1,,,,,,,,,,,,
quiz_instruc,43,223110,0.0-16.0-0.0,,3647.8,run_exp/static/audio/clip_10_quiz.m4a,,,,,,0,,,,,,,,,,,,,,,,,,
instruc_repeat,44,265866,0.0-16.0-1.0,,null,"<p> Are you ready to play a practice game? </p> <p>In this practice game, you'll be digging up barrels of gems. But, in the real game, you'll be digging up the gems themselves. </p>",null,"<p>In this game, your goal is to collect as many gems as you can. That’s how you will win bonus money. </p> <p>The entire game will last 20 minutes no matter how many gems you collect or how many planets you visit. </p><p>To stay on a planet and dig again, press the letter A on your keyboard. To leave for a new planet, press the letter L.</p><p>The more you dig on a planet, the fewer gems you’ll get with each dig which is why you might consider leaving for a new planet. </p><p>When you arrive at a new planet, you’ll be greeted by an alien. What the alien looks like does not tell you anything about how much treasure is on the planet. </p>",,,,,,,,,,,,,,,,,,,,,,
instruc_repeat_continue,45,268181,0.0-16.0-2.0,,2313,"<p> Are you ready to play a practice game? </p> <p>In this practice game, you'll be digging up barrels of gems. But, in the real game, you'll be digging up the gems themselves. </p>",,,,,,0,,,,,,,,,,,,,,,,,,
quiz_q_1_ask,46,271348,0.0-16.0-3.0,,3161.1,run_exp/static/audio/clip_11_q1_ask.m4a,,,,,,2,,,,,,,,,,,,,,,,,,
quiz_q_1_fb_correct,47,275231,0.0-17.0-0.0,,null,run_exp/static/audio/clip_12_q1_corrrect.m4a,null,<p>That’s correct. You win extra money by collecting more gems.</p>,,,,,,,,,,,,,,,,,,,,,,
quiz_q_2_ask,48,277560,0.0-17.0-1.0,,2325.2,run_exp/static/audio/clip_14_q2_ask.m4a,,,,,,1,,,,,,,,,,,,,,,,,,
quiz_q_2_fb_correct,49,281589,0.0-18.0-0.0,,null,run_exp/static/audio/clip_15_q2_correct.m4a,null,<p>That’s correct. The experiment is 20 minutes no matter what.</p>,,,,,,,,,,,,,,,,,,,,,,
quiz_q_3_ask,50,283315,0.0-18.0-1.0,,1723.8,run_exp/static/audio/clip_17_q3_ask.m4a,,,,,,1,,,,,,,,,,,,,,,,,,
quiz_q_3_fb_correct,51,287285,0.0-19.0-0.0,,null,run_exp/static/audio/clip_18_q3_correct.m4a,null,<p> That’s correct. You press the letter L to travel to a new planet.</p>,,,,,,,,,,,,,,,,,,,,,,
quiz_q_4_ask,52,290930,0.0-19.0-1.0,,3642.8,run_exp/static/audio/clip_20_q4_ask.m4a,,,,,,0,,,,,,,,,,,,,,,,,,
quiz_q_4_fb_correct,53,296266,0.0-20.0-0.0,,null,run_exp/static/audio/clip_21_q4_correct.m4a,null,<p> That’s correct. The more you dig on a planet the fewer gems you’ll get with each dig. </p>,,,,,,,,,,,,,,,,,,,,,,
quiz_q_5_ask,54,298336,0.0-20.0-1.0,,2067.4,run_exp/static/audio/clip_23_q5_ask.m4a,,,,,,1,,,,,,,,,,,,,,,,,,
quiz_q_5_fb_correct,55,303349,0.0-21.0-0.0,,null,run_exp/static/audio/clip_24_q5_correct.m4a,null,<p> That’s correct. The alien tells you nothing about how much treasure is on the planet.</p>,,,,,,,,,,,,,,,,,,,,,,
quiz_correct,56,306783,0.0-22.0-0.0,,null,run_exp/static/audio/clip_26_correct_quiz.m4a,null,,,,,,,,,,,,,,,,,,,,,,,
quiz_correct_continue,57,307894,0.0-22.0-1.0,,1108.8,<p>Good job! You're now ready to move on to the real game!</p>,,,,,,0,,,,,,,,,,,,,,,,,,
audio-keyboard-response,58,318027,0.0-22.0-2.0,,null,run_exp/static/audio/clip_28_real_game.m4a,null,,,,,,,,,,,,,,,,,,,,,,,
instruc_begin_exp_contine,59,319485,0.0-22.0-3.0,,1455.4,"<p>Now that you know how  to dig for space treasure and travel to new planets,you can start exploring! </p><p>Do you want to go over the instructions again or get started with the real game?</p>",,,,,,1,,,,,,1,,,,,,,,,,,,
alien_welcome,60,324495,0.0-23.0-0.0,,null,run_exp/static/images/task_images/aliens/old_aliens/planet/alien_planet-24.jpg,null,,,,,,,,,,,,24,"24,8,5,30,3,51,58,4,33,73,34,72,19,61,45,42,6,66,11,65,22,18,13,78,48,79,49,59,41,12,39,1,64,63,50,71,10,47,20,36,67,29,46,32,31",,,,,,,,,,
land,61,324997,0.0-23.0-1.0,,null,run_exp/static/images/task_images/land.jpg,null,,,,,,92,,,1,,,,,,,,,,,,,,
dig,62,327002,0.0-23.0-2.0,,,,,,,,,,,"[{""stimulus"":""run_exp/static/images/task_images/dig.jpg"",""time"":0.3999999761581421},{""stimulus"":""run_exp/static/images/task_images/land.jpg"",""time"":673.8000000715256},{""stimulus"":""run_exp/static/images/task_images/dig.jpg"",""time"":1336.7000000476837}]",[],1,,,,,,,,,,,,,,
harvest,63,328005,0.0-23.0-3.0,,null,run_exp/static/images/task_images/gems/92.jpg,null,,,,,,18,,,1,,,,,92,0.191196947,0.195652174,,,,,,,
decision,64,328661,0.0-23.0-4.0,,653.1999999,run_exp/static/images/task_images/land.jpg,65,,,,,,18,,,1,,,,,,,,9169,1,0,FALSE,,,
dig,65,331016,0.0-24.0-0.0,,,,,,,,,,,"[{""stimulus"":""run_exp/static/images/task_images/dig.jpg"",""time"":1.6999999284744263},{""stimulus"":""run_exp/static/images/task_images/land.jpg"",""time"":786.0999999046326},{""stimulus"":""run_exp/static/images/task_images/dig.jpg"",""time"":1571.8999999761581}]",[],1,,,,,,,,,,,,,,
harvest,66,332029,0.0-24.0-1.0,,null,run_exp/static/images/task_images/gems/18.jpg,null,,,,,,4,,,1,,,,,18,0.196516838,0.222222222,,,,,,,
decision,67,332658,0.0-24.0-2.0,,628.2,run_exp/static/images/task_images/land.jpg,65,,,,,,4,,,1,,,,,,,,13166,1,1,FALSE,,,
dig,68,335035,0.0-25.0-0.0,,,,,,,,,,,"[{""stimulus"":""run_exp/static/images/task_images/dig.jpg"",""time"":0.20000004768371582},{""stimulus"":""run_exp/static/images/task_images/land.jpg"",""time"":791.7000000476837},{""stimulus"":""run_exp/static/images/task_images/dig.jpg"",""time"":1581.6000000238419}]",[],1,,,,,,,,,,,,,,
harvest,69,336042,0.0-25.0-1.0,,null,run_exp/static/images/task_images/gems/4.jpg,null,,,,,,1,,,1,,,,,4,0.157875748,0.25,,,,,,,
decision,70,336428,0.0-25.0-2.0,,384,run_exp/static/images/task_images/land.jpg,76,,,,,,1,,,1,,,,,,,,16936,1,2,TRUE,,,
travel,71,346053,0.0-26.0-0.0,,,,,,,,,,,"[{""stimulus"":""run_exp/static/images/task_images/rocket-01.jpg"",""time"":0.40000009536743164},{""stimulus"":""run_exp/static/images/task_images/rocket-02.jpg"",""time"":1071.7000000476837},{""stimulus"":""run_exp/static/images/task_images/rocket-03.jpg"",""time"":2143},{""stimulus"":""run_exp/static/images/task_images/rocket-04.jpg"",""time"":3210.3000000715256},{""stimulus"":""run_exp/static/images/task_images/rocket-05.jpg"",""time"":4276.300000071526},{""stimulus"":""run_exp/static/images/task_images/rocket-06.jpg"",""time"":5348.200000047684},{""stimulus"":""run_exp/static/images/task_images/rocket-07.jpg"",""time"":6415.700000047684},{""stimulus"":""run_exp/static/images/task_images/rocket-08.jpg"",""time"":7482.300000071526},{""stimulus"":""run_exp/static/images/task_images/rocket-09.jpg"",""time"":8547.700000047684}]",[],1,,,,,,,,,,,,,,
alien_welcome,72,351060,0.0-26.0-1.0,,null,run_exp/static/images/task_images/aliens/old_aliens/planet/alien_planet-8.jpg,null,,,,,,,,,,,,8,"24,8,5,30,3,51,58,4,33,73,34,72,19,61,45,42,6,66,11,65,22,18,13,78,48,79,49,59,41,12,39,1,64,63,50,71,10,47,20,36,67,29,46,32,31",,,,,,,,,,
land,73,351563,0.0-26.0-2.0,,null,run_exp/static/images/task_images/land.jpg,null,,,,,,95,,,2,,,,,,,,,,,,,,
dig,74,353568,0.0-26.0-3.0,,,,,,,,,,,"[{""stimulus"":""run_exp/static/images/task_images/dig.jpg"",""time"":0.3999999761581421},{""stimulus"":""run_exp/static/images/task_images/land.jpg"",""time"":673.6000000238419},{""stimulus"":""run_exp/static/images/task_images/dig.jpg"",""time"":1336.2000000476837}]",[],2,,,,,,,,,,,,,,
harvest,75,354571,0.0-26.0-4.0,,null,run_exp/static/images/task_images/gems/95.jpg,null,,,,,,18,,,2,,,,,95,0.186686758,0.189473684,,,,,,,
decision,76,354826,0.0-26.0-5.0,,253.4,run_exp/static/images/task_images/land.jpg,65,,,,,,18,,,2,,,,,,,,35334,1,0,FALSE,,,
dig,77,357577,0.0-27.0-0.0,,,,,,,,,,,"[{""stimulus"":""run_exp/static/images/task_images/dig.jpg"",""time"":0.2999999523162842},{""stimulus"":""run_exp/static/images/task_images/land.jpg"",""time"":917},{""stimulus"":""run_exp/static/images/task_images/dig.jpg"",""time"":1832.8999999761581}]",[],2,,,,,,,,,,,,,,
harvest,78,358581,0.0-27.0-1.0,,null,run_exp/static/images/task_images/gems/18.jpg,null,,,,,,5,,,2,,,,,18,0.293872703,0.277777778,,,,,,,
decision,79,359417,0.0-27.0-2.0,,834.3000001,run_exp/static/images/task_images/land.jpg,65,,,,,,5,,,2,,,,,,,,39925,1,1,FALSE,,,
dig,80,361585,0.0-28.0-0.0,,,,,,,,,,,"[{""stimulus"":""run_exp/static/images/task_images/dig.jpg"",""time"":0.30000007152557373},{""stimulus"":""run_exp/static/images/task_images/land.jpg"",""time"":722.5},{""stimulus"":""run_exp/static/images/task_images/dig.jpg"",""time"":1444}]",[],2,,,,,,,,,,,,,,
harvest,81,362589,0.0-28.0-1.0,,null,run_exp/static/images/task_images/gems/5.jpg,null,,,,,,1,,,2,,,,,5,0.229396643,0.2,,,,,,,
decision,82,362900,0.0-28.0-2.0,,309.8,run_exp/static/images/task_images/land.jpg,76,,,,,,1,,,2,,,,,,,,43408,1,2,TRUE,,,
travel,83,372594,0.0-29.0-0.0,,,,,,,,,,,"[{""stimulus"":""run_exp/static/images/task_images/rocket-01.jpg"",""time"":0.19999992847442627},{""stimulus"":""run_exp/static/images/task_images/rocket-02.jpg"",""time"":1078.7999999523163},{""stimulus"":""run_exp/static/images/task_images/rocket-03.jpg"",""time"":2158},{""stimulus"":""run_exp/static/images/task_images/rocket-04.jpg"",""time"":3229.399999976158},{""stimulus"":""run_exp/static/images/task_images/rocket-05.jpg"",""time"":4306},{""stimulus"":""run_exp/static/images/task_images/rocket-06.jpg"",""time"":5385.299999952316},{""stimulus"":""run_exp/static/images/task_images/rocket-07.jpg"",""time"":6462.199999928474},{""stimulus"":""run_exp/static/images/task_images/rocket-08.jpg"",""time"":7533.599999904633},{""stimulus"":""run_exp/static/images/task_images/rocket-09.jpg"",""time"":8614.299999952316}]",[],2,,,,,,,,,,,,,,
alien_welcome,84,377601,0.0-29.0-1.0,,null,run_exp/static/images/task_images/aliens/old_aliens/planet/alien_planet-5.jpg,null,,,,,,,,,,,,5,"24,8,5,30,3,51,58,4,33,73,34,72,19,61,45,42,6,66,11,65,22,18,13,78,48,79,49,59,41,12,39,1,64,63,50,71,10,47,20,36,67,29,46,32,31",,,,,,,,,,
land,85,378108,0.0-29.0-2.0,,null,run_exp/static/images/task_images/land.jpg,null,,,,,,96,,,3,,,,,,,,,,,,,,
dig,86,380117,0.0-29.0-3.0,,,,,,,,,,,"[{""stimulus"":""run_exp/static/images/task_images/dig.jpg"",""time"":0.3999999761581421},{""stimulus"":""run_exp/static/images/task_images/land.jpg"",""time"":673.6000000238419},{""stimulus"":""run_exp/static/images/task_images/dig.jpg"",""time"":1340.6000000238419}]",[],3,,,,,,,,,,,,,,
harvest,87,381121,0.0-29.0-4.0,,null,run_exp/static/images/task_images/gems/96.jpg,null,,,,,,42,,,3,,,,,96,0.437831142,0.4375,,,,,,,
decision,88,381416,0.0-29.0-5.0,,292.6,run_exp/static/images/task_images/land.jpg,65,,,,,,42,,,3,,,,,,,,61924,1,0,FALSE,,,
dig,89,384130,0.0-30.0-0.0,,,,,,,,,,,"[{""stimulus"":""run_exp/static/images/task_images/dig.jpg"",""time"":0.30000007152557373},{""stimulus"":""run_exp/static/images/task_images/land.jpg"",""time"":903.8000000715256},{""stimulus"":""run_exp/static/images/task_images/dig.jpg"",""time"":1809.6000000238419}]",[],3,,,,,,,,,,,,,,
harvest,90,385139,0.0-30.0-1.0,,null,run_exp/static/images/task_images/gems/42.jpg,null,,,,,,21,,,3,,,,,42,0.509899358,0.5,,,,,,,
decision,91,385387,0.0-30.0-2.0,,245.7,run_exp/static/images/task_images/land.jpg,65,,,,,,21,,,3,,,,,,,,65895,1,1,FALSE,,,
dig,92,388146,0.0-31.0-0.0,,,,,,,,,,,"[{""stimulus"":""run_exp/static/images/task_images/dig.jpg"",""time"":0.20000004768371582},{""stimulus"":""run_exp/static/images/task_images/land.jpg"",""time"":919.5},{""stimulus"":""run_exp/static/images/task_images/dig.jpg"",""time"":1842.6000000238419}]",[],3,,,,,,,,,,,,,,
harvest,93,389153,0.0-31.0-1.0,,null,run_exp/static/images/task_images/gems/21.jpg,null,,,,,,11,,,3,,,,,21,0.509864669,0.523809524,,,,,,,
decision,94,389294,0.0-31.0-2.0,,139.4000001,run_exp/static/images/task_images/land.jpg,65,,,,,,11,,,3,,,,,,,,69802,1,2,FALSE,,,
dig,95,392159,0.0-32.0-0.0,,,,,,,,,,,"[{""stimulus"":""run_exp/static/images/task_images/dig.jpg"",""time"":1.2000000476837158},{""stimulus"":""run_exp/static/images/task_images/land.jpg"",""time"":960.4000000953674},{""stimulus"":""run_exp/static/images/task_images/dig.jpg"",""time"":1909.9000000953674}]",[],3,,,,,,,,,,,,,,
harvest,96,393163,0.0-32.0-1.0,,null,run_exp/static/images/task_images/gems/11.jpg,null,,,,,,6,,,3,,,,,11,0.535631404,0.545454545,,,,,,,
decision,97,393383,0.0-32.0-2.0,,217,run_exp/static/images/task_images/land.jpg,76,,,,,,6,,,3,,,,,,,,73891,1,3,TRUE,,,
travel,98,403174,0.0-33.0-0.0,,,,,,,,,,,"[{""stimulus"":""run_exp/static/images/task_images/rocket-01.jpg"",""time"":0.3999999761581421},{""stimulus"":""run_exp/static/images/task_images/rocket-02.jpg"",""time"":1093.6000000238419},{""stimulus"":""run_exp/static/images/task_images/rocket-03.jpg"",""time"":2180.5},{""stimulus"":""run_exp/static/images/task_images/rocket-04.jpg"",""time"":3263.7999999523163},{""stimulus"":""run_exp/static/images/task_images/rocket-05.jpg"",""time"":4354.700000047684},{""stimulus"":""run_exp/static/images/task_images/rocket-06.jpg"",""time"":5439.600000023842},{""stimulus"":""run_exp/static/images/task_images/rocket-07.jpg"",""time"":6523.5},{""stimulus"":""run_exp/static/images/task_images/rocket-08.jpg"",""time"":7615.5},{""stimulus"":""run_exp/static/images/task_images/rocket-09.jpg"",""time"":8700.600000023842}]",[],3,,,,,,,,,,,,,,
alien_welcome,99,408181,0.0-33.0-1.0,,null,run_exp/static/images/task_images/aliens/old_aliens/planet/alien_planet-30.jpg,null,,,,,,,,,,,,30,"24,8,5,30,3,51,58,4,33,73,34,72,19,61,45,42,6,66,11,65,22,18,13,78,48,79,49,59,41,12,39,1,64,63,50,71,10,47,20,36,67,29,46,32,31",,,,,,,,,,
land,100,408686,0.0-33.0-2.0,,null,run_exp/static/images/task_images/land.jpg,null,,,,,,99,,,4,,,,,,,,,,,,,,
dig,101,410692,0.0-33.0-3.0,,,,,,,,,,,"[{""stimulus"":""run_exp/static/images/task_images/dig.jpg"",""time"":0.3999999761581421},{""stimulus"":""run_exp/static/images/task_images/land.jpg"",""time"":668.7999999523163},{""stimulus"":""run_exp/static/images/task_images/dig.jpg"",""time"":1340.5}]",[],4,,,,,,,,,,,,,,
harvest,102,411699,0.0-33.0-4.0,,null,run_exp/static/images/task_images/gems/99.jpg,null,,,,,,53,,,4,,,,,99,0.539170625,0.535353535,,,,,,,
decision,103,411977,0.0-33.0-5.0,,276.5,run_exp/static/images/task_images/land.jpg,65,,,,,,53,,,4,,,,,,,,92485,1,0,FALSE,,,
dig,104,414704,0.0-34.0-0.0,,,,,,,,,,,"[{""stimulus"":""run_exp/static/images/task_images/dig.jpg"",""time"":0.3999999761581421},{""stimulus"":""run_exp/static/images/task_images/land.jpg"",""time"":912.8000000715256},{""stimulus"":""run_exp/static/images/task_images/dig.jpg"",""time"":1819.8999999761581}]",[],4,,,,,,,,,,,,,,
harvest,105,415707,0.0-34.0-1.0,,null,run_exp/static/images/task_images/gems/53.jpg,null,,,,,,21,,,4,,,,,53,0.398494644,0.396226415,,,,,,,
decision,106,416088,0.0-34.0-2.0,,380.1,run_exp/static/images/task_images/land.jpg,65,,,,,,21,,,4,,,,,,,,96597,1,1,FALSE,,,
dig,107,418713,0.0-35.0-0.0,,,,,,,,,,,"[{""stimulus"":""run_exp/static/images/task_images/dig.jpg"",""time"":0.30000007152557373},{""stimulus"":""run_exp/static/images/task_images/land.jpg"",""time"":876},{""stimulus"":""run_exp/static/images/task_images/dig.jpg"",""time"":1752.4000000953674}]",[],4,,,,,,,,,,,,,,
harvest,108,419719,0.0-35.0-1.0,,null,run_exp/static/images/task_images/gems/21.jpg,null,,,,,,11,,,4,,,,,21,0.527200905,0.523809524,,,,,,,
decision,109,419782,0.0-35.0-2.0,,61.39999998,run_exp/static/images/task_images/land.jpg,65,,,,,,11,,,4,,,,,,,,100290,1,2,FALSE,,,
dig,110,422725,0.0-36.0-0.0,,,,,,,,,,,"[{""stimulus"":""run_exp/static/images/task_images/dig.jpg"",""time"":0.40000009536743164},{""stimulus"":""run_exp/static/images/task_images/land.jpg"",""time"":983.9000000953674},{""stimulus"":""run_exp/static/images/task_images/dig.jpg"",""time"":1959.7000000476837}]",[],4,,,,,,,,,,,,,,
harvest,111,423732,0.0-36.0-1.0,,null,run_exp/static/images/task_images/gems/11.jpg,null,,,,,,5,,,4,,,,,11,0.482920639,0.454545455,,,,,,,
decision,112,423840,0.0-36.0-2.0,,106.6,run_exp/static/images/task_images/land.jpg,76,,,,,,5,,,4,,,,,,,,104348,1,3,TRUE,,,
travel,113,433741,0.0-37.0-0.0,,,,,,,,,,,"[{""stimulus"":""run_exp/static/images/task_images/rocket-01.jpg"",""time"":0.2999999523162842},{""stimulus"":""run_exp/static/images/task_images/rocket-02.jpg"",""time"":1101.6999999284744},{""stimulus"":""run_exp/static/images/task_images/rocket-03.jpg"",""time"":2201.5},{""stimulus"":""run_exp/static/images/task_images/rocket-04.jpg"",""time"":3301.2999999523163},{""stimulus"":""run_exp/static/images/task_images/rocket-05.jpg"",""time"":4400.5},{""stimulus"":""run_exp/static/images/task_images/rocket-06.jpg"",""time"":5501.899999976158},{""stimulus"":""run_exp/static/images/task_images/rocket-07.jpg"",""time"":6596.899999976158},{""stimulus"":""run_exp/static/images/task_images/rocket-08.jpg"",""time"":7698.799999952316},{""stimulus"":""run_exp/static/images/task_images/rocket-09.jpg"",""time"":8797.599999904633}]",[],4,,,,,,,,,,,,,,
alien_welcome,114,438746,0.0-37.0-1.0,,null,run_exp/static/images/task_images/aliens/old_aliens/planet/alien_planet-3.jpg,null,,,,,,,,,,,,3,"24,8,5,30,3,51,58,4,33,73,34,72,19,61,45,42,6,66,11,65,22,18,13,78,48,79,49,59,41,12,39,1,64,63,50,71,10,47,20,36,67,29,46,32,31",,,,,,,,,,
land,115,439251,0.0-37.0-2.0,,null,run_exp/static/images/task_images/land.jpg,null,,,,,,95,,,5,,,,,,,,,,,,,,
dig,116,441260,0.0-37.0-3.0,,,,,,,,,,,"[{""stimulus"":""run_exp/static/images/task_images/dig.jpg"",""time"":0.3999999761581421},{""stimulus"":""run_exp/static/images/task_images/land.jpg"",""time"":673},{""stimulus"":""run_exp/static/images/task_images/dig.jpg"",""time"":1336.1000000238419}]",[],5,,,,,,,,,,,,,,
harvest,117,442264,0.0-37.0-4.0,,null,run_exp/static/images/task_images/gems/95.jpg,null,,,,,,47,,,5,,,,,95,0.49463928,0.494736842,,,,,,,
decision,118,442447,0.0-37.0-5.0,,181.6999999,run_exp/static/images/task_images/land.jpg,65,,,,,,47,,,5,,,,,,,,122955,1,0,FALSE,,,
dig,119,445272,0.0-38.0-0.0,,,,,,,,,,,"[{""stimulus"":""run_exp/static/images/task_images/dig.jpg"",""time"":0.5},{""stimulus"":""run_exp/static/images/task_images/land.jpg"",""time"":941.6000000238419},{""stimulus"":""run_exp/static/images/task_images/dig.jpg"",""time"":1879.7999999523163}]",[],5,,,,,,,,,,,,,,
harvest,120,446279,0.0-38.0-1.0,,null,run_exp/static/images/task_images/gems/47.jpg,null,,,,,,26,,,5,,,,,47,0.55742657,0.553191489,,,,,,,
decision,121,446557,0.0-38.0-2.0,,275.9,run_exp/static/images/task_images/land.jpg,65,,,,,,26,,,5,,,,,,,,127065,1,1,FALSE,,,
dig,122,449289,0.0-39.0-0.0,,,,,,,,,,,"[{""stimulus"":""run_exp/static/images/task_images/dig.jpg"",""time"":0.5},{""stimulus"":""run_exp/static/images/task_images/land.jpg"",""time"":910.1000000238419},{""stimulus"":""run_exp/static/images/task_images/dig.jpg"",""time"":1819.1000000238419}]",[],5,,,,,,,,,,,,,,
harvest,123,450296,0.0-39.0-1.0,,null,run_exp/static/images/task_images/gems/26.jpg,null,,,,,,11,,,5,,,,,26,0.429541283,0.423076923,,,,,,,
decision,124,450575,0.0-39.0-2.0,,278.1,run_exp/static/images/task_images/land.jpg,65,,,,,,11,,,5,,,,,,,,131083,1,2,FALSE,,,
dig,125,453303,0.0-40.0-0.0,,,,,,,,,,,"[{""stimulus"":""run_exp/static/images/task_images/dig.jpg"",""time"":0.3999999761581421},{""stimulus"":""run_exp/static/images/task_images/land.jpg"",""time"":911.3999999761581},{""stimulus"":""run_exp/static/images/task_images/dig.jpg"",""time"":1817.7999999523163}]",[],5,,,,,,,,,,,,,,
harvest,126,454309,0.0-40.0-1.0,,null,run_exp/static/images/task_images/gems/11.jpg,null,,,,,,5,,,5,,,,,11,0.448564027,0.454545455,,,,,,,
decision,127,454487,0.0-40.0-2.0,,177.1,run_exp/static/images/task_images/land.jpg,76,,,,,,5,,,5,,,,,,,,134995,1,3,TRUE,,,
travel,128,464317,0.0-41.0-0.0,,,,,,,,,,,"[{""stimulus"":""run_exp/static/images/task_images/rocket-01.jpg"",""time"":0.19999992847442627},{""stimulus"":""run_exp/static/images/task_images/rocket-02.jpg"",""time"":1094.7999999523163},{""stimulus"":""run_exp/static/images/task_images/rocket-03.jpg"",""time"":2186},{""stimulus"":""run_exp/static/images/task_images/rocket-04.jpg"",""time"":3274.399999976158},{""stimulus"":""run_exp/static/images/task_images/rocket-05.jpg"",""time"":4370.399999976158},{""stimulus"":""run_exp/static/images/task_images/rocket-06.jpg"",""time"":5458.5},{""stimulus"":""run_exp/static/images/task_images/rocket-07.jpg"",""time"":6552.399999976158},{""stimulus"":""run_exp/static/images/task_images/rocket-08.jpg"",""time"":7643.799999952316},{""stimulus"":""run_exp/static/images/task_images/rocket-09.jpg"",""time"":8730.199999928474}]",[],5,,,,,,,,,,,,,,
alien_welcome,129,469324,0.0-41.0-1.0,,null,run_exp/static/images/task_images/aliens/old_aliens/planet/alien_planet-51.jpg,null,,,,,,,,,,,,51,"24,8,5,30,3,51,58,4,33,73,34,72,19,61,45,42,6,66,11,65,22,18,13,78,48,79,49,59,41,12,39,1,64,63,50,71,10,47,20,36,67,29,46,32,31",,,,,,,,,,
land,130,469831,0.0-41.0-2.0,,null,run_exp/static/images/task_images/land.jpg,null,,,,,,100,,,6,,,,,,,,,,,,,,
dig,131,471836,0.0-41.0-3.0,,,,,,,,,,,"[{""stimulus"":""run_exp/static/images/task_images/dig.jpg"",""time"":0.3999999761581421},{""stimulus"":""run_exp/static/images/task_images/land.jpg"",""time"":673.7000000476837},{""stimulus"":""run_exp/static/images/task_images/dig.jpg"",""time"":1339.7000000476837}]",[],6,,,,,,,,,,,,,,
harvest,132,472843,0.0-41.0-4.0,,null,run_exp/static/images/task_images/gems/100.jpg,null,,,,,,82,,,6,,,,,100,0.823886469,0.82,,,,,,,
decision,133,473209,0.0-41.0-5.0,,364.5,run_exp/static/images/task_images/land.jpg,65,,,,,,82,,,6,,,,,,,,153717,1,0,FALSE,,,
dig,134,475849,0.0-42.0-0.0,,,,,,,,,,,"[{""stimulus"":""run_exp/static/images/task_images/dig.jpg"",""time"":0.3999999761581421},{""stimulus"":""run_exp/static/images/task_images/land.jpg"",""time"":884.6999999284744},{""stimulus"":""run_exp/static/images/task_images/dig.jpg"",""time"":1762.6000000238419}]",[],6,,,,,,,,,,,,,,
harvest,135,476856,0.0-42.0-1.0,,null,run_exp/static/images/task_images/gems/82.jpg,null,,,,,,67,,,6,,,,,82,0.822903967,0.817073171,,,,,,,
decision,136,477081,0.0-42.0-2.0,,223.6,run_exp/static/images/task_images/land.jpg,65,,,,,,67,,,6,,,,,,,,157590,1,1,FALSE,,,
dig,137,479869,0.0-43.0-0.0,,,,,,,,,,,"[{""stimulus"":""run_exp/static/images/task_images/dig.jpg"",""time"":1.2000000476837158},{""stimulus"":""run_exp/static/images/task_images/land.jpg"",""time"":929.5},{""stimulus"":""run_exp/static/images/task_images/dig.jpg"",""time"":1857.6000000238419}]",[],6,,,,,,,,,,,,,,
harvest,138,480873,0.0-43.0-1.0,,null,run_exp/static/images/task_images/gems/67.jpg,null,,,,,,54,,,6,,,,,67,0.805884383,0.805970149,,,,,,,
decision,139,481544,0.0-43.0-2.0,,670.2,run_exp/static/images/task_images/land.jpg,65,,,,,,54,,,6,,,,,,,,162052,1,2,FALSE,,,
dig,140,483879,0.0-44.0-0.0,,,,,,,,,,,"[{""stimulus"":""run_exp/static/images/task_images/dig.jpg"",""time"":0.7999999523162842},{""stimulus"":""run_exp/static/images/task_images/land.jpg"",""time"":778.2999999523163},{""stimulus"":""run_exp/static/images/task_images/dig.jpg"",""time"":1558.1000000238419}]",[],6,,,,,,,,,,,,,,
harvest,141,484881,0.0-44.0-1.0,,null,run_exp/static/images/task_images/gems/54.jpg,null,,,,,,44,,,6,,,,,54,0.808113812,0.814814815,,,,,,,
decision,142,485230,0.0-44.0-2.0,,347.0999999,run_exp/static/images/task_images/land.jpg,65,,,,,,44,,,6,,,,,,,,165738,1,3,FALSE,,,
dig,143,487889,0.0-45.0-0.0,,,,,,,,,,,"[{""stimulus"":""run_exp/static/images/task_images/dig.jpg"",""time"":0.40000009536743164},{""stimulus"":""run_exp/static/images/task_images/land.jpg"",""time"":890.5},{""stimulus"":""run_exp/static/images/task_images/dig.jpg"",""time"":1774.5}]",[],6,,,,,,,,,,,,,,
harvest,144,488896,0.0-45.0-1.0,,null,run_exp/static/images/task_images/gems/44.jpg,null,,,,,,36,,,6,,,,,44,0.820639771,0.818181818,,,,,,,
decision,145,489115,0.0-45.0-2.0,,217.6999999,run_exp/static/images/task_images/land.jpg,65,,,,,,36,,,6,,,,,,,,169623,1,4,FALSE,,,
dig,146,491903,0.0-46.0-0.0,,,,,,,,,,,"[{""stimulus"":""run_exp/static/images/task_images/dig.jpg"",""time"":1.7999999523162842},{""stimulus"":""run_exp/static/images/task_images/land.jpg"",""time"":934.2999999523163},{""stimulus"":""run_exp/static/images/task_images/dig.jpg"",""time"":1860.1000000238419}]",[],6,,,,,,,,,,,,,,
harvest,147,492910,0.0-46.0-1.0,,null,run_exp/static/images/task_images/gems/36.jpg,null,,,,,,29,,,6,,,,,36,0.806334466,0.805555556,,,,,,,
decision,148,493223,0.0-46.0-2.0,,311.4,run_exp/static/images/task_images/land.jpg,65,,,,,,29,,,6,,,,,,,,173731,1,5,FALSE,,,
dig,149,495917,0.0-47.0-0.0,,,,,,,,,,,"[{""stimulus"":""run_exp/static/images/task_images/dig.jpg"",""time"":0.20000004768371582},{""stimulus"":""run_exp/static/images/task_images/land.jpg"",""time"":898.5},{""stimulus"":""run_exp/static/images/task_images/dig.jpg"",""time"":1796.3999999761581}]",[],6,,,,,,,,,,,,,,
harvest,150,496922,0.0-47.0-1.0,,null,run_exp/static/images/task_images/gems/29.jpg,null,,,,,,22,,,6,,,,,29,0.750587363,0.75862069,,,,,,,
decision,151,497147,0.0-47.0-2.0,,222.7,run_exp/static/images/task_images/land.jpg,65,,,,,,22,,,6,,,,,,,,177655,1,6,FALSE,,,
dig,152,499931,0.0-48.0-0.0,,,,,,,,,,,"[{""stimulus"":""run_exp/static/images/task_images/dig.jpg"",""time"":1.3000000715255737},{""stimulus"":""run_exp/static/images/task_images/land.jpg"",""time"":931.8000000715256},{""stimulus"":""run_exp/static/images/task_images/dig.jpg"",""time"":1853.8999999761581}]",[],6,,,,,,,,,,,,,,
harvest,153,500934,0.0-48.0-1.0,,null,run_exp/static/images/task_images/gems/22.jpg,null,,,,,,15,,,6,,,,,22,0.688219849,0.681818182,,,,,,,
decision,154,501212,0.0-48.0-2.0,,275.5,run_exp/static/images/task_images/land.jpg,65,,,,,,15,,,6,,,,,,,,181720,1,7,FALSE,,,
dig,155,503942,0.0-49.0-0.0,,,,,,,,,,,"[{""stimulus"":""run_exp/static/images/task_images/dig.jpg"",""time"":0.3999999761581421},{""stimulus"":""run_exp/static/images/task_images/land.jpg"",""time"":911.7999999523163},{""stimulus"":""run_exp/static/images/task_images/dig.jpg"",""time"":1820.6000000238419}]",[],6,,,,,,,,,,,,,,
harvest,156,504948,0.0-49.0-1.0,,null,run_exp/static/images/task_images/gems/15.jpg,null,,,,,,12,,,6,,,,,15,0.806551633,0.8,,,,,,,
decision,157,505272,0.0-49.0-2.0,,322.3,run_exp/static/images/task_images/land.jpg,76,,,,,,12,,,6,,,,,,,,185780,1,8,TRUE,,,
travel,158,514956,0.0-50.0-0.0,,,,,,,,,,,"[{""stimulus"":""run_exp/static/images/task_images/rocket-01.jpg"",""time"":0.30000007152557373},{""stimulus"":""run_exp/static/images/task_images/rocket-02.jpg"",""time"":1077.8999999761581},{""stimulus"":""run_exp/static/images/task_images/rocket-03.jpg"",""time"":2153.600000023842},{""stimulus"":""run_exp/static/images/task_images/rocket-04.jpg"",""time"":3229.100000023842},{""stimulus"":""run_exp/static/images/task_images/rocket-05.jpg"",""time"":4302.600000023842},{""stimulus"":""run_exp/static/images/task_images/rocket-06.jpg"",""time"":5381.700000047684},{""stimulus"":""run_exp/static/images/task_images/rocket-07.jpg"",""time"":6454.800000071526},{""stimulus"":""run_exp/static/images/task_images/rocket-08.jpg"",""time"":7526.5},{""stimulus"":""run_exp/static/images/task_images/rocket-09.jpg"",""time"":8605.700000047684}]",[],6,,,,,,,,,,,,,,
alien_welcome,159,519960,0.0-50.0-1.0,,null,run_exp/static/images/task_images/aliens/old_aliens/planet/alien_planet-58.jpg,null,,,,,,,,,,,,58,"24,8,5,30,3,51,58,4,33,73,34,72,19,61,45,42,6,66,11,65,22,18,13,78,48,79,49,59,41,12,39,1,64,63,50,71,10,47,20,36,67,29,46,32,31",,,,,,,,,,
land,160,520471,0.0-50.0-2.0,,null,run_exp/static/images/task_images/land.jpg,null,,,,,,104,,,7,,,,,,,,,,,,,,
dig,161,522479,0.0-50.0-3.0,,,,,,,,,,,"[{""stimulus"":""run_exp/static/images/task_images/dig.jpg"",""time"":0.3999999761581421},{""stimulus"":""run_exp/static/images/task_images/land.jpg"",""time"":672.6999999284744},{""stimulus"":""run_exp/static/images/task_images/dig.jpg"",""time"":1338.2999999523163}]",[],7,,,,,,,,,,,,,,
harvest,162,523482,0.0-50.0-4.0,,null,run_exp/static/images/task_images/gems/104.jpg,null,,,,,,93,,,7,,,,,104,0.891177363,0.894230769,,,,,,,
decision,163,523797,0.0-50.0-5.0,,313.9,run_exp/static/images/task_images/land.jpg,65,,,,,,93,,,7,,,,,,,,204305,1,0,FALSE,,,
dig,164,526489,0.0-51.0-0.0,,,,,,,,,,,"[{""stimulus"":""run_exp/static/images/task_images/dig.jpg"",""time"":0.30000007152557373},{""stimulus"":""run_exp/static/images/task_images/land.jpg"",""time"":897.9000000953674},{""stimulus"":""run_exp/static/images/task_images/dig.jpg"",""time"":1796.5}]",[],7,,,,,,,,,,,,,,
harvest,165,527491,0.0-51.0-1.0,,null,run_exp/static/images/task_images/gems/93.jpg,null,,,,,,68,,,7,,,,,93,0.732188998,0.731182796,,,,,,,
decision,166,527763,0.0-51.0-2.0,,270.4,run_exp/static/images/task_images/land.jpg,65,,,,,,68,,,7,,,,,,,,208271,1,1,FALSE,,,
dig,167,530501,0.0-52.0-0.0,,,,,,,,,,,"[{""stimulus"":""run_exp/static/images/task_images/dig.jpg"",""time"":0.3999999761581421},{""stimulus"":""run_exp/static/images/task_images/land.jpg"",""time"":915.3000000715256},{""stimulus"":""run_exp/static/images/task_images/dig.jpg"",""time"":1823.2000000476837}]",[],7,,,,,,,,,,,,,,
harvest,168,531505,0.0-52.0-1.0,,null,run_exp/static/images/task_images/gems/68.jpg,null,,,,,,57,,,7,,,,,68,0.842807769,0.838235294,,,,,,,
decision,169,531768,0.0-52.0-2.0,,261.9,run_exp/static/images/task_images/land.jpg,65,,,,,,57,,,7,,,,,,,,212276,1,2,FALSE,,,
dig,170,534513,0.0-53.0-0.0,,,,,,,,,,,"[{""stimulus"":""run_exp/static/images/task_images/dig.jpg"",""time"":0.30000007152557373},{""stimulus"":""run_exp/static/images/task_images/land.jpg"",""time"":914.7000000476837},{""stimulus"":""run_exp/static/images/task_images/dig.jpg"",""time"":1826.1000000238419}]",[],7,,,,,,,,,,,,,,
harvest,171,535517,0.0-53.0-1.0,,null,run_exp/static/images/task_images/gems/57.jpg,null,,,,,,46,,,7,,,,,57,0.806442587,0.807017544,,,,,,,
decision,172,535664,0.0-53.0-2.0,,145,run_exp/static/images/task_images/land.jpg,65,,,,,,46,,,7,,,,,,,,216172,1,3,FALSE,,,
dig,173,538527,0.0-54.0-0.0,,,,,,,,,,,"[{""stimulus"":""run_exp/static/images/task_images/dig.jpg"",""time"":0.7999999523162842},{""stimulus"":""run_exp/static/images/task_images/land.jpg"",""time"":958},{""stimulus"":""run_exp/static/images/task_images/dig.jpg"",""time"":1907}]",[],7,,,,,,,,,,,,,,
harvest,174,539534,0.0-54.0-1.0,,null,run_exp/static/images/task_images/gems/46.jpg,null,,,,,,35,,,7,,,,,46,0.76797806,0.760869565,,,,,,,
decision,175,539929,0.0-54.0-2.0,,393.3,run_exp/static/images/task_images/land.jpg,65,,,,,,35,,,7,,,,,,,,220437,1,4,FALSE,,,
dig,176,542541,0.0-55.0-0.0,,,,,,,,,,,"[{""stimulus"":""run_exp/static/images/task_images/dig.jpg"",""time"":0.40000009536743164},{""stimulus"":""run_exp/static/images/task_images/land.jpg"",""time"":874.6000000238419},{""stimulus"":""run_exp/static/images/task_images/dig.jpg"",""time"":1738.7000000476837}]",[],7,,,,,,,,,,,,,,
harvest,177,543546,0.0-55.0-1.0,,null,run_exp/static/images/task_images/gems/35.jpg,null,,,,,,26,,,7,,,,,35,0.747709499,0.742857143,,,,,,,
decision,178,543773,0.0-55.0-2.0,,225.1,run_exp/static/images/task_images/land.jpg,76,,,,,,26,,,7,,,,,,,,224281,1,5,TRUE,,,
travel,179,553553,0.0-56.0-0.0,,,,,,,,,,,"[{""stimulus"":""run_exp/static/images/task_images/rocket-01.jpg"",""time"":0.19999992847442627},{""stimulus"":""run_exp/static/images/task_images/rocket-02.jpg"",""time"":1088.6999999284744},{""stimulus"":""run_exp/static/images/task_images/rocket-03.jpg"",""time"":2179.7999999523163},{""stimulus"":""run_exp/static/images/task_images/rocket-04.jpg"",""time"":3264.399999976158},{""stimulus"":""run_exp/static/images/task_images/rocket-05.jpg"",""time"":4350.199999928474},{""stimulus"":""run_exp/static/images/task_images/rocket-06.jpg"",""time"":5433.699999928474},{""stimulus"":""run_exp/static/images/task_images/rocket-07.jpg"",""time"":6521.5},{""stimulus"":""run_exp/static/images/task_images/rocket-08.jpg"",""time"":7608.399999976158},{""stimulus"":""run_exp/static/images/task_images/rocket-09.jpg"",""time"":8694.299999952316}]",[],7,,,,,,,,,,,,,,
alien_welcome,180,558562,0.0-56.0-1.0,,null,run_exp/static/images/task_images/aliens/old_aliens/planet/alien_planet-4.jpg,null,,,,,,,,,,,,4,"24,8,5,30,3,51,58,4,33,73,34,72,19,61,45,42,6,66,11,65,22,18,13,78,48,79,49,59,41,12,39,1,64,63,50,71,10,47,20,36,67,29,46,32,31",,,,,,,,,,
land,181,559066,0.0-56.0-2.0,,null,run_exp/static/images/task_images/land.jpg,null,,,,,,99,,,8,,,,,,,,,,,,,,
dig,182,561072,0.0-56.0-3.0,,,,,,,,,,,"[{""stimulus"":""run_exp/static/images/task_images/dig.jpg"",""time"":0.30000007152557373},{""stimulus"":""run_exp/static/images/task_images/land.jpg"",""time"":670},{""stimulus"":""run_exp/static/images/task_images/dig.jpg"",""time"":1340.6000000238419}]",[],8,,,,,,,,,,,,,,
harvest,183,562074,0.0-56.0-4.0,,null,run_exp/static/images/task_images/gems/99.jpg,null,,,,,,80,,,8,,,,,99,0.804666851,0.808080808,,,,,,,
decision,184,562324,0.0-56.0-5.0,,249,run_exp/static/images/task_images/land.jpg,65,,,,,,80,,,8,,,,,,,,242832,1,0,FALSE,,,
dig,185,565082,0.0-57.0-0.0,,,,,,,,,,,"[{""stimulus"":""run_exp/static/images/task_images/dig.jpg"",""time"":0.3999999761581421},{""stimulus"":""run_exp/static/images/task_images/land.jpg"",""time"":920},{""stimulus"":""run_exp/static/images/task_images/dig.jpg"",""time"":1835.7000000476837}]",[],8,,,,,,,,,,,,,,
harvest,186,566085,0.0-57.0-1.0,,null,run_exp/static/images/task_images/gems/80.jpg,null,,,,,,61,,,8,,,,,80,0.761336799,0.7625,,,,,,,
decision,187,566423,0.0-57.0-2.0,,334.6,run_exp/static/images/task_images/land.jpg,65,,,,,,61,,,8,,,,,,,,246931,1,1,FALSE,,,
dig,188,569093,0.0-58.0-0.0,,,,,,,,,,,"[{""stimulus"":""run_exp/static/images/task_images/dig.jpg"",""time"":0.30000007152557373},{""stimulus"":""run_exp/static/images/task_images/land.jpg"",""time"":893.9000000953674},{""stimulus"":""run_exp/static/images/task_images/dig.jpg"",""time"":1780.8000000715256}]",[],8,,,,,,,,,,,,,,
harvest,189,570095,0.0-58.0-1.0,,null,run_exp/static/images/task_images/gems/61.jpg,null,,,,,,49,,,8,,,,,61,0.796378249,0.803278689,,,,,,,
decision,190,570308,0.0-58.0-2.0,,211.5,run_exp/static/images/task_images/land.jpg,65,,,,,,49,,,8,,,,,,,,250816,1,2,FALSE,,,
dig,191,573101,0.0-59.0-0.0,,,,,,,,,,,"[{""stimulus"":""run_exp/static/images/task_images/dig.jpg"",""time"":0.5},{""stimulus"":""run_exp/static/images/task_images/land.jpg"",""time"":932.3999999761581},{""stimulus"":""run_exp/static/images/task_images/dig.jpg"",""time"":1863.5}]",[],8,,,,,,,,,,,,,,
harvest,192,574103,0.0-59.0-1.0,,null,run_exp/static/images/task_images/gems/49.jpg,null,,,,,,42,,,8,,,,,49,0.848016452,0.857142857,,,,,,,
decision,193,574228,0.0-59.0-2.0,,123.6999999,run_exp/static/images/task_images/land.jpg,76,,,,,,42,,,8,,,,,,,,254736,1,3,TRUE,,,
travel,194,584111,0.0-60.0-0.0,,,,,,,,,,,"[{""stimulus"":""run_exp/static/images/task_images/rocket-01.jpg"",""time"":0.2999999523162842},{""stimulus"":""run_exp/static/images/task_images/rocket-02.jpg"",""time"":1101.8999999761581},{""stimulus"":""run_exp/static/images/task_images/rocket-03.jpg"",""time"":2196},{""stimulus"":""run_exp/static/images/task_images/rocket-04.jpg"",""time"":3297.399999976158},{""stimulus"":""run_exp/static/images/task_images/rocket-05.jpg"",""time"":4394.199999928474},{""stimulus"":""run_exp/static/images/task_images/rocket-06.jpg"",""time"":5489.799999952316},{""stimulus"":""run_exp/static/images/task_images/rocket-07.jpg"",""time"":6584.5},{""stimulus"":""run_exp/static/images/task_images/rocket-08.jpg"",""time"":7683.5},{""stimulus"":""run_exp/static/images/task_images/rocket-09.jpg"",""time"":8778.100000023842}]",[],8,,,,,,,,,,,,,,
alien_welcome,195,589115,0.0-60.0-1.0,,null,run_exp/static/images/task_images/aliens/old_aliens/planet/alien_planet-33.jpg,null,,,,,,,,,,,,33,"24,8,5,30,3,51,58,4,33,73,34,72,19,61,45,42,6,66,11,65,22,18,13,78,48,79,49,59,41,12,39,1,64,63,50,71,10,47,20,36,67,29,46,32,31",,,,,,,,,,
land,196,589619,0.0-60.0-2.0,,null,run_exp/static/images/task_images/land.jpg,null,,,,,,99,,,9,,,,,,,,,,,,,,
dig,197,591625,0.0-60.0-3.0,,,,,,,,,,,"[{""stimulus"":""run_exp/static/images/task_images/dig.jpg"",""time"":0.5},{""stimulus"":""run_exp/static/images/task_images/land.jpg"",""time"":673.8000000715256},{""stimulus"":""run_exp/static/images/task_images/dig.jpg"",""time"":1338.8000000715256}]",[],9,,,,,,,,,,,,,,
harvest,198,592631,0.0-60.0-4.0,,null,run_exp/static/images/task_images/gems/99.jpg,null,,,,,,20,,,9,,,,,99,0.204067094,0.202020202,,,,,,,
decision,199,592661,0.0-60.0-5.0,,27.5999999,run_exp/static/images/task_images/land.jpg,65,,,,,,20,,,9,,,,,,,,273169,1,0,FALSE,,,
dig,200,595638,0.0-61.0-0.0,,,,,,,,,,,"[{""stimulus"":""run_exp/static/images/task_images/dig.jpg"",""time"":0.5},{""stimulus"":""run_exp/static/images/task_images/land.jpg"",""time"":994},{""stimulus"":""run_exp/static/images/task_images/dig.jpg"",""time"":1982.5}]",[],9,,,,,,,,,,,,,,
harvest,201,596643,0.0-61.0-1.0,,null,run_exp/static/images/task_images/gems/20.jpg,null,,,,,,3,,,9,,,,,20,0.173003053,0.15,,,,,,,
decision,202,597013,0.0-61.0-2.0,,367.8,run_exp/static/images/task_images/land.jpg,76,,,,,,3,,,9,,,,,,,,277521,1,1,TRUE,,,
travel,203,606657,0.0-62.0-0.0,,,,,,,,,,,"[{""stimulus"":""run_exp/static/images/task_images/rocket-01.jpg"",""time"":0.5},{""stimulus"":""run_exp/static/images/task_images/rocket-02.jpg"",""time"":1076.1999999284744},{""stimulus"":""run_exp/static/images/task_images/rocket-03.jpg"",""time"":2143.2999999523163},{""stimulus"":""run_exp/static/images/task_images/rocket-04.jpg"",""time"":3214},{""stimulus"":""run_exp/static/images/task_images/rocket-05.jpg"",""time"":4282.899999976158},{""stimulus"":""run_exp/static/images/task_images/rocket-06.jpg"",""time"":5353.599999904633},{""stimulus"":""run_exp/static/images/task_images/rocket-07.jpg"",""time"":6427.299999952316},{""stimulus"":""run_exp/static/images/task_images/rocket-08.jpg"",""time"":7497.099999904633},{""stimulus"":""run_exp/static/images/task_images/rocket-09.jpg"",""time"":8564.299999952316}]",[],9,,,,,,,,,,,,,,
alien_welcome,204,611665,0.0-62.0-1.0,,null,run_exp/static/images/task_images/aliens/old_aliens/planet/alien_planet-73.jpg,null,,,,,,,,,,,,73,"24,8,5,30,3,51,58,4,33,73,34,72,19,61,45,42,6,66,11,65,22,18,13,78,48,79,49,59,41,12,39,1,64,63,50,71,10,47,20,36,67,29,46,32,31",,,,,,,,,,
land,205,612172,0.0-62.0-2.0,,null,run_exp/static/images/task_images/land.jpg,null,,,,,,98,,,10,,,,,,,,,,,,,,
dig,206,614178,0.0-62.0-3.0,,,,,,,,,,,"[{""stimulus"":""run_exp/static/images/task_images/dig.jpg"",""time"":0.3999999761581421},{""stimulus"":""run_exp/static/images/task_images/land.jpg"",""time"":673.6000000238419},{""stimulus"":""run_exp/static/images/task_images/dig.jpg"",""time"":1340.6000000238419}]",[],10,,,,,,,,,,,,,,
harvest,207,615180,0.0-62.0-4.0,,null,run_exp/static/images/task_images/gems/98.jpg,null,,,,,,24,,,10,,,,,98,0.241783054,0.244897959,,,,,,,
decision,208,615538,0.0-62.0-5.0,,355.5999999,run_exp/static/images/task_images/land.jpg,65,,,,,,24,,,10,,,,,,,,296046,1,0,FALSE,,,
dig,209,618188,0.0-63.0-0.0,,,,,,,,,,,"[{""stimulus"":""run_exp/static/images/task_images/dig.jpg"",""time"":0.3999999761581421},{""stimulus"":""run_exp/static/images/task_images/land.jpg"",""time"":883},{""stimulus"":""run_exp/static/images/task_images/dig.jpg"",""time"":1766.2999999523163}]",[],10,,,,,,,,,,,,,,
harvest,210,619194,0.0-63.0-1.0,,null,run_exp/static/images/task_images/gems/24.jpg,null,,,,,,4,,,10,,,,,24,0.178831023,0.166666667,,,,,,,
decision,211,619496,0.0-63.0-2.0,,300.1,run_exp/static/images/task_images/land.jpg,76,,,,,,4,,,10,,,,,,,,300005,1,1,TRUE,,,
end_of_block_continue,212,622970,0.0-64.0-0.0,,3468,run_exp/static/audio/clip_32_block_end.m4a,,,,,,0,,,,,,,,,,,,,,,,,,
alien_welcome,213,627981,0.0-65.0-0.0,,null,run_exp/static/images/task_images/aliens/old_aliens/planet/alien_planet-34.jpg,null,,,,,,,,,,,,34,"24,8,5,30,3,51,58,4,33,73,34,72,19,61,45,42,6,66,11,65,22,18,13,78,48,79,49,59,41,12,39,1,64,63,50,71,10,47,20,36,67,29,46,32,31",,,,,,,,,,
land,214,628484,0.0-65.0-1.0,,null,run_exp/static/images/task_images/land.jpg,null,,,,,,95,,,11,,,,,,,,,,,,,,
dig,215,630492,0.0-65.0-2.0,,,,,,,,,,,"[{""stimulus"":""run_exp/static/images/task_images/dig.jpg"",""time"":0.3999999761581421},{""stimulus"":""run_exp/static/images/task_images/land.jpg"",""time"":672.7999999523163},{""stimulus"":""run_exp/static/images/task_images/dig.jpg"",""time"":1339.6000000238419}]",[],11,,,,,,,,,,,,,,
harvest,216,631495,0.0-65.0-3.0,,null,run_exp/static/images/task_images/gems/95.jpg,null,,,,,,16,,,11,,,,,95,0.167069806,0.168421053,,,,,,,
decision,217,631635,0.0-65.0-4.0,,139.0999999,run_exp/static/images/task_images/land.jpg,65,,,,,,16,,,11,,,,,,,,8657,2,0,FALSE,,,
dig,218,634503,0.0-66.0-0.0,,,,,,,,,,,"[{""stimulus"":""run_exp/static/images/task_images/dig.jpg"",""time"":1.899999976158142},{""stimulus"":""run_exp/static/images/task_images/land.jpg"",""time"":961.1999999284744},{""stimulus"":""run_exp/static/images/task_images/dig.jpg"",""time"":1913.1000000238419}]",[],11,,,,,,,,,,,,,,
harvest,219,635505,0.0-66.0-1.0,,null,run_exp/static/images/task_images/gems/16.jpg,null,,,,,,2,,,11,,,,,16,0.143098025,0.125,,,,,,,
decision,220,635897,0.0-66.0-2.0,,390.8,run_exp/static/images/task_images/land.jpg,76,,,,,,2,,,11,,,,,,,,12919,2,1,TRUE,,,
travel,221,645511,0.0-67.0-0.0,,,,,,,,,,,"[{""stimulus"":""run_exp/static/images/task_images/rocket-01.jpg"",""time"":0.2999999523162842},{""stimulus"":""run_exp/static/images/task_images/rocket-02.jpg"",""time"":1072.6999999284744},{""stimulus"":""run_exp/static/images/task_images/rocket-03.jpg"",""time"":2139.399999976158},{""stimulus"":""run_exp/static/images/task_images/rocket-04.jpg"",""time"":3206.399999976158},{""stimulus"":""run_exp/static/images/task_images/rocket-05.jpg"",""time"":4273.5},{""stimulus"":""run_exp/static/images/task_images/rocket-06.jpg"",""time"":5339.699999928474},{""stimulus"":""run_exp/static/images/task_images/rocket-07.jpg"",""time"":6406.100000023842},{""stimulus"":""run_exp/static/images/task_images/rocket-08.jpg"",""time"":7476},{""stimulus"":""run_exp/static/images/task_images/rocket-09.jpg"",""time"":8540.699999928474}]",[],11,,,,,,,,,,,,,,
alien_welcome,222,650514,0.0-67.0-1.0,,null,run_exp/static/images/task_images/aliens/old_aliens/planet/alien_planet-72.jpg,null,,,,,,,,,,,,72,"24,8,5,30,3,51,58,4,33,73,34,72,19,61,45,42,6,66,11,65,22,18,13,78,48,79,49,59,41,12,39,1,64,63,50,71,10,47,20,36,67,29,46,32,31",,,,,,,,,,
land,223,651016,0.0-67.0-2.0,,null,run_exp/static/images/task_images/land.jpg,null,,,,,,103,,,12,,,,,,,,,,,,,,
dig,224,653025,0.0-67.0-3.0,,,,,,,,,,,"[{""stimulus"":""run_exp/static/images/task_images/dig.jpg"",""time"":0.5},{""stimulus"":""run_exp/static/images/task_images/land.jpg"",""time"":669.5},{""stimulus"":""run_exp/static/images/task_images/dig.jpg"",""time"":1335.6000000238419}]",[],12,,,,,,,,,,,,,,
harvest,225,654030,0.0-67.0-4.0,,null,run_exp/static/images/task_images/gems/103.jpg,null,,,,,,29,,,12,,,,,103,0.27857966,0.281553398,,,,,,,
decision,226,654248,0.0-67.0-5.0,,216.5,run_exp/static/images/task_images/land.jpg,65,,,,,,29,,,12,,,,,,,,31270,2,0,FALSE,,,
dig,227,657040,0.0-68.0-0.0,,,,,,,,,,,"[{""stimulus"":""run_exp/static/images/task_images/dig.jpg"",""time"":0.5},{""stimulus"":""run_exp/static/images/task_images/land.jpg"",""time"":929.1000000238419},{""stimulus"":""run_exp/static/images/task_images/dig.jpg"",""time"":1857.3000000715256}]",[],12,,,,,,,,,,,,,,
harvest,228,658042,0.0-68.0-1.0,,null,run_exp/static/images/task_images/gems/29.jpg,null,,,,,,6,,,12,,,,,29,0.217234926,0.206896552,,,,,,,
decision,229,658356,0.0-68.0-2.0,,312.6,run_exp/static/images/task_images/land.jpg,76,,,,,,6,,,12,,,,,,,,35378,2,1,TRUE,,,
travel,230,668050,0.0-69.0-0.0,,,,,,,,,,,"[{""stimulus"":""run_exp/static/images/task_images/rocket-01.jpg"",""time"":0.30000007152557373},{""stimulus"":""run_exp/static/images/task_images/rocket-02.jpg"",""time"":1079.8000000715256},{""stimulus"":""run_exp/static/images/task_images/rocket-03.jpg"",""time"":2158.3000000715256},{""stimulus"":""run_exp/static/images/task_images/rocket-04.jpg"",""time"":3234.600000023842},{""stimulus"":""run_exp/static/images/task_images/rocket-05.jpg"",""time"":4310.399999976158},{""stimulus"":""run_exp/static/images/task_images/rocket-06.jpg"",""time"":5381.399999976158},{""stimulus"":""run_exp/static/images/task_images/rocket-07.jpg"",""time"":6459.399999976158},{""stimulus"":""run_exp/static/images/task_images/rocket-08.jpg"",""time"":7534.5},{""stimulus"":""run_exp/static/images/task_images/rocket-09.jpg"",""time"":8611.899999976158}]",[],12,,,,,,,,,,,,,,
alien_welcome,231,673054,0.0-69.0-1.0,,null,run_exp/static/images/task_images/aliens/old_aliens/planet/alien_planet-19.jpg,null,,,,,,,,,,,,19,"24,8,5,30,3,51,58,4,33,73,34,72,19,61,45,42,6,66,11,65,22,18,13,78,48,79,49,59,41,12,39,1,64,63,50,71,10,47,20,36,67,29,46,32,31",,,,,,,,,,
land,232,673561,0.0-69.0-2.0,,null,run_exp/static/images/task_images/land.jpg,null,,,,,,107,,,13,,,,,,,,,,,,,,
dig,233,675570,0.0-69.0-3.0,,,,,,,,,,,"[{""stimulus"":""run_exp/static/images/task_images/dig.jpg"",""time"":0.3999999761581421},{""stimulus"":""run_exp/static/images/task_images/land.jpg"",""time"":672.2999999523163},{""stimulus"":""run_exp/static/images/task_images/dig.jpg"",""time"":1340.7000000476837}]",[],13,,,,,,,,,,,,,,
harvest,234,676577,0.0-69.0-4.0,,null,run_exp/static/images/task_images/gems/107.jpg,null,,,,,,14,,,13,,,,,107,0.132536073,0.130841121,,,,,,,
decision,235,676917,0.0-69.0-5.0,,338.0999999,run_exp/static/images/task_images/land.jpg,65,,,,,,14,,,13,,,,,,,,53939,2,0,FALSE,,,
dig,236,679590,0.0-70.0-0.0,,,,,,,,,,,"[{""stimulus"":""run_exp/static/images/task_images/dig.jpg"",""time"":0.3999999761581421},{""stimulus"":""run_exp/static/images/task_images/land.jpg"",""time"":894.2000000476837},{""stimulus"":""run_exp/static/images/task_images/dig.jpg"",""time"":1780.6000000238419}]",[],13,,,,,,,,,,,,,,
harvest,237,680594,0.0-70.0-1.0,,null,run_exp/static/images/task_images/gems/14.jpg,null,,,,,,4,,,13,,,,,14,0.284994403,0.285714286,,,,,,,
decision,238,680888,0.0-70.0-2.0,,291.9,run_exp/static/images/task_images/land.jpg,76,,,,,,4,,,13,,,,,,,,57910,2,1,TRUE,,,
travel,239,690600,0.0-71.0-0.0,,,,,,,,,,,"[{""stimulus"":""run_exp/static/images/task_images/rocket-01.jpg"",""time"":0.2999999523162842},{""stimulus"":""run_exp/static/images/task_images/rocket-02.jpg"",""time"":1080.8999999761581},{""stimulus"":""run_exp/static/images/task_images/rocket-03.jpg"",""time"":2161.7999999523163},{""stimulus"":""run_exp/static/images/task_images/rocket-04.jpg"",""time"":3238.2999999523163},{""stimulus"":""run_exp/static/images/task_images/rocket-05.jpg"",""time"":4318.299999952316},{""stimulus"":""run_exp/static/images/task_images/rocket-06.jpg"",""time"":5396.399999976158},{""stimulus"":""run_exp/static/images/task_images/rocket-07.jpg"",""time"":6474.399999976158},{""stimulus"":""run_exp/static/images/task_images/rocket-08.jpg"",""time"":7550.399999976158},{""stimulus"":""run_exp/static/images/task_images/rocket-09.jpg"",""time"":8629.199999928474}]",[],13,,,,,,,,,,,,,,
alien_welcome,240,695605,0.0-71.0-1.0,,null,run_exp/static/images/task_images/aliens/old_aliens/planet/alien_planet-61.jpg,null,,,,,,,,,,,,61,"24,8,5,30,3,51,58,4,33,73,34,72,19,61,45,42,6,66,11,65,22,18,13,78,48,79,49,59,41,12,39,1,64,63,50,71,10,47,20,36,67,29,46,32,31",,,,,,,,,,
land,241,696108,0.0-71.0-2.0,,null,run_exp/static/images/task_images/land.jpg,null,,,,,,106,,,14,,,,,,,,,,,,,,
dig,242,698117,0.0-71.0-3.0,,,,,,,,,,,"[{""stimulus"":""run_exp/static/images/task_images/dig.jpg"",""time"":0.3999999761581421},{""stimulus"":""run_exp/static/images/task_images/land.jpg"",""time"":670.8999999761581},{""stimulus"":""run_exp/static/images/task_images/dig.jpg"",""time"":1335.8999999761581}]",[],14,,,,,,,,,,,,,,
harvest,243,699119,0.0-71.0-4.0,,null,run_exp/static/images/task_images/gems/106.jpg,null,,,,,,83,,,14,,,,,106,0.779589231,0.783018868,,,,,,,
decision,244,699542,0.0-71.0-5.0,,421.2,run_exp/static/images/task_images/land.jpg,65,,,,,,83,,,14,,,,,,,,76564,2,0,FALSE,,,
dig,245,702127,0.0-72.0-0.0,,,,,,,,,,,"[{""stimulus"":""run_exp/static/images/task_images/dig.jpg"",""time"":0.30000007152557373},{""stimulus"":""run_exp/static/images/task_images/land.jpg"",""time"":864.9000000953674},{""stimulus"":""run_exp/static/images/task_images/dig.jpg"",""time"":1724.5}]",[],14,,,,,,,,,,,,,,
harvest,246,703129,0.0-72.0-1.0,,null,run_exp/static/images/task_images/gems/83.jpg,null,,,,,,66,,,14,,,,,83,0.789717181,0.795180723,,,,,,,
decision,247,703393,0.0-72.0-2.0,,262.3,run_exp/static/images/task_images/land.jpg,65,,,,,,66,,,14,,,,,,,,80415,2,1,FALSE,,,
dig,248,706136,0.0-73.0-0.0,,,,,,,,,,,"[{""stimulus"":""run_exp/static/images/task_images/dig.jpg"",""time"":0.30000007152557373},{""stimulus"":""run_exp/static/images/task_images/land.jpg"",""time"":918.9000000953674},{""stimulus"":""run_exp/static/images/task_images/dig.jpg"",""time"":1829.5}]",[],14,,,,,,,,,,,,,,
harvest,249,707139,0.0-73.0-1.0,,null,run_exp/static/images/task_images/gems/66.jpg,null,,,,,,52,,,14,,,,,66,0.789768192,0.787878788,,,,,,,
decision,250,707415,0.0-73.0-2.0,,274.1999999,run_exp/static/images/task_images/land.jpg,65,,,,,,52,,,14,,,,,,,,84438,2,2,FALSE,,,
dig,251,710149,0.0-74.0-0.0,,,,,,,,,,,"[{""stimulus"":""run_exp/static/images/task_images/dig.jpg"",""time"":0.5},{""stimulus"":""run_exp/static/images/task_images/land.jpg"",""time"":914.6999999284744},{""stimulus"":""run_exp/static/images/task_images/dig.jpg"",""time"":1824.2999999523163}]",[],14,,,,,,,,,,,,,,
harvest,252,711155,0.0-74.0-1.0,,null,run_exp/static/images/task_images/gems/52.jpg,null,,,,,,43,,,14,,,,,52,0.822815963,0.826923077,,,,,,,
decision,253,711409,0.0-74.0-2.0,,252.1,run_exp/static/images/task_images/land.jpg,65,,,,,,43,,,14,,,,,,,,88431,2,3,FALSE,,,
dig,254,714162,0.0-75.0-0.0,,,,,,,,,,,"[{""stimulus"":""run_exp/static/images/task_images/dig.jpg"",""time"":0.19999992847442627},{""stimulus"":""run_exp/static/images/task_images/land.jpg"",""time"":917.1999999284744},{""stimulus"":""run_exp/static/images/task_images/dig.jpg"",""time"":1833.1999999284744}]",[],14,,,,,,,,,,,,,,
harvest,255,715166,0.0-75.0-1.0,,null,run_exp/static/images/task_images/gems/43.jpg,null,,,,,,34,,,14,,,,,43,0.792075729,0.790697674,,,,,,,
decision,256,715334,0.0-75.0-2.0,,166.6,run_exp/static/images/task_images/land.jpg,76,,,,,,34,,,14,,,,,,,,92356,2,4,TRUE,,,
travel,257,725173,0.0-76.0-0.0,,,,,,,,,,,"[{""stimulus"":""run_exp/static/images/task_images/rocket-01.jpg"",""time"":0.3999999761581421},{""stimulus"":""run_exp/static/images/task_images/rocket-02.jpg"",""time"":1097.5999999046326},{""stimulus"":""run_exp/static/images/task_images/rocket-03.jpg"",""time"":2189.0999999046326},{""stimulus"":""run_exp/static/images/task_images/rocket-04.jpg"",""time"":3278.5},{""stimulus"":""run_exp/static/images/task_images/rocket-05.jpg"",""time"":4371.599999904633},{""stimulus"":""run_exp/static/images/task_images/rocket-06.jpg"",""time"":5466.799999952316},{""stimulus"":""run_exp/static/images/task_images/rocket-07.jpg"",""time"":6558.599999904633},{""stimulus"":""run_exp/static/images/task_images/rocket-08.jpg"",""time"":7650.5},{""stimulus"":""run_exp/static/images/task_images/rocket-09.jpg"",""time"":8748.599999904633}]",[],14,,,,,,,,,,,,,,
alien_welcome,258,730181,0.0-76.0-1.0,,null,run_exp/static/images/task_images/aliens/old_aliens/planet/alien_planet-45.jpg,null,,,,,,,,,,,,45,"24,8,5,30,3,51,58,4,33,73,34,72,19,61,45,42,6,66,11,65,22,18,13,78,48,79,49,59,41,12,39,1,64,63,50,71,10,47,20,36,67,29,46,32,31",,,,,,,,,,
land,259,730686,0.0-76.0-2.0,,null,run_exp/static/images/task_images/land.jpg,null,,,,,,96,,,15,,,,,,,,,,,,,,
dig,260,732691,0.0-76.0-3.0,,,,,,,,,,,"[{""stimulus"":""run_exp/static/images/task_images/dig.jpg"",""time"":0.5},{""stimulus"":""run_exp/static/images/task_images/land.jpg"",""time"":670.1999999284744},{""stimulus"":""run_exp/static/images/task_images/dig.jpg"",""time"":1337.5}]",[],15,,,,,,,,,,,,,,
harvest,261,733694,0.0-76.0-4.0,,null,run_exp/static/images/task_images/gems/96.jpg,null,,,,,,72,,,15,,,,,96,0.748300339,0.75,,,,,,,
decision,262,733877,0.0-76.0-5.0,,182.1999999,run_exp/static/images/task_images/land.jpg,65,,,,,,72,,,15,,,,,,,,110899,2,0,FALSE,,,
dig,263,736702,0.0-77.0-0.0,,,,,,,,,,,"[{""stimulus"":""run_exp/static/images/task_images/dig.jpg"",""time"":0.3999999761581421},{""stimulus"":""run_exp/static/images/task_images/land.jpg"",""time"":941.6999999284744},{""stimulus"":""run_exp/static/images/task_images/dig.jpg"",""time"":1880.1999999284744}]",[],15,,,,,,,,,,,,,,
harvest,264,737705,0.0-77.0-1.0,,null,run_exp/static/images/task_images/gems/72.jpg,null,,,,,,56,,,15,,,,,72,0.784211994,0.777777778,,,,,,,
decision,265,737934,0.0-77.0-2.0,,228.2,run_exp/static/images/task_images/land.jpg,65,,,,,,56,,,15,,,,,,,,114957,2,1,FALSE,,,
dig,266,740712,0.0-78.0-0.0,,,,,,,,,,,"[{""stimulus"":""run_exp/static/images/task_images/dig.jpg"",""time"":1.9000000953674316},{""stimulus"":""run_exp/static/images/task_images/land.jpg"",""time"":928.1000000238419},{""stimulus"":""run_exp/static/images/task_images/dig.jpg"",""time"":1853.2000000476837}]",[],15,,,,,,,,,,,,,,
harvest,267,741715,0.0-78.0-1.0,,null,run_exp/static/images/task_images/gems/56.jpg,null,,,,,,46,,,15,,,,,56,0.815236047,0.821428571,,,,,,,
decision,268,741729,0.0-78.0-2.0,,11.4000001,run_exp/static/images/task_images/land.jpg,65,,,,,,46,,,15,,,,,,,,118751,2,2,FALSE,,,
dig,269,744726,0.0-79.0-0.0,,,,,,,,,,,"[{""stimulus"":""run_exp/static/images/task_images/dig.jpg"",""time"":0.9000000953674316},{""stimulus"":""run_exp/static/images/task_images/land.jpg"",""time"":999.6000000238419},{""stimulus"":""run_exp/static/images/task_images/dig.jpg"",""time"":1997.9000000953674}]",[],15,,,,,,,,,,,,,,
harvest,270,745729,0.0-79.0-1.0,,null,run_exp/static/images/task_images/gems/46.jpg,null,,,,,,38,,,15,,,,,46,0.821734979,0.826086957,,,,,,,
decision,271,745809,0.0-79.0-2.0,,79.10000002,run_exp/static/images/task_images/land.jpg,65,,,,,,38,,,15,,,,,,,,122832,2,3,FALSE,,,
dig,272,748738,0.0-80.0-0.0,,,,,,,,,,,"[{""stimulus"":""run_exp/static/images/task_images/dig.jpg"",""time"":0.2999999523162842},{""stimulus"":""run_exp/static/images/task_images/land.jpg"",""time"":976.6000000238419},{""stimulus"":""run_exp/static/images/task_images/dig.jpg"",""time"":1949.5}]",[],15,,,,,,,,,,,,,,
harvest,273,749742,0.0-80.0-1.0,,null,run_exp/static/images/task_images/gems/38.jpg,null,,,,,,35,,,15,,,,,38,0.908891778,0.921052632,,,,,,,
decision,274,750013,0.0-80.0-2.0,,267.8000001,run_exp/static/images/task_images/land.jpg,76,,,,,,35,,,15,,,,,,,,127035,2,4,TRUE,,,
travel,275,759750,0.0-81.0-0.0,,,,,,,,,,,"[{""stimulus"":""run_exp/static/images/task_images/rocket-01.jpg"",""time"":0.3999999761581421},{""stimulus"":""run_exp/static/images/task_images/rocket-02.jpg"",""time"":1085.1999999284744},{""stimulus"":""run_exp/static/images/task_images/rocket-03.jpg"",""time"":2164.7999999523163},{""stimulus"":""run_exp/static/images/task_images/rocket-04.jpg"",""time"":3248.100000023842},{""stimulus"":""run_exp/static/images/task_images/rocket-05.jpg"",""time"":4327.199999928474},{""stimulus"":""run_exp/static/images/task_images/rocket-06.jpg"",""time"":5410.299999952316},{""stimulus"":""run_exp/static/images/task_images/rocket-07.jpg"",""time"":6492.199999928474},{""stimulus"":""run_exp/static/images/task_images/rocket-08.jpg"",""time"":7571.600000023842},{""stimulus"":""run_exp/static/images/task_images/rocket-09.jpg"",""time"":8651.699999928474}]",[],15,,,,,,,,,,,,,,
alien_welcome,276,764756,0.0-81.0-1.0,,null,run_exp/static/images/task_images/aliens/old_aliens/planet/alien_planet-42.jpg,null,,,,,,,,,,,,42,"24,8,5,30,3,51,58,4,33,73,34,72,19,61,45,42,6,66,11,65,22,18,13,78,48,79,49,59,41,12,39,1,64,63,50,71,10,47,20,36,67,29,46,32,31",,,,,,,,,,
land,277,765263,0.0-81.0-2.0,,null,run_exp/static/images/task_images/land.jpg,null,,,,,,107,,,16,,,,,,,,,,,,,,
dig,278,767267,0.0-81.0-3.0,,,,,,,,,,,"[{""stimulus"":""run_exp/static/images/task_images/dig.jpg"",""time"":0.5},{""stimulus"":""run_exp/static/images/task_images/land.jpg"",""time"":673.8000000715256},{""stimulus"":""run_exp/static/images/task_images/dig.jpg"",""time"":1337.8999999761581}]",[],16,,,,,,,,,,,,,,
harvest,279,768275,0.0-81.0-4.0,,null,run_exp/static/images/task_images/gems/107.jpg,null,,,,,,74,,,16,,,,,107,0.6910033,0.691588785,,,,,,,
decision,280,768561,0.0-81.0-5.0,,284.1,run_exp/static/images/task_images/land.jpg,65,,,,,,74,,,16,,,,,,,,145583,2,0,FALSE,,,
dig,281,771282,0.0-82.0-0.0,,,,,,,,,,,"[{""stimulus"":""run_exp/static/images/task_images/dig.jpg"",""time"":0.19999992847442627},{""stimulus"":""run_exp/static/images/task_images/land.jpg"",""time"":907.1000000238419},{""stimulus"":""run_exp/static/images/task_images/dig.jpg"",""time"":1811.8999999761581}]",[],16,,,,,,,,,,,,,,
harvest,282,772287,0.0-82.0-1.0,,null,run_exp/static/images/task_images/gems/74.jpg,null,,,,,,59,,,16,,,,,74,0.8027269,0.797297297,,,,,,,
decision,283,772431,0.0-82.0-2.0,,142.5,run_exp/static/images/task_images/land.jpg,65,,,,,,59,,,16,,,,,,,,149453,2,1,FALSE,,,
dig,284,775293,0.0-83.0-0.0,,,,,,,,,,,"[{""stimulus"":""run_exp/static/images/task_images/dig.jpg"",""time"":0.3999999761581421},{""stimulus"":""run_exp/static/images/task_images/land.jpg"",""time"":956.7999999523163},{""stimulus"":""run_exp/static/images/task_images/dig.jpg"",""time"":1910.3999999761581}]",[],16,,,,,,,,,,,,,,
harvest,285,776298,0.0-83.0-1.0,,null,run_exp/static/images/task_images/gems/59.jpg,null,,,,,,51,,,16,,,,,59,0.865576917,0.86440678,,,,,,,
decision,286,776450,0.0-83.0-2.0,,150.7,run_exp/static/images/task_images/land.jpg,65,,,,,,51,,,16,,,,,,,,153472,2,2,FALSE,,,
dig,287,779316,0.0-84.0-0.0,,,,,,,,,,,"[{""stimulus"":""run_exp/static/images/task_images/dig.jpg"",""time"":0.7999999523162842},{""stimulus"":""run_exp/static/images/task_images/land.jpg"",""time"":956.1999999284744},{""stimulus"":""run_exp/static/images/task_images/dig.jpg"",""time"":1900.1999999284744}]",[],16,,,,,,,,,,,,,,
harvest,288,780319,0.0-84.0-1.0,,null,run_exp/static/images/task_images/gems/51.jpg,null,,,,,,42,,,16,,,,,51,0.819921704,0.823529412,,,,,,,
decision,289,780529,0.0-84.0-2.0,,208.7,run_exp/static/images/task_images/land.jpg,65,,,,,,42,,,16,,,,,,,,157551,2,3,FALSE,,,
dig,290,783326,0.0-85.0-0.0,,,,,,,,,,,"[{""stimulus"":""run_exp/static/images/task_images/dig.jpg"",""time"":0.19999992847442627},{""stimulus"":""run_exp/static/images/task_images/land.jpg"",""time"":934.0999999046326},{""stimulus"":""run_exp/static/images/task_images/dig.jpg"",""time"":1865.7999999523163}]",[],16,,,,,,,,,,,,,,
harvest,291,784329,0.0-85.0-1.0,,null,run_exp/static/images/task_images/gems/42.jpg,null,,,,,,33,,,16,,,,,42,0.775338711,0.785714286,,,,,,,
decision,292,784534,0.0-85.0-2.0,,203.1,run_exp/static/images/task_images/land.jpg,76,,,,,,33,,,16,,,,,,,,161556,2,4,TRUE,,,
travel,293,794335,0.0-86.0-0.0,,,,,,,,,,,"[{""stimulus"":""run_exp/static/images/task_images/rocket-01.jpg"",""time"":0.3999999761581421},{""stimulus"":""run_exp/static/images/task_images/rocket-02.jpg"",""time"":1089.6000000238419},{""stimulus"":""run_exp/static/images/task_images/rocket-03.jpg"",""time"":2179.399999976158},{""stimulus"":""run_exp/static/images/task_images/rocket-04.jpg"",""time"":3266.399999976158},{""stimulus"":""run_exp/static/images/task_images/rocket-05.jpg"",""time"":4355.799999952316},{""stimulus"":""run_exp/static/images/task_images/rocket-06.jpg"",""time"":5441.899999976158},{""stimulus"":""run_exp/static/images/task_images/rocket-07.jpg"",""time"":6530.600000023842},{""stimulus"":""run_exp/static/images/task_images/rocket-08.jpg"",""time"":7618.100000023842},{""stimulus"":""run_exp/static/images/task_images/rocket-09.jpg"",""time"":8708.600000023842}]",[],16,,,,,,,,,,,,,,
alien_welcome,294,799338,0.0-86.0-1.0,,null,run_exp/static/images/task_images/aliens/old_aliens/planet/alien_planet-6.jpg,null,,,,,,,,,,,,6,"24,8,5,30,3,51,58,4,33,73,34,72,19,61,45,42,6,66,11,65,22,18,13,78,48,79,49,59,41,12,39,1,64,63,50,71,10,47,20,36,67,29,46,32,31",,,,,,,,,,
land,295,799841,0.0-86.0-2.0,,null,run_exp/static/images/task_images/land.jpg,null,,,,,,104,,,17,,,,,,,,,,,,,,
dig,296,801850,0.0-86.0-3.0,,,,,,,,,,,"[{""stimulus"":""run_exp/static/images/task_images/dig.jpg"",""time"":0.2999999523162842},{""stimulus"":""run_exp/static/images/task_images/land.jpg"",""time"":668.8999999761581},{""stimulus"":""run_exp/static/images/task_images/dig.jpg"",""time"":1340.5}]",[],17,,,,,,,,,,,,,,
harvest,297,802857,0.0-86.0-4.0,,null,run_exp/static/images/task_images/gems/104.jpg,null,,,,,,84,,,17,,,,,104,0.805418361,0.807692308,,,,,,,
decision,298,803006,0.0-86.0-5.0,,147.1,run_exp/static/images/task_images/land.jpg,65,,,,,,84,,,17,,,,,,,,180028,2,0,FALSE,,,
dig,299,805867,0.0-87.0-0.0,,,,,,,,,,,"[{""stimulus"":""run_exp/static/images/task_images/dig.jpg"",""time"":0.5},{""stimulus"":""run_exp/static/images/task_images/land.jpg"",""time"":953.2000000476837},{""stimulus"":""run_exp/static/images/task_images/dig.jpg"",""time"":1903.5}]",[],17,,,,,,,,,,,,,,
harvest,300,806869,0.0-87.0-1.0,,null,run_exp/static/images/task_images/gems/84.jpg,null,,,,,,66,,,17,,,,,84,0.785205964,0.785714286,,,,,,,
decision,301,807491,0.0-87.0-2.0,,620.5,run_exp/static/images/task_images/land.jpg,65,,,,,,66,,,17,,,,,,,,184513,2,1,FALSE,,,
dig,302,809876,0.0-88.0-0.0,,,,,,,,,,,"[{""stimulus"":""run_exp/static/images/task_images/dig.jpg"",""time"":0.19999992847442627},{""stimulus"":""run_exp/static/images/task_images/land.jpg"",""time"":799.2999999523163},{""stimulus"":""run_exp/static/images/task_images/dig.jpg"",""time"":1592.5}]",[],17,,,,,,,,,,,,,,
harvest,303,810880,0.0-88.0-1.0,,null,run_exp/static/images/task_images/gems/66.jpg,null,,,,,,56,,,17,,,,,66,0.844595903,0.848484848,,,,,,,
decision,304,811021,0.0-88.0-2.0,,139.4,run_exp/static/images/task_images/land.jpg,65,,,,,,56,,,17,,,,,,,,188043,2,2,FALSE,,,
dig,305,813891,0.0-89.0-0.0,,,,,,,,,,,"[{""stimulus"":""run_exp/static/images/task_images/dig.jpg"",""time"":0.2999999523162842},{""stimulus"":""run_exp/static/images/task_images/land.jpg"",""time"":962.2999999523163},{""stimulus"":""run_exp/static/images/task_images/dig.jpg"",""time"":1912.3999999761581}]",[],17,,,,,,,,,,,,,,
harvest,306,814897,0.0-89.0-1.0,,null,run_exp/static/images/task_images/gems/56.jpg,null,,,,,,43,,,17,,,,,56,0.775751085,0.767857143,,,,,,,
decision,307,814977,0.0-89.0-2.0,,78.10000002,run_exp/static/images/task_images/land.jpg,76,,,,,,43,,,17,,,,,,,,191999,2,3,TRUE,,,
travel,308,824905,0.0-90.0-0.0,,,,,,,,,,,"[{""stimulus"":""run_exp/static/images/task_images/rocket-01.jpg"",""time"":0.19999992847442627},{""stimulus"":""run_exp/static/images/task_images/rocket-02.jpg"",""time"":1108.0999999046326},{""stimulus"":""run_exp/static/images/task_images/rocket-03.jpg"",""time"":2205.899999976158},{""stimulus"":""run_exp/static/images/task_images/rocket-04.jpg"",""time"":3308.0999999046326},{""stimulus"":""run_exp/static/images/task_images/rocket-05.jpg"",""time"":4414.399999976158},{""stimulus"":""run_exp/static/images/task_images/rocket-06.jpg"",""time"":5516.399999976158},{""stimulus"":""run_exp/static/images/task_images/rocket-07.jpg"",""time"":6618.5},{""stimulus"":""run_exp/static/images/task_images/rocket-08.jpg"",""time"":7718.5},{""stimulus"":""run_exp/static/images/task_images/rocket-09.jpg"",""time"":8822.399999976158}]",[],17,,,,,,,,,,,,,,
alien_welcome,309,829909,0.0-90.0-1.0,,null,run_exp/static/images/task_images/aliens/old_aliens/planet/alien_planet-66.jpg,null,,,,,,,,,,,,66,"24,8,5,30,3,51,58,4,33,73,34,72,19,61,45,42,6,66,11,65,22,18,13,78,48,79,49,59,41,12,39,1,64,63,50,71,10,47,20,36,67,29,46,32,31",,,,,,,,,,
land,310,830411,0.0-90.0-2.0,,null,run_exp/static/images/task_images/land.jpg,null,,,,,,105,,,18,,,,,,,,,,,,,,
dig,311,832416,0.0-90.0-3.0,,,,,,,,,,,"[{""stimulus"":""run_exp/static/images/task_images/dig.jpg"",""time"":0.3999999761581421},{""stimulus"":""run_exp/static/images/task_images/land.jpg"",""time"":670},{""stimulus"":""run_exp/static/images/task_images/dig.jpg"",""time"":1340.7999999523163}]",[],18,,,,,,,,,,,,,,
harvest,312,833418,0.0-90.0-4.0,,null,run_exp/static/images/task_images/gems/105.jpg,null,,,,,,87,,,18,,,,,105,0.825030116,0.828571429,,,,,,,
decision,313,833654,0.0-90.0-5.0,,234.8000001,run_exp/static/images/task_images/land.jpg,65,,,,,,87,,,18,,,,,,,,210676,2,0,FALSE,,,
dig,314,836428,0.0-91.0-0.0,,,,,,,,,,,"[{""stimulus"":""run_exp/static/images/task_images/dig.jpg"",""time"":0.20000004768371582},{""stimulus"":""run_exp/static/images/task_images/land.jpg"",""time"":922.3999999761581},{""stimulus"":""run_exp/static/images/task_images/dig.jpg"",""time"":1848}]",[],18,,,,,,,,,,,,,,
harvest,315,837435,0.0-91.0-1.0,,null,run_exp/static/images/task_images/gems/87.jpg,null,,,,,,73,,,18,,,,,87,0.840434953,0.83908046,,,,,,,
decision,316,837581,0.0-91.0-2.0,,143.6999999,run_exp/static/images/task_images/land.jpg,65,,,,,,73,,,18,,,,,,,,214603,2,1,FALSE,,,
dig,317,840441,0.0-92.0-0.0,,,,,,,,,,,"[{""stimulus"":""run_exp/static/images/task_images/dig.jpg"",""time"":0.20000004768371582},{""stimulus"":""run_exp/static/images/task_images/land.jpg"",""time"":954.7000000476837},{""stimulus"":""run_exp/static/images/task_images/dig.jpg"",""time"":1910.2000000476837}]",[],18,,,,,,,,,,,,,,
harvest,318,841443,0.0-92.0-1.0,,null,run_exp/static/images/task_images/gems/73.jpg,null,,,,,,61,,,18,,,,,73,0.83957196,0.835616438,,,,,,,
decision,319,841655,0.0-92.0-2.0,,210.3,run_exp/static/images/task_images/land.jpg,65,,,,,,61,,,18,,,,,,,,218677,2,2,FALSE,,,
dig,320,844454,0.0-93.0-0.0,,,,,,,,,,,"[{""stimulus"":""run_exp/static/images/task_images/dig.jpg"",""time"":0.19999992847442627},{""stimulus"":""run_exp/static/images/task_images/land.jpg"",""time"":934.0999999046326},{""stimulus"":""run_exp/static/images/task_images/dig.jpg"",""time"":1860.1999999284744}]",[],18,,,,,,,,,,,,,,
harvest,321,845458,0.0-93.0-1.0,,null,run_exp/static/images/task_images/gems/61.jpg,null,,,,,,54,,,18,,,,,61,0.885797772,0.885245902,,,,,,,
decision,322,845528,0.0-93.0-2.0,,67.70000005,run_exp/static/images/task_images/land.jpg,65,,,,,,54,,,18,,,,,,,,222550,2,3,FALSE,,,
dig,323,848465,0.0-94.0-0.0,,,,,,,,,,,"[{""stimulus"":""run_exp/static/images/task_images/dig.jpg"",""time"":0.2999999523162842},{""stimulus"":""run_exp/static/images/task_images/land.jpg"",""time"":979.5},{""stimulus"":""run_exp/static/images/task_images/dig.jpg"",""time"":1956.6999999284744}]",[],18,,,,,,,,,,,,,,
harvest,324,849467,0.0-94.0-1.0,,null,run_exp/static/images/task_images/gems/54.jpg,null,,,,,,47,,,18,,,,,54,0.861801714,0.87037037,,,,,,,
decision,325,849512,0.0-94.0-2.0,,42.89999998,run_exp/static/images/task_images/land.jpg,76,,,,,,47,,,18,,,,,,,,226534,2,4,TRUE,,,
travel,326,859479,0.0-95.0-0.0,,,,,,,,,,,"[{""stimulus"":""run_exp/static/images/task_images/rocket-01.jpg"",""time"":0.5},{""stimulus"":""run_exp/static/images/task_images/rocket-02.jpg"",""time"":1109.0999999046326},{""stimulus"":""run_exp/static/images/task_images/rocket-03.jpg"",""time"":2214.2999999523163},{""stimulus"":""run_exp/static/images/task_images/rocket-04.jpg"",""time"":3319.7999999523163},{""stimulus"":""run_exp/static/images/task_images/rocket-05.jpg"",""time"":4430.099999904633},{""stimulus"":""run_exp/static/images/task_images/rocket-06.jpg"",""time"":5533.699999928474},{""stimulus"":""run_exp/static/images/task_images/rocket-07.jpg"",""time"":6641.5},{""stimulus"":""run_exp/static/images/task_images/rocket-08.jpg"",""time"":7745.899999976158},{""stimulus"":""run_exp/static/images/task_images/rocket-09.jpg"",""time"":8851.299999952316}]",[],18,,,,,,,,,,,,,,
alien_welcome,327,864486,0.0-95.0-1.0,,null,run_exp/static/images/task_images/aliens/old_aliens/planet/alien_planet-11.jpg,null,,,,,,,,,,,,11,"24,8,5,30,3,51,58,4,33,73,34,72,19,61,45,42,6,66,11,65,22,18,13,78,48,79,49,59,41,12,39,1,64,63,50,71,10,47,20,36,67,29,46,32,31",,,,,,,,,,
land,328,864993,0.0-95.0-2.0,,null,run_exp/static/images/task_images/land.jpg,null,,,,,,96,,,19,,,,,,,,,,,,,,
dig,329,867002,0.0-95.0-3.0,,,,,,,,,,,"[{""stimulus"":""run_exp/static/images/task_images/dig.jpg"",""time"":0.5},{""stimulus"":""run_exp/static/images/task_images/land.jpg"",""time"":669.7000000476837},{""stimulus"":""run_exp/static/images/task_images/dig.jpg"",""time"":1338.1000000238419}]",[],19,,,,,,,,,,,,,,
harvest,330,868009,0.0-95.0-4.0,,null,run_exp/static/images/task_images/gems/96.jpg,null,,,,,,50,,,19,,,,,96,0.52091187,0.520833333,,,,,,,
decision,331,868399,0.0-95.0-5.0,,388.3,run_exp/static/images/task_images/land.jpg,65,,,,,,50,,,19,,,,,,,,245421,2,0,FALSE,,,
dig,332,871017,0.0-96.0-0.0,,,,,,,,,,,"[{""stimulus"":""run_exp/static/images/task_images/dig.jpg"",""time"":0.2999999523162842},{""stimulus"":""run_exp/static/images/task_images/land.jpg"",""time"":875.7999999523163},{""stimulus"":""run_exp/static/images/task_images/dig.jpg"",""time"":1746.5}]",[],19,,,,,,,,,,,,,,
harvest,333,872029,0.0-96.0-1.0,,null,run_exp/static/images/task_images/gems/50.jpg,null,,,,,,27,,,19,,,,,50,0.540216089,0.54,,,,,,,
decision,334,872272,0.0-96.0-2.0,,241.9,run_exp/static/images/task_images/land.jpg,65,,,,,,27,,,19,,,,,,,,249299,2,1,FALSE,,,
dig,335,875043,0.0-97.0-0.0,,,,,,,,,,,"[{""stimulus"":""run_exp/static/images/task_images/dig.jpg"",""time"":0.40000009536743164},{""stimulus"":""run_exp/static/images/task_images/land.jpg"",""time"":923.4000000953674},{""stimulus"":""run_exp/static/images/task_images/dig.jpg"",""time"":1842.3000000715256}]",[],19,,,,,,,,,,,,,,
harvest,336,876050,0.0-97.0-1.0,,null,run_exp/static/images/task_images/gems/27.jpg,null,,,,,,12,,,19,,,,,27,0.446734583,0.444444444,,,,,,,
decision,337,876148,0.0-97.0-2.0,,95.89999998,run_exp/static/images/task_images/land.jpg,76,,,,,,12,,,19,,,,,,,,253170,2,2,TRUE,,,
travel,338,886055,0.0-98.0-0.0,,,,,,,,,,,"[{""stimulus"":""run_exp/static/images/task_images/rocket-01.jpg"",""time"":0.20000004768371582},{""stimulus"":""run_exp/static/images/task_images/rocket-02.jpg"",""time"":1106.3999999761581},{""stimulus"":""run_exp/static/images/task_images/rocket-03.jpg"",""time"":2206.7999999523163},{""stimulus"":""run_exp/static/images/task_images/rocket-04.jpg"",""time"":3305.100000023842},{""stimulus"":""run_exp/static/images/task_images/rocket-05.jpg"",""time"":4403.899999976158},{""stimulus"":""run_exp/static/images/task_images/rocket-06.jpg"",""time"":5502.700000047684},{""stimulus"":""run_exp/static/images/task_images/rocket-07.jpg"",""time"":6604.299999952316},{""stimulus"":""run_exp/static/images/task_images/rocket-08.jpg"",""time"":7705.200000047684},{""stimulus"":""run_exp/static/images/task_images/rocket-09.jpg"",""time"":8806.299999952316}]",[],19,,,,,,,,,,,,,,
alien_welcome,339,891059,0.0-98.0-1.0,,null,run_exp/static/images/task_images/aliens/old_aliens/planet/alien_planet-65.jpg,null,,,,,,,,,,,,65,"24,8,5,30,3,51,58,4,33,73,34,72,19,61,45,42,6,66,11,65,22,18,13,78,48,79,49,59,41,12,39,1,64,63,50,71,10,47,20,36,67,29,46,32,31",,,,,,,,,,
land,340,891564,0.0-98.0-2.0,,null,run_exp/static/images/task_images/land.jpg,null,,,,,,98,,,20,,,,,,,,,,,,,,
dig,341,893569,0.0-98.0-3.0,,,,,,,,,,,"[{""stimulus"":""run_exp/static/images/task_images/dig.jpg"",""time"":0.3999999761581421},{""stimulus"":""run_exp/static/images/task_images/land.jpg"",""time"":670.5},{""stimulus"":""run_exp/static/images/task_images/dig.jpg"",""time"":1337.3000000715256}]",[],20,,,,,,,,,,,,,,
harvest,342,894576,0.0-98.0-4.0,,null,run_exp/static/images/task_images/gems/98.jpg,null,,,,,,68,,,20,,,,,98,0.697096657,0.693877551,,,,,,,
decision,343,894621,0.0-98.0-5.0,,41.5,run_exp/static/images/task_images/land.jpg,65,,,,,,68,,,20,,,,,,,,271643,2,0,FALSE,,,
dig,344,897592,0.0-99.0-0.0,,,,,,,,,,,"[{""stimulus"":""run_exp/static/images/task_images/dig.jpg"",""time"":0.5},{""stimulus"":""run_exp/static/images/task_images/land.jpg"",""time"":992.7000000476837},{""stimulus"":""run_exp/static/images/task_images/dig.jpg"",""time"":1976.7999999523163}]",[],20,,,,,,,,,,,,,,
harvest,345,898598,0.0-99.0-1.0,,null,run_exp/static/images/task_images/gems/68.jpg,null,,,,,,54,,,20,,,,,68,0.796653014,0.794117647,,,,,,,
decision,346,898755,0.0-99.0-2.0,,155.5999999,run_exp/static/images/task_images/land.jpg,65,,,,,,54,,,20,,,,,,,,275778,2,1,FALSE,,,
dig,347,901606,0.0-100.0-0.0,,,,,,,,,,,"[{""stimulus"":""run_exp/static/images/task_images/dig.jpg"",""time"":0.2999999523162842},{""stimulus"":""run_exp/static/images/task_images/land.jpg"",""time"":954.3999999761581},{""stimulus"":""run_exp/static/images/task_images/dig.jpg"",""time"":1899.6999999284744}]",[],20,,,,,,,,,,,,,,
harvest,348,902612,0.0-100.0-1.0,,null,run_exp/static/images/task_images/gems/54.jpg,null,,,,,,42,,,20,,,,,54,0.77829808,0.777777778,,,,,,,
decision,349,902663,0.0-100.0-2.0,,49.5,run_exp/static/images/task_images/land.jpg,76,,,,,,42,,,20,,,,,,,,279685,2,2,TRUE,,,
travel,350,912616,0.0-101.0-0.0,,,,,,,,,,,"[{""stimulus"":""run_exp/static/images/task_images/rocket-01.jpg"",""time"":0.2999999523162842},{""stimulus"":""run_exp/static/images/task_images/rocket-02.jpg"",""time"":1108.7000000476837},{""stimulus"":""run_exp/static/images/task_images/rocket-03.jpg"",""time"":2216.5},{""stimulus"":""run_exp/static/images/task_images/rocket-04.jpg"",""time"":3319.7000000476837},{""stimulus"":""run_exp/static/images/task_images/rocket-05.jpg"",""time"":4425.799999952316},{""stimulus"":""run_exp/static/images/task_images/rocket-06.jpg"",""time"":5529.799999952316},{""stimulus"":""run_exp/static/images/task_images/rocket-07.jpg"",""time"":6633.899999976158},{""stimulus"":""run_exp/static/images/task_images/rocket-08.jpg"",""time"":7741.399999976158},{""stimulus"":""run_exp/static/images/task_images/rocket-09.jpg"",""time"":8845.200000047684}]",[],20,,,,,,,,,,,,,,
alien_welcome,351,917623,0.0-101.0-1.0,,null,run_exp/static/images/task_images/aliens/old_aliens/planet/alien_planet-22.jpg,null,,,,,,,,,,,,22,"24,8,5,30,3,51,58,4,33,73,34,72,19,61,45,42,6,66,11,65,22,18,13,78,48,79,49,59,41,12,39,1,64,63,50,71,10,47,20,36,67,29,46,32,31",,,,,,,,,,
land,352,918125,0.0-101.0-2.0,,null,run_exp/static/images/task_images/land.jpg,null,,,,,,108,,,21,,,,,,,,,,,,,,
dig,353,920130,0.0-101.0-3.0,,,,,,,,,,,"[{""stimulus"":""run_exp/static/images/task_images/dig.jpg"",""time"":0.40000009536743164},{""stimulus"":""run_exp/static/images/task_images/land.jpg"",""time"":670.4000000953674},{""stimulus"":""run_exp/static/images/task_images/dig.jpg"",""time"":1336.9000000953674}]",[],21,,,,,,,,,,,,,,
harvest,354,921133,0.0-101.0-4.0,,null,run_exp/static/images/task_images/gems/108.jpg,null,,,,,,85,,,21,,,,,108,0.791432438,0.787037037,,,,,,,
decision,355,921418,0.0-101.0-5.0,,283.1999999,run_exp/static/images/task_images/land.jpg,65,,,,,,85,,,21,,,,,,,,298440,2,0,FALSE,,,
dig,356,924142,0.0-102.0-0.0,,,,,,,,,,,"[{""stimulus"":""run_exp/static/images/task_images/dig.jpg"",""time"":0.2999999523162842},{""stimulus"":""run_exp/static/images/task_images/land.jpg"",""time"":909.2999999523163},{""stimulus"":""run_exp/static/images/task_images/dig.jpg"",""time"":1814.6999999284744}]",[],21,,,,,,,,,,,,,,
harvest,357,925149,0.0-102.0-1.0,,null,run_exp/static/images/task_images/gems/85.jpg,null,,,,,,70,,,21,,,,,85,0.821980394,0.823529412,,,,,,,
decision,358,926056,0.0-102.0-2.0,,904.6999999,run_exp/static/images/task_images/land.jpg,65,,,,,,70,,,21,,,,,,,,303078,2,1,TRUE,,,
end_of_block_continue,359,928414,0.0-103.0-0.0,,2349.2,run_exp/static/audio/clip_32_block_end.m4a,,,,,,0,,,,,,,,,,,,,,,,,,
alien_welcome,360,933424,0.0-104.0-0.0,,null,run_exp/static/images/task_images/aliens/old_aliens/planet/alien_planet-18.jpg,null,,,,,,,,,,,,18,"24,8,5,30,3,51,58,4,33,73,34,72,19,61,45,42,6,66,11,65,22,18,13,78,48,79,49,59,41,12,39,1,64,63,50,71,10,47,20,36,67,29,46,32,31",,,,,,,,,,
land,361,933931,0.0-104.0-1.0,,null,run_exp/static/images/task_images/land.jpg,null,,,,,,93,,,22,,,,,,,,,,,,,,
dig,362,935938,0.0-104.0-2.0,,,,,,,,,,,"[{""stimulus"":""run_exp/static/images/task_images/dig.jpg"",""time"":0.3999999761581421},{""stimulus"":""run_exp/static/images/task_images/land.jpg"",""time"":672.1999999284744},{""stimulus"":""run_exp/static/images/task_images/dig.jpg"",""time"":1340.6999999284744}]",[],22,,,,,,,,,,,,,,
harvest,363,936941,0.0-104.0-3.0,,null,run_exp/static/images/task_images/gems/93.jpg,null,,,,,,50,,,22,,,,,93,0.534782455,0.537634409,,,,,,,
decision,364,937252,0.0-104.0-4.0,,309.0999999,run_exp/static/images/task_images/land.jpg,65,,,,,,50,,,22,,,,,,,,8830,3,0,FALSE,,,
dig,365,939949,0.0-105.0-0.0,,,,,,,,,,,"[{""stimulus"":""run_exp/static/images/task_images/dig.jpg"",""time"":0.30000007152557373},{""stimulus"":""run_exp/static/images/task_images/land.jpg"",""time"":899.1000000238419},{""stimulus"":""run_exp/static/images/task_images/dig.jpg"",""time"":1796.4000000953674}]",[],22,,,,,,,,,,,,,,
harvest,366,940951,0.0-105.0-1.0,,null,run_exp/static/images/task_images/gems/50.jpg,null,,,,,,24,,,22,,,,,50,0.475362418,0.48,,,,,,,
decision,367,941033,0.0-105.0-2.0,,80.70000005,run_exp/static/images/task_images/land.jpg,65,,,,,,24,,,22,,,,,,,,12611,3,1,FALSE,,,
dig,368,943959,0.0-106.0-0.0,,,,,,,,,,,"[{""stimulus"":""run_exp/static/images/task_images/dig.jpg"",""time"":0.20000004768371582},{""stimulus"":""run_exp/static/images/task_images/land.jpg"",""time"":979.8000000715256},{""stimulus"":""run_exp/static/images/task_images/dig.jpg"",""time"":1951.4000000953674}]",[],22,,,,,,,,,,,,,,
harvest,369,944965,0.0-106.0-1.0,,null,run_exp/static/images/task_images/gems/24.jpg,null,,,,,,11,,,22,,,,,24,0.459384716,0.458333333,,,,,,,
decision,370,945108,0.0-106.0-2.0,,141.3000001,run_exp/static/images/task_images/land.jpg,76,,,,,,11,,,22,,,,,,,,16686,3,2,TRUE,,,
travel,371,954972,0.0-107.0-0.0,,,,,,,,,,,"[{""stimulus"":""run_exp/static/images/task_images/rocket-01.jpg"",""time"":0.2999999523162842},{""stimulus"":""run_exp/static/images/task_images/rocket-02.jpg"",""time"":1101.2999999523163},{""stimulus"":""run_exp/static/images/task_images/rocket-03.jpg"",""time"":2195.7999999523163},{""stimulus"":""run_exp/static/images/task_images/rocket-04.jpg"",""time"":3286.899999976158},{""stimulus"":""run_exp/static/images/task_images/rocket-05.jpg"",""time"":4381.299999952316},{""stimulus"":""run_exp/static/images/task_images/rocket-06.jpg"",""time"":5485.200000047684},{""stimulus"":""run_exp/static/images/task_images/rocket-07.jpg"",""time"":6576.5},{""stimulus"":""run_exp/static/images/task_images/rocket-08.jpg"",""time"":7668.600000023842},{""stimulus"":""run_exp/static/images/task_images/rocket-09.jpg"",""time"":8766.399999976158}]",[],22,,,,,,,,,,,,,,
alien_welcome,372,959976,0.0-107.0-1.0,,null,run_exp/static/images/task_images/aliens/old_aliens/planet/alien_planet-13.jpg,null,,,,,,,,,,,,13,"24,8,5,30,3,51,58,4,33,73,34,72,19,61,45,42,6,66,11,65,22,18,13,78,48,79,49,59,41,12,39,1,64,63,50,71,10,47,20,36,67,29,46,32,31",,,,,,,,,,
land,373,960478,0.0-107.0-2.0,,null,run_exp/static/images/task_images/land.jpg,null,,,,,,100,,,23,,,,,,,,,,,,,,
dig,374,962483,0.0-107.0-3.0,,,,,,,,,,,"[{""stimulus"":""run_exp/static/images/task_images/dig.jpg"",""time"":0.5},{""stimulus"":""run_exp/static/images/task_images/land.jpg"",""time"":672.5},{""stimulus"":""run_exp/static/images/task_images/dig.jpg"",""time"":1336.3000000715256}]",[],23,,,,,,,,,,,,,,
harvest,375,963486,0.0-107.0-4.0,,null,run_exp/static/images/task_images/gems/100.jpg,null,,,,,,82,,,23,,,,,100,0.815648998,0.82,,,,,,,
decision,376,963616,0.0-107.0-5.0,,127.7,run_exp/static/images/task_images/land.jpg,65,,,,,,82,,,23,,,,,,,,35194,3,0,FALSE,,,
dig,377,966494,0.0-108.0-0.0,,,,,,,,,,,"[{""stimulus"":""run_exp/static/images/task_images/dig.jpg"",""time"":0.30000007152557373},{""stimulus"":""run_exp/static/images/task_images/land.jpg"",""time"":960.6000000238419},{""stimulus"":""run_exp/static/images/task_images/dig.jpg"",""time"":1917.3000000715256}]",[],23,,,,,,,,,,,,,,
harvest,378,967501,0.0-108.0-1.0,,null,run_exp/static/images/task_images/gems/82.jpg,null,,,,,,65,,,23,,,,,82,0.791335814,0.792682927,,,,,,,
decision,379,967594,0.0-108.0-2.0,,91.89999998,run_exp/static/images/task_images/land.jpg,65,,,,,,65,,,23,,,,,,,,39172,3,1,FALSE,,,
dig,380,970509,0.0-109.0-0.0,,,,,,,,,,,"[{""stimulus"":""run_exp/static/images/task_images/dig.jpg"",""time"":0.19999992847442627},{""stimulus"":""run_exp/static/images/task_images/land.jpg"",""time"":971.3999999761581},{""stimulus"":""run_exp/static/images/task_images/dig.jpg"",""time"":1941.2999999523163}]",[],23,,,,,,,,,,,,,,
harvest,381,971513,0.0-109.0-1.0,,null,run_exp/static/images/task_images/gems/65.jpg,null,,,,,,55,,,23,,,,,65,0.844841265,0.846153846,,,,,,,
decision,382,971900,0.0-109.0-2.0,,385.9,run_exp/static/images/task_images/land.jpg,65,,,,,,55,,,23,,,,,,,,43478,3,2,FALSE,,,
dig,383,974520,0.0-110.0-0.0,,,,,,,,,,,"[{""stimulus"":""run_exp/static/images/task_images/dig.jpg"",""time"":0.20000004768371582},{""stimulus"":""run_exp/static/images/task_images/land.jpg"",""time"":876.2000000476837},{""stimulus"":""run_exp/static/images/task_images/dig.jpg"",""time"":1748.5}]",[],23,,,,,,,,,,,,,,
harvest,384,975523,0.0-110.0-1.0,,null,run_exp/static/images/task_images/gems/55.jpg,null,,,,,,45,,,23,,,,,55,0.821323165,0.818181818,,,,,,,
decision,385,975797,0.0-110.0-2.0,,271.8000001,run_exp/static/images/task_images/land.jpg,76,,,,,,45,,,23,,,,,,,,47375,3,3,TRUE,,,
travel,386,985529,0.0-111.0-0.0,,,,,,,,,,,"[{""stimulus"":""run_exp/static/images/task_images/rocket-01.jpg"",""time"":0.3999999761581421},{""stimulus"":""run_exp/static/images/task_images/rocket-02.jpg"",""time"":1083.3999999761581},{""stimulus"":""run_exp/static/images/task_images/rocket-03.jpg"",""time"":2163.7999999523163},{""stimulus"":""run_exp/static/images/task_images/rocket-04.jpg"",""time"":3246.5},{""stimulus"":""run_exp/static/images/task_images/rocket-05.jpg"",""time"":4326.5},{""stimulus"":""run_exp/static/images/task_images/rocket-06.jpg"",""time"":5405.600000023842},{""stimulus"":""run_exp/static/images/task_images/rocket-07.jpg"",""time"":6483.799999952316},{""stimulus"":""run_exp/static/images/task_images/rocket-08.jpg"",""time"":7566.5},{""stimulus"":""run_exp/static/images/task_images/rocket-09.jpg"",""time"":8641.899999976158}]",[],23,,,,,,,,,,,,,,
alien_welcome,387,990532,0.0-111.0-1.0,,null,run_exp/static/images/task_images/aliens/old_aliens/planet/alien_planet-78.jpg,null,,,,,,,,,,,,78,"24,8,5,30,3,51,58,4,33,73,34,72,19,61,45,42,6,66,11,65,22,18,13,78,48,79,49,59,41,12,39,1,64,63,50,71,10,47,20,36,67,29,46,32,31",,,,,,,,,,
land,388,991039,0.0-111.0-2.0,,null,run_exp/static/images/task_images/land.jpg,null,,,,,,96,,,24,,,,,,,,,,,,,,
dig,389,993049,0.0-111.0-3.0,,,,,,,,,,,"[{""stimulus"":""run_exp/static/images/task_images/dig.jpg"",""time"":0.30000007152557373},{""stimulus"":""run_exp/static/images/task_images/land.jpg"",""time"":670.1000000238419},{""stimulus"":""run_exp/static/images/task_images/dig.jpg"",""time"":1338.8000000715256}]",[],24,,,,,,,,,,,,,,
harvest,390,994054,0.0-111.0-4.0,,null,run_exp/static/images/task_images/gems/96.jpg,null,,,,,,45,,,24,,,,,96,0.470188514,0.46875,,,,,,,
decision,391,994249,0.0-111.0-5.0,,193,run_exp/static/images/task_images/land.jpg,65,,,,,,45,,,24,,,,,,,,65827,3,0,FALSE,,,
