trial_type,trial_index,time_elapsed,internal_node_id,interactions,blur_events,focus_events,fullscreenenter_events,fullscreenexit_events,success,rt,stimulus,key_press,prompt,subject_id,participant_id,age,gender,button_pressed,next_reward,animation_sequence,responses,planet,curr_prac_trial,n_prac_rounds,alien,aliens,reward_received,decay_rate_actual,decay_rate_exp,time_in_block,block_num,prt,last_trial_on_planet,button_html,bonus,num_failures
pavlovia,0,13,0.0-0.0,"""event"",""trial"",""time""
""fullscreenenter"",""1"",""6433""
","
","
","""event"",""trial"",""time""
""fullscreenenter"",""1"",""6433""
","
",,,,,,,,,,,,,,,,,,,,,,,,,,,,
fullscreen,1,7428,0.0-1.0,"""event"",""trial"",""time""
""fullscreenenter"",""1"",""6433""
","
","
","""event"",""trial"",""time""
""fullscreenenter"",""1"",""6433""
","
",TRUE,,,,,,,,,,,,,,,,,,,,,,,,,,,
instruc_welcome,2,17307,0.0-2.0,"""event"",""trial"",""time""
""fullscreenenter"",""1"",""6433""
","
","
","""event"",""trial"",""time""
""fullscreenenter"",""1"",""6433""
","
",,null,run_exp/static/audio/clip_1_welcome.m4a,null,"<p>Howdy! In this experiment, you’ll be an explorer traveling through space to collect space treasure.</p><p>Your mission is to collect as much treasure as possible.</p><br><br><p><img src='run_exp/static/images/task_images/opening_img-01.jpg' height='300' width='auto'></p>",9550,759,11.87,Female,,,,,,,,,,,,,,,,,,,
audio-keyboard-response,3,34323,0.0-3.0,"""event"",""trial"",""time""
""fullscreenenter"",""1"",""6433""
","
","
","""event"",""trial"",""time""
""fullscreenenter"",""1"",""6433""
","
",,null,run_exp/static/audio/clip_2_move.m4a,null,,,,,,,,,,,,,,,,,,,,,,,,
welcome_dec,4,35497,0.0-4.0,"""event"",""trial"",""time""
""fullscreenenter"",""1"",""6433""
","
","
","""event"",""trial"",""time""
""fullscreenenter"",""1"",""6433""
","
",,1171,"<p>Howdy! In this experiment, you’ll be an explorer traveling through space to collect space treasure.</p><p>Your mission is to collect as much treasure as possible.</p><br><br><p><img src='run_exp/static/images/task_images/opening_img-01.jpg' height='300' width='auto'></p>",,,,,,,1,,,,,,,,,,,,,,,,,,
html-keyboard-response,5,36220,0.0-5.0,"""event"",""trial"",""time""
""fullscreenenter"",""1"",""6433""
","
","
","""event"",""trial"",""time""
""fullscreenenter"",""1"",""6433""
","
",,719.8,"<p>Howdy! In this experiment, you’ll be an explorer traveling through space to collect space treasure.</p><p>Your mission is to collect as much treasure as possible.</p><br><br><p><img src='run_exp/static/images/task_images/opening_img-01.jpg' height='300' width='auto'></p><button class=""jspsych-html-btn-unchosen""><img src=""run_exp/static/images/task_images/planet-01.jpg"" height=""50""></button><button class=""jspsych-html-btn-chosen""><img src=""run_exp/static/images/task_images/planet-02.jpg"" height=""50""></button><p><b>[press the space bar to lock in your answer]<b><br></p>",32,,,,,,,,,,,,,,,,,,,,,,,,
instruc_goal,6,46603,0.0-6.0-0.0,"""event"",""trial"",""time""
""fullscreenenter"",""1"",""6433""
","
","
","""event"",""trial"",""time""
""fullscreenenter"",""1"",""6433""
","
",,null,run_exp/static/audio/clip_3_goal.m4a,null,"<p> As a space explorer, you’ll visit different planets to dig for space treasure, these pink gems.</p> <p> The more treasure you dig up, the more bonus money you’ll win! </p><br><br><p><img src='run_exp/static/images/task_images/pink_gem.jpg' height='300' width='auto'></p>",,,,,,,,,,,,,,,,,,,,,,,
instruc_goal,7,51051,0.0-6.0-1.0,"""event"",""trial"",""time""
""fullscreenenter"",""1"",""6433""
","
","
","""event"",""trial"",""time""
""fullscreenenter"",""1"",""6433""
","
",,4445.7,"<p> As a space explorer, you’ll visit different planets to dig for space treasure, these pink gems.</p> <p> The more treasure you dig up, the more bonus money you’ll win! </p><br><br><p><img src='run_exp/static/images/task_images/pink_gem.jpg' height='300' width='auto'></p>",,,,,,,1,,,,,,,,,,,,,,,,,,
html-keyboard-response,8,52621,0.0-6.0-2.0,"""event"",""trial"",""time""
""fullscreenenter"",""1"",""6433""
","
","
","""event"",""trial"",""time""
""fullscreenenter"",""1"",""6433""
","
",,1567.2,"<p> As a space explorer, you’ll visit different planets to dig for space treasure, these pink gems.</p> <p> The more treasure you dig up, the more bonus money you’ll win! </p><br><br><p><img src='run_exp/static/images/task_images/pink_gem.jpg' height='300' width='auto'></p><button class=""jspsych-html-btn-unchosen""><img src=""run_exp/static/images/task_images/planet-01.jpg"" height=""50""></button><button class=""jspsych-html-btn-chosen""><img src=""run_exp/static/images/task_images/planet-02.jpg"" height=""50""></button><p><b>[press the space bar to lock in your answer]<b><br></p>",32,,,,,,,,,,,,,,,,,,,,,,,,
instruc_dig,9,68993,0.0-7.0-0.0,"""event"",""trial"",""time""
""fullscreenenter"",""1"",""6433""
","
","
","""event"",""trial"",""time""
""fullscreenenter"",""1"",""6433""
","
",,null,run_exp/static/audio/clip_4_dig.m4a,null,,,,,,,100,,,,,,,,,,,,,,,,,
instruc_dig_try,10,70400,0.0-7.0-1.0,"""event"",""trial"",""time""
""fullscreenenter"",""1"",""6433""
","
","
","""event"",""trial"",""time""
""fullscreenenter"",""1"",""6433""
","
",,1406.2,"<p> When you’ve arrived at a new planet, you will dig once. </p> <p>Then, you get to decide if you want to stay on the planet and dig again or travel to a new planet and dig there.</p> <p> To stay and dig, press the letter <strong>‘A’</strong> on your keyboard. Try pressing it now! </p><p><img src='run_exp/static/images/task_images/land.jpg'  height='700' width='auto'></p>",65,"<p> When you’ve arrived at a new planet, you will dig once. </p> <p>Then, you get to decide if you want to stay on the planet and dig again or travel to a new planet and dig there.</p> <p> To stay and dig, press the letter <strong>‘A’</strong> on your keyboard. Try pressing it now! </p><p><img src='run_exp/static/images/task_images/land.jpg'  height='700' width='auto'></p>",,,,,,100,,,,,,,,,,,,,,,,,
dig_prac,11,72428,0.0-7.0-2.0,"""event"",""trial"",""time""
""fullscreenenter"",""1"",""6433""
","
","
","""event"",""trial"",""time""
""fullscreenenter"",""1"",""6433""
","
",,,,,,,,,,,,"[{""stimulus"":""run_exp/static/images/task_images/dig.jpg"",""time"":0.6000000014901161},{""stimulus"":""run_exp/static/images/task_images/land.jpg"",""time"":672.1000000014901},{""stimulus"":""run_exp/static/images/task_images/dig.jpg"",""time"":1335.9000000059605}]",[],,,,,,,,,,,,,,,
instruc_travel,12,108908,0.0-7.0-3.0,"""event"",""trial"",""time""
""fullscreenenter"",""1"",""6433""
","
","
","""event"",""trial"",""time""
""fullscreenenter"",""1"",""6433""
","
",,null,run_exp/static/audio/clip_5_travel.m4a,null,"<p>Every time you dig up gems, there are less gems on the planet, so the more you dig on a planet the fewer gems you’ll get with each dig.</p><p>When gems are running low, you may want to travel to a new planet. </p> <p>  Planets are very far apart in this galaxy, so it will take some time to travel between them. </p> <br><p>There are lots and lots of planets for you to visit, so you won’t be able to return to any planets you’ve seen before. </p><br><p>To leave this planet and travel to a new one, press the letter <strong>‘L’</strong> on your keyboard. Try pressing it now! </p><p><img src='run_exp/static/images/task_images/rocket-01.jpg'  height='600' width='auto'></p>",,,,,,,,,,,,,,,,,,,,,,,
instruc_travel_try,13,109682,0.0-7.0-4.0,"""event"",""trial"",""time""
""fullscreenenter"",""1"",""6433""
","
","
","""event"",""trial"",""time""
""fullscreenenter"",""1"",""6433""
","
",,769.8,"<p>Every time you dig up gems, there are less gems on the planet, so the more you dig on a planet the fewer gems you’ll get with each dig.</p><p>When gems are running low, you may want to travel to a new planet. </p> <p>  Planets are very far apart in this galaxy, so it will take some time to travel between them. </p> <br><p>There are lots and lots of planets for you to visit, so you won’t be able to return to any planets you’ve seen before. </p><br><p>To leave this planet and travel to a new one, press the letter <strong>‘L’</strong> on your keyboard. Try pressing it now! </p><p><img src='run_exp/static/images/task_images/rocket-01.jpg'  height='600' width='auto'></p>",76,"<p>Every time you dig up gems, there are less gems on the planet, so the more you dig on a planet the fewer gems you’ll get with each dig.</p><p>When gems are running low, you may want to travel to a new planet. </p> <p>  Planets are very far apart in this galaxy, so it will take some time to travel between them. </p> <br><p>There are lots and lots of planets for you to visit, so you won’t be able to return to any planets you’ve seen before. </p><br><p>To leave this planet and travel to a new one, press the letter <strong>‘L’</strong> on your keyboard. Try pressing it now! </p><p><img src='run_exp/static/images/task_images/rocket-01.jpg'  height='600' width='auto'></p>",,,,,,,,,,,,,,,,,,,,,,,
travel_prac,14,119684,0.0-7.0-5.0,"""event"",""trial"",""time""
""fullscreenenter"",""1"",""6433""
","
","
","""event"",""trial"",""time""
""fullscreenenter"",""1"",""6433""
","
",,,,,,,,,,,,"[{""stimulus"":""run_exp/static/images/task_images/rocket-01.jpg"",""time"":0.3999999985098839},{""stimulus"":""run_exp/static/images/task_images/rocket-02.jpg"",""time"":1112.7999999970198},{""stimulus"":""run_exp/static/images/task_images/rocket-03.jpg"",""time"":2225.1999999955297},{""stimulus"":""run_exp/static/images/task_images/rocket-04.jpg"",""time"":3336.89999999851},{""stimulus"":""run_exp/static/images/task_images/rocket-05.jpg"",""time"":4448.89999999851},{""stimulus"":""run_exp/static/images/task_images/rocket-06.jpg"",""time"":5560.89999999851},{""stimulus"":""run_exp/static/images/task_images/rocket-07.jpg"",""time"":6672.69999999553},{""stimulus"":""run_exp/static/images/task_images/rocket-08.jpg"",""time"":7785},{""stimulus"":""run_exp/static/images/task_images/rocket-09.jpg"",""time"":8897}]",[],0,,,,,,,,,,,,,,
instruc_alien_greet,15,147116,0.0-7.0-6.0,"""event"",""trial"",""time""
""fullscreenenter"",""1"",""6433""
","
","
","""event"",""trial"",""time""
""fullscreenenter"",""1"",""6433""
","
",,null,run_exp/static/audio/clip_6_alien.m4a,null,"<p>When you arrive at a new planet, the alien who owns the treasure mine on that planet will greet you!</p><p>The better an alien takes care of their mine the easier it is to dig for gems. Some aliens take better care of their mine than others. So, you won’t get exactly the same amount of gems on each planet.</p><p>What the alien looks like does not tell you anything about how many gems there are on the planet.</p><br><p><img src=""run_exp/static/images/task_images/aliens/instructions_aliens/planet/alien_planet-1.jpg""  height=""600"" width=""auto""></p>",,,,,,,,,,,,,,,,,,,,,,,
instruc_alien_greet,16,151180,0.0-7.0-7.0,"""event"",""trial"",""time""
""fullscreenenter"",""1"",""6433""
","
","
","""event"",""trial"",""time""
""fullscreenenter"",""1"",""6433""
","
",,4060.8,"<p>When you arrive at a new planet, the alien who owns the treasure mine on that planet will greet you!</p><p>The better an alien takes care of their mine the easier it is to dig for gems. Some aliens take better care of their mine than others. So, you won’t get exactly the same amount of gems on each planet.</p><p>What the alien looks like does not tell you anything about how many gems there are on the planet.</p><br><p><img src=""run_exp/static/images/task_images/aliens/instructions_aliens/planet/alien_planet-1.jpg""  height=""600"" width=""auto""></p>",,,,,,,1,,,,,,,,,,,,,,,,,,
html-keyboard-response,17,151818,0.0-7.0-8.0,"""event"",""trial"",""time""
""fullscreenenter"",""1"",""6433""
","
","
","""event"",""trial"",""time""
""fullscreenenter"",""1"",""6433""
","
",,636,"<p>When you arrive at a new planet, the alien who owns the treasure mine on that planet will greet you!</p><p>The better an alien takes care of their mine the easier it is to dig for gems. Some aliens take better care of their mine than others. So, you won’t get exactly the same amount of gems on each planet.</p><p>What the alien looks like does not tell you anything about how many gems there are on the planet.</p><br><p><img src=""run_exp/static/images/task_images/aliens/instructions_aliens/planet/alien_planet-1.jpg""  height=""600"" width=""auto""></p><button class=""jspsych-html-btn-unchosen""><img src=""run_exp/static/images/task_images/planet-01.jpg"" height=""50""></button><button class=""jspsych-html-btn-chosen""><img src=""run_exp/static/images/task_images/planet-02.jpg"" height=""50""></button><p><b>[press the space bar to lock in your answer]<b><br></p>",32,,,,,,,,,,,,,,,,,,,,,,,,
time_out,18,163234,0.0-8.0-0.0,"""event"",""trial"",""time""
""fullscreenenter"",""1"",""6433""
","
","
","""event"",""trial"",""time""
""fullscreenenter"",""1"",""6433""
","
",,null,run_exp/static/audio/clip_7_timeout.m4a,null,"<p>If you don't make your choice fast enough, you’ll have to wait a few seconds before you can make another one.</p><p>You can’t dig for more gems or travel to new planets. You just have to sit and wait.</p><br><p><img src='run_exp/static/images/task_images/time_out.jpg'  height='600' width='auto'></p>",,,,,,,,,,,,,,,,,,,,,,,
time_out,19,167588,0.0-8.0-1.0,"""event"",""trial"",""time""
""fullscreenenter"",""1"",""6433""
","
","
","""event"",""trial"",""time""
""fullscreenenter"",""1"",""6433""
","
",,4351.6,"<p>If you don't make your choice fast enough, you’ll have to wait a few seconds before you can make another one.</p><p>You can’t dig for more gems or travel to new planets. You just have to sit and wait.</p><br><p><img src='run_exp/static/images/task_images/time_out.jpg'  height='600' width='auto'></p>",,,,,,,1,,,,,,,,,,,,,,,,,,
html-keyboard-response,20,169914,0.0-8.0-2.0,"""event"",""trial"",""time""
""fullscreenenter"",""1"",""6433""
","
","
","""event"",""trial"",""time""
""fullscreenenter"",""1"",""6433""
","
",,2323.5,"<p>If you don't make your choice fast enough, you’ll have to wait a few seconds before you can make another one.</p><p>You can’t dig for more gems or travel to new planets. You just have to sit and wait.</p><br><p><img src='run_exp/static/images/task_images/time_out.jpg'  height='600' width='auto'></p><button class=""jspsych-html-btn-unchosen""><img src=""run_exp/static/images/task_images/planet-01.jpg"" height=""50""></button><button class=""jspsych-html-btn-chosen""><img src=""run_exp/static/images/task_images/planet-02.jpg"" height=""50""></button><p><b>[press the space bar to lock in your answer]<b><br></p>",32,,,,,,,,,,,,,,,,,,,,,,,,
instruc_break,21,185880,0.0-9.0-0.0,"""event"",""trial"",""time""
""fullscreenenter"",""1"",""6433""
","
","
","""event"",""trial"",""time""
""fullscreenenter"",""1"",""6433""
","
",,null,run_exp/static/audio/clip_8_break.m4a,null,"<p> After digging and traveling for a while, you’ll be able to take a break at home base. </p><p>The game will last 20 minutes no matter what.</p><p>You will visit home base every 5 minutes, so, you will visit home base three times during the game.</p><br><p><img src='run_exp/static/images/task_images/home_base.jpg' height='600' width='auto'></p>",,,,,,,,,,,,,,,,,,,,,,,
instruc_break,22,189879,0.0-9.0-1.0,"""event"",""trial"",""time""
""fullscreenenter"",""1"",""6433""
","
","
","""event"",""trial"",""time""
""fullscreenenter"",""1"",""6433""
","
",,3997.5,"<p> After digging and traveling for a while, you’ll be able to take a break at home base. </p><p>The game will last 20 minutes no matter what.</p><p>You will visit home base every 5 minutes, so, you will visit home base three times during the game.</p><br><p><img src='run_exp/static/images/task_images/home_base.jpg' height='600' width='auto'></p>",,,,,,,1,,,,,,,,,,,,,,,,,,
html-keyboard-response,23,190460,0.0-9.0-2.0,"""event"",""trial"",""time""
""fullscreenenter"",""1"",""6433""
","
","
","""event"",""trial"",""time""
""fullscreenenter"",""1"",""6433""
","
",,578.7,"<p> After digging and traveling for a while, you’ll be able to take a break at home base. </p><p>The game will last 20 minutes no matter what.</p><p>You will visit home base every 5 minutes, so, you will visit home base three times during the game.</p><br><p><img src='run_exp/static/images/task_images/home_base.jpg' height='600' width='auto'></p><button class=""jspsych-html-btn-unchosen""><img src=""run_exp/static/images/task_images/planet-01.jpg"" height=""50""></button><button class=""jspsych-html-btn-chosen""><img src=""run_exp/static/images/task_images/planet-02.jpg"" height=""50""></button><p><b>[press the space bar to lock in your answer]<b><br></p>",32,,,,,,,,,,,,,,,,,,,,,,,,
instruc_prac_game,24,200850,0.0-10.0-0.0,"""event"",""trial"",""time""
""fullscreenenter"",""1"",""6433""
","
","
","""event"",""trial"",""time""
""fullscreenenter"",""1"",""6433""
","
",,null,run_exp/static/audio/clip_9_practice.m4a,null,"<p> Are you ready to play a practice game? </p> <p>In this practice game, you'll be digging up barrels of gems. But, in the real game, you'll be digging up the gems themselves. </p>",,,,,,,,,,,,,,,,,,,,,,,
html-button-response,25,203100,0.0-10.0-1.0,"""event"",""trial"",""time""
""fullscreenenter"",""1"",""6433""
","
","
","""event"",""trial"",""time""
""fullscreenenter"",""1"",""6433""
","
",,2247.3,"<p> Are you ready to play a practice game? </p> <p>In this practice game, you'll be digging up barrels of gems. But, in the real game, you'll be digging up the gems themselves. </p>",,,,,,,0,,,,,,,,,,,,,,,,,,
alien_welcome_prac,26,208108,0.0-11.0-0.0,"""event"",""trial"",""time""
""fullscreenenter"",""1"",""6433""
","
","
","""event"",""trial"",""time""
""fullscreenenter"",""1"",""6433""
","
",,null,run_exp/static/images/task_images/aliens/practice_aliens/planet/alien_planet-5.jpg,null,,,,,,,,,,,,,,,,,,,,,,,,
land_prac,27,208612,0.0-11.0-1.0,"""event"",""trial"",""time""
""fullscreenenter"",""1"",""6433""
","
","
","""event"",""trial"",""time""
""fullscreenenter"",""1"",""6433""
","
",,null,run_exp/static/images/task_images/land.jpg,null,,,,,,,102,,,0,,,,,,,,,,,,,,
dig_prac,28,210620,0.0-11.0-2.0,"""event"",""trial"",""time""
""fullscreenenter"",""1"",""6433""
","
","
","""event"",""trial"",""time""
""fullscreenenter"",""1"",""6433""
","
",,,,,,,,,,,,"[{""stimulus"":""run_exp/static/images/task_images/dig.jpg"",""time"":0.29999999701976776},{""stimulus"":""run_exp/static/images/task_images/land.jpg"",""time"":670.6000000014901},{""stimulus"":""run_exp/static/images/task_images/dig.jpg"",""time"":1342.7999999970198}]",[],,,,,,,,,,,,,,,
harvest_prac,29,211628,0.0-11.0-3.0,"""event"",""trial"",""time""
""fullscreenenter"",""1"",""6433""
","
","
","""event"",""trial"",""time""
""fullscreenenter"",""1"",""6433""
","
",,null,run_exp/static/images/task_images/barrel_text.jpg,null,,,,,,,,,,,,,,,,,,,,,,,,
decision_prac,30,212446,0.0-11.0-4.0,"""event"",""trial"",""time""
""fullscreenenter"",""1"",""6433""
","
","
","""event"",""trial"",""time""
""fullscreenenter"",""1"",""6433""
","
",,816.1,run_exp/static/images/task_images/land.jpg,76,,,,,,,,,,,1,,,,,,,,,,,,,
travel,31,221636,0.0-12.0-0.0,"""event"",""trial"",""time""
""fullscreenenter"",""1"",""6433""
","
","
","""event"",""trial"",""time""
""fullscreenenter"",""1"",""6433""
","
",,,,,,,,,,,,"[{""stimulus"":""run_exp/static/images/task_images/rocket-01.jpg"",""time"":0.29999999701976776},{""stimulus"":""run_exp/static/images/task_images/rocket-02.jpg"",""time"":1026.6000000014901},{""stimulus"":""run_exp/static/images/task_images/rocket-03.jpg"",""time"":2042.3999999985099},{""stimulus"":""run_exp/static/images/task_images/rocket-04.jpg"",""time"":3066.6999999955297},{""stimulus"":""run_exp/static/images/task_images/rocket-05.jpg"",""time"":4082.2999999970198},{""stimulus"":""run_exp/static/images/task_images/rocket-06.jpg"",""time"":5106.69999999553},{""stimulus"":""run_exp/static/images/task_images/rocket-07.jpg"",""time"":6122.29999999702},{""stimulus"":""run_exp/static/images/task_images/rocket-08.jpg"",""time"":7146.5},{""stimulus"":""run_exp/static/images/task_images/rocket-09.jpg"",""time"":8162.69999999553}]",[],0,,,,,,,,,,,,,,
alien_welcome_prac,32,226644,0.0-12.0-1.0,"""event"",""trial"",""time""
""fullscreenenter"",""1"",""6433""
","
","
","""event"",""trial"",""time""
""fullscreenenter"",""1"",""6433""
","
",,null,run_exp/static/images/task_images/aliens/practice_aliens/planet/alien_planet-4.jpg,null,,,,,,,,,,,,,,,,,,,,,,,,
land_prac,33,227148,0.0-12.0-2.0,"""event"",""trial"",""time""
""fullscreenenter"",""1"",""6433""
","
","
","""event"",""trial"",""time""
""fullscreenenter"",""1"",""6433""
","
",,null,run_exp/static/images/task_images/land.jpg,null,,,,,,,112,,,0,,,,,,,,,,,,,,
dig_prac,34,229156,0.0-12.0-3.0,"""event"",""trial"",""time""
""fullscreenenter"",""1"",""6433""
","
","
","""event"",""trial"",""time""
""fullscreenenter"",""1"",""6433""
","
",,,,,,,,,,,,"[{""stimulus"":""run_exp/static/images/task_images/dig.jpg"",""time"":0.5},{""stimulus"":""run_exp/static/images/task_images/land.jpg"",""time"":671.1000000014901},{""stimulus"":""run_exp/static/images/task_images/dig.jpg"",""time"":1342.8999999985099}]",[],,,,,,,,,,,,,,,
harvest_prac,35,230164,0.0-12.0-4.0,"""event"",""trial"",""time""
""fullscreenenter"",""1"",""6433""
","
","
","""event"",""trial"",""time""
""fullscreenenter"",""1"",""6433""
","
",,null,run_exp/static/images/task_images/barrel_text.jpg,null,,,,,,,,,,,,,,,,,,,,,,,,
decision_prac,36,230460,0.0-12.0-5.0,"""event"",""trial"",""time""
""fullscreenenter"",""1"",""6433""
","
","
","""event"",""trial"",""time""
""fullscreenenter"",""1"",""6433""
","
",,294.6,run_exp/static/images/task_images/land.jpg,65,,,,,,,,,,,2,,,,,,,,,,,,,
dig_prac,37,232468,0.0-13.0-0.0,"""event"",""trial"",""time""
""fullscreenenter"",""1"",""6433""
","
","
","""event"",""trial"",""time""
""fullscreenenter"",""1"",""6433""
","
",,,,,,,,,,,,"[{""stimulus"":""run_exp/static/images/task_images/dig.jpg"",""time"":0.19999999552965164},{""stimulus"":""run_exp/static/images/task_images/land.jpg"",""time"":676.3999999985099},{""stimulus"":""run_exp/static/images/task_images/dig.jpg"",""time"":1340.2999999970198}]",[],,,,,,,,,,,,,,,
harvest_prac,38,233476,0.0-13.0-1.0,"""event"",""trial"",""time""
""fullscreenenter"",""1"",""6433""
","
","
","""event"",""trial"",""time""
""fullscreenenter"",""1"",""6433""
","
",,null,run_exp/static/images/task_images/barrel_text.jpg,null,,,,,,,,,,,,,,,,,,,,,,,,
decision_prac,39,234608,0.0-13.0-2.0,"""event"",""trial"",""time""
""fullscreenenter"",""1"",""6433""
","
","
","""event"",""trial"",""time""
""fullscreenenter"",""1"",""6433""
","
",,1130.6,run_exp/static/images/task_images/land.jpg,65,,,,,,,,,,,3,,,,,,,,,,,,,
dig_prac,40,236620,0.0-14.0-0.0,"""event"",""trial"",""time""
""fullscreenenter"",""1"",""6433""
","
","
","""event"",""trial"",""time""
""fullscreenenter"",""1"",""6433""
","
",,,,,,,,,,,,"[{""stimulus"":""run_exp/static/images/task_images/dig.jpg"",""time"":0.29999999701976776},{""stimulus"":""run_exp/static/images/task_images/land.jpg"",""time"":672.8999999985099},{""stimulus"":""run_exp/static/images/task_images/dig.jpg"",""time"":1336.5}]",[],,,,,,,,,,,,,,,
harvest_prac,41,237628,0.0-14.0-1.0,"""event"",""trial"",""time""
""fullscreenenter"",""1"",""6433""
","
","
","""event"",""trial"",""time""
""fullscreenenter"",""1"",""6433""
","
",,null,run_exp/static/images/task_images/barrel_text.jpg,null,,,,,,,,,,,,,,,,,,,,,,,,
decision_prac,42,237750,0.0-14.0-2.0,"""event"",""trial"",""time""
""fullscreenenter"",""1"",""6433""
","
","
","""event"",""trial"",""time""
""fullscreenenter"",""1"",""6433""
","
",,120.7,run_exp/static/images/task_images/land.jpg,65,,,,,,,,,,,4,,,,,,,,,,,,,
dig_prac,43,239764,0.0-15.0-0.0,"""event"",""trial"",""time""
""fullscreenenter"",""1"",""6433""
","
","
","""event"",""trial"",""time""
""fullscreenenter"",""1"",""6433""
","
",,,,,,,,,,,,"[{""stimulus"":""run_exp/static/images/task_images/dig.jpg"",""time"":0.20000000298023224},{""stimulus"":""run_exp/static/images/task_images/land.jpg"",""time"":673.8000000044703},{""stimulus"":""run_exp/static/images/task_images/dig.jpg"",""time"":1337.8000000044703}]",[],,,,,,,,,,,,,,,
harvest_prac,44,240773,0.0-15.0-1.0,"""event"",""trial"",""time""
""fullscreenenter"",""1"",""6433""
","
","
","""event"",""trial"",""time""
""fullscreenenter"",""1"",""6433""
","
",,null,run_exp/static/images/task_images/barrel_text.jpg,null,,,,,,,,,,,,,,,,,,,,,,,,
decision_prac,45,240784,0.0-15.0-2.0,"""event"",""trial"",""time""
""fullscreenenter"",""1"",""6433""
","
","
","""event"",""trial"",""time""
""fullscreenenter"",""1"",""6433""
","
",,9.600000001,run_exp/static/images/task_images/land.jpg,76,,,,,,,,,,,,1,,,,,,,,,,,,
quiz_instruc,46,248343,0.0-16.0-0.0,"""event"",""trial"",""time""
""fullscreenenter"",""1"",""6433""
","
","
","""event"",""trial"",""time""
""fullscreenenter"",""1"",""6433""
","
",,7554.9,run_exp/static/audio/clip_10_quiz.m4a,,,,,,,0,,,,,,,,,,,,,,,,,,
instruc_repeat,47,291401,0.0-16.0-1.0,"""event"",""trial"",""time""
""fullscreenenter"",""1"",""6433""
","
","
","""event"",""trial"",""time""
""fullscreenenter"",""1"",""6433""
","
",,null,"<p> Are you ready to play a practice game? </p> <p>In this practice game, you'll be digging up barrels of gems. But, in the real game, you'll be digging up the gems themselves. </p>",null,"<p>In this game, your goal is to collect as many gems as you can. That’s how you will win bonus money. </p> <p>The entire game will last 20 minutes no matter how many gems you collect or how many planets you visit. </p><p>To stay on a planet and dig again, press the letter A on your keyboard. To leave for a new planet, press the letter L.</p><p>The more you dig on a planet, the fewer gems you’ll get with each dig which is why you might consider leaving for a new planet. </p><p>When you arrive at a new planet, you’ll be greeted by an alien. What the alien looks like does not tell you anything about how much treasure is on the planet. </p>",,,,,,,,,,,,,,,,,,,,,,,
instruc_repeat_continue,48,292288,0.0-16.0-2.0,"""event"",""trial"",""time""
""fullscreenenter"",""1"",""6433""
","
","
","""event"",""trial"",""time""
""fullscreenenter"",""1"",""6433""
","
",,884.9,"<p> Are you ready to play a practice game? </p> <p>In this practice game, you'll be digging up barrels of gems. But, in the real game, you'll be digging up the gems themselves. </p>",,,,,,,0,,,,,,,,,,,,,,,,,,
quiz_q_1_ask,49,301088,0.0-16.0-3.0,"""event"",""trial"",""time""
""fullscreenenter"",""1"",""6433""
","
","
","""event"",""trial"",""time""
""fullscreenenter"",""1"",""6433""
","
",,8796.6,run_exp/static/audio/clip_11_q1_ask.m4a,,,,,,,2,,,,,,,,,,,,,,,,,,
quiz_q_1_fb_correct,50,305218,0.0-17.0-0.0,"""event"",""trial"",""time""
""fullscreenenter"",""1"",""6433""
","
","
","""event"",""trial"",""time""
""fullscreenenter"",""1"",""6433""
","
",,null,run_exp/static/audio/clip_12_q1_correct.m4a,null,<p>That’s correct. You win extra money by collecting more gems.</p>,,,,,,,,,,,,,,,,,,,,,,,
quiz_q_2_ask,51,307780,0.0-17.0-1.0,"""event"",""trial"",""time""
""fullscreenenter"",""1"",""6433""
","
","
","""event"",""trial"",""time""
""fullscreenenter"",""1"",""6433""
","
",,2557.5,run_exp/static/audio/clip_14_q2_ask.m4a,,,,,,,1,,,,,,,,,,,,,,,,,,
quiz_q_2_fb_correct,52,311999,0.0-18.0-0.0,"""event"",""trial"",""time""
""fullscreenenter"",""1"",""6433""
","
","
","""event"",""trial"",""time""
""fullscreenenter"",""1"",""6433""
","
",,null,run_exp/static/audio/clip_15_q2_correct.m4a,null,<p>That’s correct. The experiment is 20 minutes no matter what.</p>,,,,,,,,,,,,,,,,,,,,,,,
quiz_q_3_ask,53,315076,0.0-18.0-1.0,"""event"",""trial"",""time""
""fullscreenenter"",""1"",""6433""
","
","
","""event"",""trial"",""time""
""fullscreenenter"",""1"",""6433""
","
",,3074.7,run_exp/static/audio/clip_17_q3_ask.m4a,,,,,,,1,,,,,,,,,,,,,,,,,,
quiz_q_3_fb_correct,54,319419,0.0-19.0-0.0,"""event"",""trial"",""time""
""fullscreenenter"",""1"",""6433""
","
","
","""event"",""trial"",""time""
""fullscreenenter"",""1"",""6433""
","
",,null,run_exp/static/audio/clip_18_q3_correct.m4a,null,<p> That’s correct. You press the letter L to travel to a new planet.</p>,,,,,,,,,,,,,,,,,,,,,,,
quiz_q_4_ask,55,322722,0.0-19.0-1.0,"""event"",""trial"",""time""
""fullscreenenter"",""1"",""6433""
","
","
","""event"",""trial"",""time""
""fullscreenenter"",""1"",""6433""
","
",,3300.7,run_exp/static/audio/clip_20_q4_ask.m4a,,,,,,,0,,,,,,,,,,,,,,,,,,
quiz_q_4_fb_correct,56,328375,0.0-20.0-0.0,"""event"",""trial"",""time""
""fullscreenenter"",""1"",""6433""
","
","
","""event"",""trial"",""time""
""fullscreenenter"",""1"",""6433""
","
",,null,run_exp/static/audio/clip_21_q4_correct.m4a,null,<p> That’s correct. The more you dig on a planet the fewer gems you’ll get with each dig. </p>,,,,,,,,,,,,,,,,,,,,,,,
quiz_q_5_ask,57,333148,0.0-20.0-1.0,"""event"",""trial"",""time""
""fullscreenenter"",""1"",""6433""
","
","
","""event"",""trial"",""time""
""fullscreenenter"",""1"",""6433""
","
",,4771.4,run_exp/static/audio/clip_23_q5_ask.m4a,,,,,,,1,,,,,,,,,,,,,,,,,,
quiz_q_5_fb_correct,58,338482,0.0-21.0-0.0,"""event"",""trial"",""time""
""fullscreenenter"",""1"",""6433""
","
","
","""event"",""trial"",""time""
""fullscreenenter"",""1"",""6433""
","
",,null,run_exp/static/audio/clip_24_q5_correct.m4a,null,<p> That’s correct. The alien tells you nothing about how much treasure is on the planet.</p>,,,,,,,,,,,,,,,,,,,,,,,
quiz_correct,59,342319,0.0-22.0-0.0,"""event"",""trial"",""time""
""fullscreenenter"",""1"",""6433""
","
","
","""event"",""trial"",""time""
""fullscreenenter"",""1"",""6433""
","
",,null,run_exp/static/audio/clip_26_correct_quiz.m4a,null,,,,,,,,,,,,,,,,,,,,,,,,
quiz_correct_continue,60,343183,0.0-22.0-1.0,"""event"",""trial"",""time""
""fullscreenenter"",""1"",""6433""
","
","
","""event"",""trial"",""time""
""fullscreenenter"",""1"",""6433""
","
",,863.1,<p>Good job! You're now ready to move on to the real game!</p>,,,,,,,0,,,,,,,,,,,,,,,,,,
audio-keyboard-response,61,353577,0.0-22.0-2.0,"""event"",""trial"",""time""
""fullscreenenter"",""1"",""6433""
","
","
","""event"",""trial"",""time""
""fullscreenenter"",""1"",""6433""
","
",,null,run_exp/static/audio/clip_28_real_game.m4a,null,,,,,,,,,,,,,,,,,,,,,,,,
instruc_begin_exp_contine,62,355764,0.0-22.0-3.0,"""event"",""trial"",""time""
""fullscreenenter"",""1"",""6433""
","
","
","""event"",""trial"",""time""
""fullscreenenter"",""1"",""6433""
","
",,2185.5,"<p>Now that you know how  to dig for space treasure and travel to new planets,you can start exploring! </p><p>Do you want to go over the instructions again or get started with the real game?</p>",,,,,,,1,,,,,,1,,,,,,,,,,,,
alien_welcome,63,360772,0.0-23.0-0.0,"""event"",""trial"",""time""
""fullscreenenter"",""1"",""6433""
","
","
","""event"",""trial"",""time""
""fullscreenenter"",""1"",""6433""
","
",,null,run_exp/static/images/task_images/aliens/old_aliens/planet/alien_planet-58.jpg,null,,,,,,,,,,,,,58,"58,24,39,36,15,25,23,60,35,74,10,67,56,7,6,41,63,19,78,57,47,2,75,62,44,49,69,32,43,65,8,26,46,9,45,12,33,18,16,17,54,53,42,79,5",,,,,,,,,,
land,64,361276,0.0-23.0-1.0,"""event"",""trial"",""time""
""fullscreenenter"",""1"",""6433""
","
","
","""event"",""trial"",""time""
""fullscreenenter"",""1"",""6433""
","
",,null,run_exp/static/images/task_images/land.jpg,null,,,,,,,94,,,1,,,,,,,,,,,,,,
dig,65,363284,0.0-23.0-2.0,"""event"",""trial"",""time""
""fullscreenenter"",""1"",""6433""
","
","
","""event"",""trial"",""time""
""fullscreenenter"",""1"",""6433""
","
",,,,,,,,,,,,"[{""stimulus"":""run_exp/static/images/task_images/dig.jpg"",""time"":0.4000000059604645},{""stimulus"":""run_exp/static/images/task_images/land.jpg"",""time"":670.6000000014901},{""stimulus"":""run_exp/static/images/task_images/dig.jpg"",""time"":1342.5}]",[],1,,,,,,,,,,,,,,
harvest,66,364292,0.0-23.0-3.0,"""event"",""trial"",""time""
""fullscreenenter"",""1"",""6433""
","
","
","""event"",""trial"",""time""
""fullscreenenter"",""1"",""6433""
","
",,null,run_exp/static/images/task_images/gems/94.jpg,null,,,,,,,17,,,1,,,,,94,0.182564966,0.180851064,,,,,,,
decision,67,364871,0.0-23.0-4.0,"""event"",""trial"",""time""
""fullscreenenter"",""1"",""6433""
","
","
","""event"",""trial"",""time""
""fullscreenenter"",""1"",""6433""
","
",,576.7,run_exp/static/images/task_images/land.jpg,65,,,,,,,17,,,1,,,,,,,,9105,1,0,FALSE,,,
dig,68,367308,0.0-24.0-0.0,"""event"",""trial"",""time""
""fullscreenenter"",""1"",""6433""
","
","
","""event"",""trial"",""time""
""fullscreenenter"",""1"",""6433""
","
",,,,,,,,,,,,"[{""stimulus"":""run_exp/static/images/task_images/dig.jpg"",""time"":0.3999999985098839},{""stimulus"":""run_exp/static/images/task_images/land.jpg"",""time"":814.5},{""stimulus"":""run_exp/static/images/task_images/dig.jpg"",""time"":1622.7000000029802}]",[],1,,,,,,,,,,,,,,
harvest,69,368316,0.0-24.0-1.0,"""event"",""trial"",""time""
""fullscreenenter"",""1"",""6433""
","
","
","""event"",""trial"",""time""
""fullscreenenter"",""1"",""6433""
","
",,null,run_exp/static/images/task_images/gems/17.jpg,null,,,,,,,4,,,1,,,,,17,0.222726621,0.235294118,,,,,,,
decision,70,368669,0.0-24.0-2.0,"""event"",""trial"",""time""
""fullscreenenter"",""1"",""6433""
","
","
","""event"",""trial"",""time""
""fullscreenenter"",""1"",""6433""
","
",,350.9,run_exp/static/images/task_images/land.jpg,76,,,,,,,4,,,1,,,,,,,,12903,1,1,TRUE,,,
travel,71,378324,0.0-25.0-0.0,"""event"",""trial"",""time""
""fullscreenenter"",""1"",""6433""
","
","
","""event"",""trial"",""time""
""fullscreenenter"",""1"",""6433""
","
",,,,,,,,,,,,"[{""stimulus"":""run_exp/static/images/task_images/rocket-01.jpg"",""time"":0.3999999985098839},{""stimulus"":""run_exp/static/images/task_images/rocket-02.jpg"",""time"":1075.6000000014901},{""stimulus"":""run_exp/static/images/task_images/rocket-03.jpg"",""time"":2147.2999999970198},{""stimulus"":""run_exp/static/images/task_images/rocket-04.jpg"",""time"":3219.39999999851},{""stimulus"":""run_exp/static/images/task_images/rocket-05.jpg"",""time"":4291.60000000149},{""stimulus"":""run_exp/static/images/task_images/rocket-06.jpg"",""time"":5363.89999999851},{""stimulus"":""run_exp/static/images/task_images/rocket-07.jpg"",""time"":6435.60000000149},{""stimulus"":""run_exp/static/images/task_images/rocket-08.jpg"",""time"":7507.69999999553},{""stimulus"":""run_exp/static/images/task_images/rocket-09.jpg"",""time"":8579.69999999553}]",[],1,,,,,,,,,,,,,,
alien_welcome,72,383332,0.0-25.0-1.0,"""event"",""trial"",""time""
""fullscreenenter"",""1"",""6433""
","
","
","""event"",""trial"",""time""
""fullscreenenter"",""1"",""6433""
","
",,null,run_exp/static/images/task_images/aliens/old_aliens/planet/alien_planet-24.jpg,null,,,,,,,,,,,,,24,"58,24,39,36,15,25,23,60,35,74,10,67,56,7,6,41,63,19,78,57,47,2,75,62,44,49,69,32,43,65,8,26,46,9,45,12,33,18,16,17,54,53,42,79,5",,,,,,,,,,
land,73,383836,0.0-25.0-2.0,"""event"",""trial"",""time""
""fullscreenenter"",""1"",""6433""
","
","
","""event"",""trial"",""time""
""fullscreenenter"",""1"",""6433""
","
",,null,run_exp/static/images/task_images/land.jpg,null,,,,,,,94,,,2,,,,,,,,,,,,,,
dig,74,385844,0.0-25.0-3.0,"""event"",""trial"",""time""
""fullscreenenter"",""1"",""6433""
","
","
","""event"",""trial"",""time""
""fullscreenenter"",""1"",""6433""
","
",,,,,,,,,,,,"[{""stimulus"":""run_exp/static/images/task_images/dig.jpg"",""time"":0.4000000059604645},{""stimulus"":""run_exp/static/images/task_images/land.jpg"",""time"":670.8000000044703},{""stimulus"":""run_exp/static/images/task_images/dig.jpg"",""time"":1342.8000000044703}]",[],2,,,,,,,,,,,,,,
harvest,75,386852,0.0-25.0-4.0,"""event"",""trial"",""time""
""fullscreenenter"",""1"",""6433""
","
","
","""event"",""trial"",""time""
""fullscreenenter"",""1"",""6433""
","
",,null,run_exp/static/images/task_images/gems/94.jpg,null,,,,,,,19,,,2,,,,,94,0.202998013,0.20212766,,,,,,,
decision,76,387195,0.0-25.0-5.0,"""event"",""trial"",""time""
""fullscreenenter"",""1"",""6433""
","
","
","""event"",""trial"",""time""
""fullscreenenter"",""1"",""6433""
","
",,341,run_exp/static/images/task_images/land.jpg,65,,,,,,,19,,,2,,,,,,,,31429,1,0,FALSE,,,
dig,77,389860,0.0-26.0-0.0,"""event"",""trial"",""time""
""fullscreenenter"",""1"",""6433""
","
","
","""event"",""trial"",""time""
""fullscreenenter"",""1"",""6433""
","
",,,,,,,,,,,,"[{""stimulus"":""run_exp/static/images/task_images/dig.jpg"",""time"":0.19999999552965164},{""stimulus"":""run_exp/static/images/task_images/land.jpg"",""time"":893.7999999970198},{""stimulus"":""run_exp/static/images/task_images/dig.jpg"",""time"":1774}]",[],2,,,,,,,,,,,,,,
harvest,78,390868,0.0-26.0-1.0,"""event"",""trial"",""time""
""fullscreenenter"",""1"",""6433""
","
","
","""event"",""trial"",""time""
""fullscreenenter"",""1"",""6433""
","
",,null,run_exp/static/images/task_images/gems/19.jpg,null,,,,,,,4,,,2,,,,,19,0.214435233,0.210526316,,,,,,,
decision,79,391850,0.0-26.0-2.0,"""event"",""trial"",""time""
""fullscreenenter"",""1"",""6433""
","
","
","""event"",""trial"",""time""
""fullscreenenter"",""1"",""6433""
","
",,980.7,run_exp/static/images/task_images/land.jpg,65,,,,,,,4,,,2,,,,,,,,36084,1,1,FALSE,,,
dig,80,393876,0.0-27.0-0.0,"""event"",""trial"",""time""
""fullscreenenter"",""1"",""6433""
","
","
","""event"",""trial"",""time""
""fullscreenenter"",""1"",""6433""
","
",,,,,,,,,,,,"[{""stimulus"":""run_exp/static/images/task_images/dig.jpg"",""time"":0.3999999985098839},{""stimulus"":""run_exp/static/images/task_images/land.jpg"",""time"":678.5},{""stimulus"":""run_exp/static/images/task_images/dig.jpg"",""time"":1350}]",[],2,,,,,,,,,,,,,,
harvest,81,394884,0.0-27.0-1.0,"""event"",""trial"",""time""
""fullscreenenter"",""1"",""6433""
","
","
","""event"",""trial"",""time""
""fullscreenenter"",""1"",""6433""
","
",,null,run_exp/static/images/task_images/gems/4.jpg,null,,,,,,,1,,,2,,,,,4,0.145181615,0.25,,,,,,,
decision,82,396557,0.0-27.0-2.0,"""event"",""trial"",""time""
""fullscreenenter"",""1"",""6433""
","
","
","""event"",""trial"",""time""
""fullscreenenter"",""1"",""6433""
","
",,1671.3,run_exp/static/images/task_images/land.jpg,76,,,,,,,1,,,2,,,,,,,,40791,1,2,TRUE,,,
travel,83,404892,0.0-28.0-0.0,"""event"",""trial"",""time""
""fullscreenenter"",""1"",""6433""
","
","
","""event"",""trial"",""time""
""fullscreenenter"",""1"",""6433""
","
",,,,,,,,,,,,"[{""stimulus"":""run_exp/static/images/task_images/rocket-01.jpg"",""time"":0.20000000298023224},{""stimulus"":""run_exp/static/images/task_images/rocket-02.jpg"",""time"":931.9000000059605},{""stimulus"":""run_exp/static/images/task_images/rocket-03.jpg"",""time"":1852.9000000059605},{""stimulus"":""run_exp/static/images/task_images/rocket-04.jpg"",""time"":2779.8000000044703},{""stimulus"":""run_exp/static/images/task_images/rocket-05.jpg"",""time"":3707.8000000044703},{""stimulus"":""run_exp/static/images/task_images/rocket-06.jpg"",""time"":4627.80000000447},{""stimulus"":""run_exp/static/images/task_images/rocket-07.jpg"",""time"":5555.70000000298},{""stimulus"":""run_exp/static/images/task_images/rocket-08.jpg"",""time"":6483.9000000059605},{""stimulus"":""run_exp/static/images/task_images/rocket-09.jpg"",""time"":7403.80000000447}]",[],2,,,,,,,,,,,,,,
alien_welcome,84,409900,0.0-28.0-1.0,"""event"",""trial"",""time""
""fullscreenenter"",""1"",""6433""
","
","
","""event"",""trial"",""time""
""fullscreenenter"",""1"",""6433""
","
",,null,run_exp/static/images/task_images/aliens/old_aliens/planet/alien_planet-39.jpg,null,,,,,,,,,,,,,39,"58,24,39,36,15,25,23,60,35,74,10,67,56,7,6,41,63,19,78,57,47,2,75,62,44,49,69,32,43,65,8,26,46,9,45,12,33,18,16,17,54,53,42,79,5",,,,,,,,,,
land,85,410404,0.0-28.0-2.0,"""event"",""trial"",""time""
""fullscreenenter"",""1"",""6433""
","
","
","""event"",""trial"",""time""
""fullscreenenter"",""1"",""6433""
","
",,null,run_exp/static/images/task_images/land.jpg,null,,,,,,,106,,,3,,,,,,,,,,,,,,
dig,86,412412,0.0-28.0-3.0,"""event"",""trial"",""time""
""fullscreenenter"",""1"",""6433""
","
","
","""event"",""trial"",""time""
""fullscreenenter"",""1"",""6433""
","
",,,,,,,,,,,,"[{""stimulus"":""run_exp/static/images/task_images/dig.jpg"",""time"":0.3999999985098839},{""stimulus"":""run_exp/static/images/task_images/land.jpg"",""time"":669.6999999955297},{""stimulus"":""run_exp/static/images/task_images/dig.jpg"",""time"":1341.3999999985099}]",[],3,,,,,,,,,,,,,,
harvest,87,413420,0.0-28.0-4.0,"""event"",""trial"",""time""
""fullscreenenter"",""1"",""6433""
","
","
","""event"",""trial"",""time""
""fullscreenenter"",""1"",""6433""
","
",,null,run_exp/static/images/task_images/gems/106.jpg,null,,,,,,,47,,,3,,,,,106,0.443846812,0.443396226,,,,,,,
decision,88,413849,0.0-28.0-5.0,"""event"",""trial"",""time""
""fullscreenenter"",""1"",""6433""
","
","
","""event"",""trial"",""time""
""fullscreenenter"",""1"",""6433""
","
",,427.1,run_exp/static/images/task_images/land.jpg,65,,,,,,,47,,,3,,,,,,,,58083,1,0,FALSE,,,
dig,89,416428,0.0-29.0-0.0,"""event"",""trial"",""time""
""fullscreenenter"",""1"",""6433""
","
","
","""event"",""trial"",""time""
""fullscreenenter"",""1"",""6433""
","
",,,,,,,,,,,,"[{""stimulus"":""run_exp/static/images/task_images/dig.jpg"",""time"":0.19999999552965164},{""stimulus"":""run_exp/static/images/task_images/land.jpg"",""time"":863},{""stimulus"":""run_exp/static/images/task_images/dig.jpg"",""time"":1719.2999999970198}]",[],3,,,,,,,,,,,,,,
harvest,90,417436,0.0-29.0-1.0,"""event"",""trial"",""time""
""fullscreenenter"",""1"",""6433""
","
","
","""event"",""trial"",""time""
""fullscreenenter"",""1"",""6433""
","
",,null,run_exp/static/images/task_images/gems/47.jpg,null,,,,,,,20,,,3,,,,,47,0.434846382,0.425531915,,,,,,,
decision,91,418229,0.0-29.0-2.0,"""event"",""trial"",""time""
""fullscreenenter"",""1"",""6433""
","
","
","""event"",""trial"",""time""
""fullscreenenter"",""1"",""6433""
","
",,791.8,run_exp/static/images/task_images/land.jpg,65,,,,,,,20,,,3,,,,,,,,62464,1,1,FALSE,,,
dig,92,420444,0.0-30.0-0.0,"""event"",""trial"",""time""
""fullscreenenter"",""1"",""6433""
","
","
","""event"",""trial"",""time""
""fullscreenenter"",""1"",""6433""
","
",,,,,,,,,,,,"[{""stimulus"":""run_exp/static/images/task_images/dig.jpg"",""time"":0.29999999701976776},{""stimulus"":""run_exp/static/images/task_images/land.jpg"",""time"":739},{""stimulus"":""run_exp/static/images/task_images/dig.jpg"",""time"":1474.7999999970198}]",[],3,,,,,,,,,,,,,,
harvest,93,421452,0.0-30.0-1.0,"""event"",""trial"",""time""
""fullscreenenter"",""1"",""6433""
","
","
","""event"",""trial"",""time""
""fullscreenenter"",""1"",""6433""
","
",,null,run_exp/static/images/task_images/gems/20.jpg,null,,,,,,,9,,,3,,,,,20,0.459354511,0.45,,,,,,,
decision,94,421640,0.0-30.0-2.0,"""event"",""trial"",""time""
""fullscreenenter"",""1"",""6433""
","
","
","""event"",""trial"",""time""
""fullscreenenter"",""1"",""6433""
","
",,187.1,run_exp/static/images/task_images/land.jpg,76,,,,,,,9,,,3,,,,,,,,65875,1,2,TRUE,,,
travel,95,431460,0.0-31.0-0.0,"""event"",""trial"",""time""
""fullscreenenter"",""1"",""6433""
","
","
","""event"",""trial"",""time""
""fullscreenenter"",""1"",""6433""
","
",,,,,,,,,,,,"[{""stimulus"":""run_exp/static/images/task_images/rocket-01.jpg"",""time"":0.3999999985098839},{""stimulus"":""run_exp/static/images/task_images/rocket-02.jpg"",""time"":1095.6000000014901},{""stimulus"":""run_exp/static/images/task_images/rocket-03.jpg"",""time"":2183.7999999970198},{""stimulus"":""run_exp/static/images/task_images/rocket-04.jpg"",""time"":3279.89999999851},{""stimulus"":""run_exp/static/images/task_images/rocket-05.jpg"",""time"":4367.79999999702},{""stimulus"":""run_exp/static/images/task_images/rocket-06.jpg"",""time"":5455.89999999851},{""stimulus"":""run_exp/static/images/task_images/rocket-07.jpg"",""time"":6543.60000000149},{""stimulus"":""run_exp/static/images/task_images/rocket-08.jpg"",""time"":7639.39999999851},{""stimulus"":""run_exp/static/images/task_images/rocket-09.jpg"",""time"":8727.60000000149}]",[],3,,,,,,,,,,,,,,
alien_welcome,96,436468,0.0-31.0-1.0,"""event"",""trial"",""time""
""fullscreenenter"",""1"",""6433""
","
","
","""event"",""trial"",""time""
""fullscreenenter"",""1"",""6433""
","
",,null,run_exp/static/images/task_images/aliens/old_aliens/planet/alien_planet-36.jpg,null,,,,,,,,,,,,,36,"58,24,39,36,15,25,23,60,35,74,10,67,56,7,6,41,63,19,78,57,47,2,75,62,44,49,69,32,43,65,8,26,46,9,45,12,33,18,16,17,54,53,42,79,5",,,,,,,,,,
land,97,436972,0.0-31.0-2.0,"""event"",""trial"",""time""
""fullscreenenter"",""1"",""6433""
","
","
","""event"",""trial"",""time""
""fullscreenenter"",""1"",""6433""
","
",,null,run_exp/static/images/task_images/land.jpg,null,,,,,,,99,,,4,,,,,,,,,,,,,,
dig,98,438980,0.0-31.0-3.0,"""event"",""trial"",""time""
""fullscreenenter"",""1"",""6433""
","
","
","""event"",""trial"",""time""
""fullscreenenter"",""1"",""6433""
","
",,,,,,,,,,,,"[{""stimulus"":""run_exp/static/images/task_images/dig.jpg"",""time"":0.3999999985098839},{""stimulus"":""run_exp/static/images/task_images/land.jpg"",""time"":671.1999999955297},{""stimulus"":""run_exp/static/images/task_images/dig.jpg"",""time"":1342.5}]",[],4,,,,,,,,,,,,,,
harvest,99,439988,0.0-31.0-4.0,"""event"",""trial"",""time""
""fullscreenenter"",""1"",""6433""
","
","
","""event"",""trial"",""time""
""fullscreenenter"",""1"",""6433""
","
",,null,run_exp/static/images/task_images/gems/99.jpg,null,,,,,,,49,,,4,,,,,99,0.490043263,0.494949495,,,,,,,
decision,100,440708,0.0-31.0-5.0,"""event"",""trial"",""time""
""fullscreenenter"",""1"",""6433""
","
","
","""event"",""trial"",""time""
""fullscreenenter"",""1"",""6433""
","
",,718.3,run_exp/static/images/task_images/land.jpg,65,,,,,,,49,,,4,,,,,,,,84942,1,0,FALSE,,,
dig,101,442996,0.0-32.0-0.0,"""event"",""trial"",""time""
""fullscreenenter"",""1"",""6433""
","
","
","""event"",""trial"",""time""
""fullscreenenter"",""1"",""6433""
","
",,,,,,,,,,,,"[{""stimulus"":""run_exp/static/images/task_images/dig.jpg"",""time"":0.10000000149011612},{""stimulus"":""run_exp/static/images/task_images/land.jpg"",""time"":764.7999999970198},{""stimulus"":""run_exp/static/images/task_images/dig.jpg"",""time"":1524.6000000014901}]",[],4,,,,,,,,,,,,,,
harvest,102,444004,0.0-32.0-1.0,"""event"",""trial"",""time""
""fullscreenenter"",""1"",""6433""
","
","
","""event"",""trial"",""time""
""fullscreenenter"",""1"",""6433""
","
",,null,run_exp/static/images/task_images/gems/49.jpg,null,,,,,,,20,,,4,,,,,49,0.416456554,0.408163265,,,,,,,
decision,103,445179,0.0-32.0-2.0,"""event"",""trial"",""time""
""fullscreenenter"",""1"",""6433""
","
","
","""event"",""trial"",""time""
""fullscreenenter"",""1"",""6433""
","
",,1174.2,run_exp/static/images/task_images/land.jpg,65,,,,,,,20,,,4,,,,,,,,89414,1,1,FALSE,,,
dig,104,447012,0.0-33.0-0.0,"""event"",""trial"",""time""
""fullscreenenter"",""1"",""6433""
","
","
","""event"",""trial"",""time""
""fullscreenenter"",""1"",""6433""
","
",,,,,,,,,,,,"[{""stimulus"":""run_exp/static/images/task_images/dig.jpg"",""time"":0.20000000298023224},{""stimulus"":""run_exp/static/images/task_images/land.jpg"",""time"":613},{""stimulus"":""run_exp/static/images/task_images/dig.jpg"",""time"":1221.2000000029802}]",[],4,,,,,,,,,,,,,,
harvest,105,448020,0.0-33.0-1.0,"""event"",""trial"",""time""
""fullscreenenter"",""1"",""6433""
","
","
","""event"",""trial"",""time""
""fullscreenenter"",""1"",""6433""
","
",,null,run_exp/static/images/task_images/gems/20.jpg,null,,,,,,,10,,,4,,,,,20,0.521423583,0.5,,,,,,,
decision,106,449219,0.0-33.0-2.0,"""event"",""trial"",""time""
""fullscreenenter"",""1"",""6433""
","
","
","""event"",""trial"",""time""
""fullscreenenter"",""1"",""6433""
","
",,1197.7,run_exp/static/images/task_images/land.jpg,76,,,,,,,10,,,4,,,,,,,,93454,1,2,TRUE,,,
travel,107,458028,0.0-34.0-0.0,"""event"",""trial"",""time""
""fullscreenenter"",""1"",""6433""
","
","
","""event"",""trial"",""time""
""fullscreenenter"",""1"",""6433""
","
",,,,,,,,,,,,"[{""stimulus"":""run_exp/static/images/task_images/rocket-01.jpg"",""time"":0.29999999701976776},{""stimulus"":""run_exp/static/images/task_images/rocket-02.jpg"",""time"":981.2000000029802},{""stimulus"":""run_exp/static/images/task_images/rocket-03.jpg"",""time"":1965.1000000014901},{""stimulus"":""run_exp/static/images/task_images/rocket-04.jpg"",""time"":2941.2999999970198},{""stimulus"":""run_exp/static/images/task_images/rocket-05.jpg"",""time"":3917.2999999970198},{""stimulus"":""run_exp/static/images/task_images/rocket-06.jpg"",""time"":4892.89999999851},{""stimulus"":""run_exp/static/images/task_images/rocket-07.jpg"",""time"":5877.10000000149},{""stimulus"":""run_exp/static/images/task_images/rocket-08.jpg"",""time"":6848.10000000149},{""stimulus"":""run_exp/static/images/task_images/rocket-09.jpg"",""time"":7829}]",[],4,,,,,,,,,,,,,,
alien_welcome,108,463036,0.0-34.0-1.0,"""event"",""trial"",""time""
""fullscreenenter"",""1"",""6433""
","
","
","""event"",""trial"",""time""
""fullscreenenter"",""1"",""6433""
","
",,null,run_exp/static/images/task_images/aliens/old_aliens/planet/alien_planet-15.jpg,null,,,,,,,,,,,,,15,"58,24,39,36,15,25,23,60,35,74,10,67,56,7,6,41,63,19,78,57,47,2,75,62,44,49,69,32,43,65,8,26,46,9,45,12,33,18,16,17,54,53,42,79,5",,,,,,,,,,
land,109,463540,0.0-34.0-2.0,"""event"",""trial"",""time""
""fullscreenenter"",""1"",""6433""
","
","
","""event"",""trial"",""time""
""fullscreenenter"",""1"",""6433""
","
",,null,run_exp/static/images/task_images/land.jpg,null,,,,,,,98,,,5,,,,,,,,,,,,,,
dig,110,465548,0.0-34.0-3.0,"""event"",""trial"",""time""
""fullscreenenter"",""1"",""6433""
","
","
","""event"",""trial"",""time""
""fullscreenenter"",""1"",""6433""
","
",,,,,,,,,,,,"[{""stimulus"":""run_exp/static/images/task_images/dig.jpg"",""time"":0.29999999701976776},{""stimulus"":""run_exp/static/images/task_images/land.jpg"",""time"":670.7999999970198},{""stimulus"":""run_exp/static/images/task_images/dig.jpg"",""time"":1342.5}]",[],5,,,,,,,,,,,,,,
harvest,111,466556,0.0-34.0-4.0,"""event"",""trial"",""time""
""fullscreenenter"",""1"",""6433""
","
","
","""event"",""trial"",""time""
""fullscreenenter"",""1"",""6433""
","
",,null,run_exp/static/images/task_images/gems/98.jpg,null,,,,,,,36,,,5,,,,,98,0.371165796,0.367346939,,,,,,,
decision,112,466897,0.0-34.0-5.0,"""event"",""trial"",""time""
""fullscreenenter"",""1"",""6433""
","
","
","""event"",""trial"",""time""
""fullscreenenter"",""1"",""6433""
","
",,339.6,run_exp/static/images/task_images/land.jpg,65,,,,,,,36,,,5,,,,,,,,111131,1,0,FALSE,,,
dig,113,469564,0.0-35.0-0.0,"""event"",""trial"",""time""
""fullscreenenter"",""1"",""6433""
","
","
","""event"",""trial"",""time""
""fullscreenenter"",""1"",""6433""
","
",,,,,,,,,,,,"[{""stimulus"":""run_exp/static/images/task_images/dig.jpg"",""time"":0.3999999985098839},{""stimulus"":""run_exp/static/images/task_images/land.jpg"",""time"":888.3999999985099},{""stimulus"":""run_exp/static/images/task_images/dig.jpg"",""time"":1775.3999999985099}]",[],5,,,,,,,,,,,,,,
harvest,114,470570,0.0-35.0-1.0,"""event"",""trial"",""time""
""fullscreenenter"",""1"",""6433""
","
","
","""event"",""trial"",""time""
""fullscreenenter"",""1"",""6433""
","
",,null,run_exp/static/images/task_images/gems/36.jpg,null,,,,,,,18,,,5,,,,,36,0.492920561,0.5,,,,,,,
decision,115,471275,0.0-35.0-2.0,"""event"",""trial"",""time""
""fullscreenenter"",""1"",""6433""
","
","
","""event"",""trial"",""time""
""fullscreenenter"",""1"",""6433""
","
",,703.8,run_exp/static/images/task_images/land.jpg,65,,,,,,,18,,,5,,,,,,,,115509,1,1,FALSE,,,
dig,116,473580,0.0-36.0-0.0,"""event"",""trial"",""time""
""fullscreenenter"",""1"",""6433""
","
","
","""event"",""trial"",""time""
""fullscreenenter"",""1"",""6433""
","
",,,,,,,,,,,,"[{""stimulus"":""run_exp/static/images/task_images/dig.jpg"",""time"":0.19999999552965164},{""stimulus"":""run_exp/static/images/task_images/land.jpg"",""time"":773.3999999985099},{""stimulus"":""run_exp/static/images/task_images/dig.jpg"",""time"":1533.6999999955297}]",[],5,,,,,,,,,,,,,,
harvest,117,474588,0.0-36.0-1.0,"""event"",""trial"",""time""
""fullscreenenter"",""1"",""6433""
","
","
","""event"",""trial"",""time""
""fullscreenenter"",""1"",""6433""
","
",,null,run_exp/static/images/task_images/gems/18.jpg,null,,,,,,,9,,,5,,,,,18,0.473445762,0.5,,,,,,,
decision,118,475168,0.0-36.0-2.0,"""event"",""trial"",""time""
""fullscreenenter"",""1"",""6433""
","
","
","""event"",""trial"",""time""
""fullscreenenter"",""1"",""6433""
","
",,578.3,run_exp/static/images/task_images/land.jpg,76,,,,,,,9,,,5,,,,,,,,119402,1,2,TRUE,,,
travel,119,484591,0.0-37.0-0.0,"""event"",""trial"",""time""
""fullscreenenter"",""1"",""6433""
","
","
","""event"",""trial"",""time""
""fullscreenenter"",""1"",""6433""
","
",,,,,,,,,,,,"[{""stimulus"":""run_exp/static/images/task_images/rocket-01.jpg"",""time"":0.30000000447034836},{""stimulus"":""run_exp/static/images/task_images/rocket-02.jpg"",""time"":1048.2000000029802},{""stimulus"":""run_exp/static/images/task_images/rocket-03.jpg"",""time"":2096.3000000044703},{""stimulus"":""run_exp/static/images/task_images/rocket-04.jpg"",""time"":3144.7000000029802},{""stimulus"":""run_exp/static/images/task_images/rocket-05.jpg"",""time"":4192.5},{""stimulus"":""run_exp/static/images/task_images/rocket-06.jpg"",""time"":5232.39999999851},{""stimulus"":""run_exp/static/images/task_images/rocket-07.jpg"",""time"":6279.80000000447},{""stimulus"":""run_exp/static/images/task_images/rocket-08.jpg"",""time"":7328.30000000447},{""stimulus"":""run_exp/static/images/task_images/rocket-09.jpg"",""time"":8378}]",[],5,,,,,,,,,,,,,,
alien_welcome,120,489597,0.0-37.0-1.0,"""event"",""trial"",""time""
""fullscreenenter"",""1"",""6433""
","
","
","""event"",""trial"",""time""
""fullscreenenter"",""1"",""6433""
","
",,null,run_exp/static/images/task_images/aliens/old_aliens/planet/alien_planet-25.jpg,null,,,,,,,,,,,,,25,"58,24,39,36,15,25,23,60,35,74,10,67,56,7,6,41,63,19,78,57,47,2,75,62,44,49,69,32,43,65,8,26,46,9,45,12,33,18,16,17,54,53,42,79,5",,,,,,,,,,
land,121,490100,0.0-37.0-2.0,"""event"",""trial"",""time""
""fullscreenenter"",""1"",""6433""
","
","
","""event"",""trial"",""time""
""fullscreenenter"",""1"",""6433""
","
",,null,run_exp/static/images/task_images/land.jpg,null,,,,,,,109,,,6,,,,,,,,,,,,,,
dig,122,492108,0.0-37.0-3.0,"""event"",""trial"",""time""
""fullscreenenter"",""1"",""6433""
","
","
","""event"",""trial"",""time""
""fullscreenenter"",""1"",""6433""
","
",,,,,,,,,,,,"[{""stimulus"":""run_exp/static/images/task_images/dig.jpg"",""time"":0.29999999701976776},{""stimulus"":""run_exp/static/images/task_images/land.jpg"",""time"":670.7999999970198},{""stimulus"":""run_exp/static/images/task_images/dig.jpg"",""time"":1338.3999999985099}]",[],6,,,,,,,,,,,,,,
harvest,123,493116,0.0-37.0-4.0,"""event"",""trial"",""time""
""fullscreenenter"",""1"",""6433""
","
","
","""event"",""trial"",""time""
""fullscreenenter"",""1"",""6433""
","
",,null,run_exp/static/images/task_images/gems/109.jpg,null,,,,,,,86,,,6,,,,,109,0.788834903,0.788990826,,,,,,,
decision,124,493433,0.0-37.0-5.0,"""event"",""trial"",""time""
""fullscreenenter"",""1"",""6433""
","
","
","""event"",""trial"",""time""
""fullscreenenter"",""1"",""6433""
","
",,315.2,run_exp/static/images/task_images/land.jpg,65,,,,,,,86,,,6,,,,,,,,137667,1,0,FALSE,,,
dig,125,496124,0.0-38.0-0.0,"""event"",""trial"",""time""
""fullscreenenter"",""1"",""6433""
","
","
","""event"",""trial"",""time""
""fullscreenenter"",""1"",""6433""
","
",,,,,,,,,,,,"[{""stimulus"":""run_exp/static/images/task_images/dig.jpg"",""time"":0.30000000447034836},{""stimulus"":""run_exp/static/images/task_images/land.jpg"",""time"":895.8000000044703},{""stimulus"":""run_exp/static/images/task_images/dig.jpg"",""time"":1792.1000000014901}]",[],6,,,,,,,,,,,,,,
harvest,126,497132,0.0-38.0-1.0,"""event"",""trial"",""time""
""fullscreenenter"",""1"",""6433""
","
","
","""event"",""trial"",""time""
""fullscreenenter"",""1"",""6433""
","
",,null,run_exp/static/images/task_images/gems/86.jpg,null,,,,,,,70,,,6,,,,,86,0.809683701,0.813953488,,,,,,,
decision,127,497346,0.0-38.0-2.0,"""event"",""trial"",""time""
""fullscreenenter"",""1"",""6433""
","
","
","""event"",""trial"",""time""
""fullscreenenter"",""1"",""6433""
","
",,212.6,run_exp/static/images/task_images/land.jpg,65,,,,,,,70,,,6,,,,,,,,141580,1,1,FALSE,,,
dig,128,500140,0.0-39.0-0.0,"""event"",""trial"",""time""
""fullscreenenter"",""1"",""6433""
","
","
","""event"",""trial"",""time""
""fullscreenenter"",""1"",""6433""
","
",,,,,,,,,,,,"[{""stimulus"":""run_exp/static/images/task_images/dig.jpg"",""time"":0.3999999985098839},{""stimulus"":""run_exp/static/images/task_images/land.jpg"",""time"":933.3999999985099},{""stimulus"":""run_exp/static/images/task_images/dig.jpg"",""time"":1861.3999999985099}]",[],6,,,,,,,,,,,,,,
harvest,129,501148,0.0-39.0-1.0,"""event"",""trial"",""time""
""fullscreenenter"",""1"",""6433""
","
","
","""event"",""trial"",""time""
""fullscreenenter"",""1"",""6433""
","
",,null,run_exp/static/images/task_images/gems/70.jpg,null,,,,,,,55,,,6,,,,,70,0.79241969,0.785714286,,,,,,,
decision,130,501491,0.0-39.0-2.0,"""event"",""trial"",""time""
""fullscreenenter"",""1"",""6433""
","
","
","""event"",""trial"",""time""
""fullscreenenter"",""1"",""6433""
","
",,341.2,run_exp/static/images/task_images/land.jpg,65,,,,,,,55,,,6,,,,,,,,145725,1,2,FALSE,,,
dig,131,504156,0.0-40.0-0.0,"""event"",""trial"",""time""
""fullscreenenter"",""1"",""6433""
","
","
","""event"",""trial"",""time""
""fullscreenenter"",""1"",""6433""
","
",,,,,,,,,,,,"[{""stimulus"":""run_exp/static/images/task_images/dig.jpg"",""time"":0.3999999985098839},{""stimulus"":""run_exp/static/images/task_images/land.jpg"",""time"":893.3999999985099},{""stimulus"":""run_exp/static/images/task_images/dig.jpg"",""time"":1781.3999999985099}]",[],6,,,,,,,,,,,,,,
harvest,132,505164,0.0-40.0-1.0,"""event"",""trial"",""time""
""fullscreenenter"",""1"",""6433""
","
","
","""event"",""trial"",""time""
""fullscreenenter"",""1"",""6433""
","
",,null,run_exp/static/images/task_images/gems/55.jpg,null,,,,,,,44,,,6,,,,,55,0.807988869,0.8,,,,,,,
decision,133,505899,0.0-40.0-2.0,"""event"",""trial"",""time""
""fullscreenenter"",""1"",""6433""
","
","
","""event"",""trial"",""time""
""fullscreenenter"",""1"",""6433""
","
",,733.4,run_exp/static/images/task_images/land.jpg,65,,,,,,,44,,,6,,,,,,,,150133,1,3,FALSE,,,
dig,134,508172,0.0-41.0-0.0,"""event"",""trial"",""time""
""fullscreenenter"",""1"",""6433""
","
","
","""event"",""trial"",""time""
""fullscreenenter"",""1"",""6433""
","
",,,,,,,,,,,,"[{""stimulus"":""run_exp/static/images/task_images/dig.jpg"",""time"":0.30000000447034836},{""stimulus"":""run_exp/static/images/task_images/land.jpg"",""time"":757.2000000029802},{""stimulus"":""run_exp/static/images/task_images/dig.jpg"",""time"":1517.5}]",[],6,,,,,,,,,,,,,,
harvest,135,509180,0.0-41.0-1.0,"""event"",""trial"",""time""
""fullscreenenter"",""1"",""6433""
","
","
","""event"",""trial"",""time""
""fullscreenenter"",""1"",""6433""
","
",,null,run_exp/static/images/task_images/gems/44.jpg,null,,,,,,,36,,,6,,,,,44,0.812124936,0.818181818,,,,,,,
decision,136,509785,0.0-41.0-2.0,"""event"",""trial"",""time""
""fullscreenenter"",""1"",""6433""
","
","
","""event"",""trial"",""time""
""fullscreenenter"",""1"",""6433""
","
",,602.8,run_exp/static/images/task_images/land.jpg,65,,,,,,,36,,,6,,,,,,,,154019,1,4,FALSE,,,
dig,137,512188,0.0-42.0-0.0,"""event"",""trial"",""time""
""fullscreenenter"",""1"",""6433""
","
","
","""event"",""trial"",""time""
""fullscreenenter"",""1"",""6433""
","
",,,,,,,,,,,,"[{""stimulus"":""run_exp/static/images/task_images/dig.jpg"",""time"":0.3999999985098839},{""stimulus"":""run_exp/static/images/task_images/land.jpg"",""time"":808.1999999955297},{""stimulus"":""run_exp/static/images/task_images/dig.jpg"",""time"":1600.0999999940395}]",[],6,,,,,,,,,,,,,,
harvest,138,513196,0.0-42.0-1.0,"""event"",""trial"",""time""
""fullscreenenter"",""1"",""6433""
","
","
","""event"",""trial"",""time""
""fullscreenenter"",""1"",""6433""
","
",,null,run_exp/static/images/task_images/gems/36.jpg,null,,,,,,,26,,,6,,,,,36,0.709991136,0.722222222,,,,,,,
decision,139,513774,0.0-42.0-2.0,"""event"",""trial"",""time""
""fullscreenenter"",""1"",""6433""
","
","
","""event"",""trial"",""time""
""fullscreenenter"",""1"",""6433""
","
",,576.4,run_exp/static/images/task_images/land.jpg,65,,,,,,,26,,,6,,,,,,,,158008,1,5,FALSE,,,
dig,140,516204,0.0-43.0-0.0,"""event"",""trial"",""time""
""fullscreenenter"",""1"",""6433""
","
","
","""event"",""trial"",""time""
""fullscreenenter"",""1"",""6433""
","
",,,,,,,,,,,,"[{""stimulus"":""run_exp/static/images/task_images/dig.jpg"",""time"":0.20000000298023224},{""stimulus"":""run_exp/static/images/task_images/land.jpg"",""time"":810.7000000029802},{""stimulus"":""run_exp/static/images/task_images/dig.jpg"",""time"":1618.5}]",[],6,,,,,,,,,,,,,,
harvest,141,517212,0.0-43.0-1.0,"""event"",""trial"",""time""
""fullscreenenter"",""1"",""6433""
","
","
","""event"",""trial"",""time""
""fullscreenenter"",""1"",""6433""
","
",,null,run_exp/static/images/task_images/gems/26.jpg,null,,,,,,,21,,,6,,,,,26,0.818342442,0.807692308,,,,,,,
decision,142,517307,0.0-43.0-2.0,"""event"",""trial"",""time""
""fullscreenenter"",""1"",""6433""
","
","
","""event"",""trial"",""time""
""fullscreenenter"",""1"",""6433""
","
",,93.5,run_exp/static/images/task_images/land.jpg,65,,,,,,,21,,,6,,,,,,,,161541,1,6,FALSE,,,
dig,143,520220,0.0-44.0-0.0,"""event"",""trial"",""time""
""fullscreenenter"",""1"",""6433""
","
","
","""event"",""trial"",""time""
""fullscreenenter"",""1"",""6433""
","
",,,,,,,,,,,,"[{""stimulus"":""run_exp/static/images/task_images/dig.jpg"",""time"":0.4000000059604645},{""stimulus"":""run_exp/static/images/task_images/land.jpg"",""time"":973.6000000014901},{""stimulus"":""run_exp/static/images/task_images/dig.jpg"",""time"":1941.2000000029802}]",[],6,,,,,,,,,,,,,,
harvest,144,521228,0.0-44.0-1.0,"""event"",""trial"",""time""
""fullscreenenter"",""1"",""6433""
","
","
","""event"",""trial"",""time""
""fullscreenenter"",""1"",""6433""
","
",,null,run_exp/static/images/task_images/gems/21.jpg,null,,,,,,,17,,,6,,,,,21,0.787622985,0.80952381,,,,,,,
decision,145,521655,0.0-44.0-2.0,"""event"",""trial"",""time""
""fullscreenenter"",""1"",""6433""
","
","
","""event"",""trial"",""time""
""fullscreenenter"",""1"",""6433""
","
",,424.5,run_exp/static/images/task_images/land.jpg,76,,,,,,,17,,,6,,,,,,,,165889,1,7,TRUE,,,
travel,146,531228,0.0-45.0-0.0,"""event"",""trial"",""time""
""fullscreenenter"",""1"",""6433""
","
","
","""event"",""trial"",""time""
""fullscreenenter"",""1"",""6433""
","
",,,,,,,,,,,,"[{""stimulus"":""run_exp/static/images/task_images/rocket-01.jpg"",""time"":0.29999999701976776},{""stimulus"":""run_exp/static/images/task_images/rocket-02.jpg"",""time"":1066.2000000029802},{""stimulus"":""run_exp/static/images/task_images/rocket-03.jpg"",""time"":2130.5},{""stimulus"":""run_exp/static/images/task_images/rocket-04.jpg"",""time"":3194},{""stimulus"":""run_exp/static/images/task_images/rocket-05.jpg"",""time"":4258.20000000298},{""stimulus"":""run_exp/static/images/task_images/rocket-06.jpg"",""time"":5322.39999999851},{""stimulus"":""run_exp/static/images/task_images/rocket-07.jpg"",""time"":6386},{""stimulus"":""run_exp/static/images/task_images/rocket-08.jpg"",""time"":7442.20000000298},{""stimulus"":""run_exp/static/images/task_images/rocket-09.jpg"",""time"":8506.20000000298}]",[],6,,,,,,,,,,,,,,
alien_welcome,147,536236,0.0-45.0-1.0,"""event"",""trial"",""time""
""fullscreenenter"",""1"",""6433""
","
","
","""event"",""trial"",""time""
""fullscreenenter"",""1"",""6433""
","
",,null,run_exp/static/images/task_images/aliens/old_aliens/planet/alien_planet-23.jpg,null,,,,,,,,,,,,,23,"58,24,39,36,15,25,23,60,35,74,10,67,56,7,6,41,63,19,78,57,47,2,75,62,44,49,69,32,43,65,8,26,46,9,45,12,33,18,16,17,54,53,42,79,5",,,,,,,,,,
land,148,536740,0.0-45.0-2.0,"""event"",""trial"",""time""
""fullscreenenter"",""1"",""6433""
","
","
","""event"",""trial"",""time""
""fullscreenenter"",""1"",""6433""
","
",,null,run_exp/static/images/task_images/land.jpg,null,,,,,,,93,,,7,,,,,,,,,,,,,,
dig,149,538748,0.0-45.0-3.0,"""event"",""trial"",""time""
""fullscreenenter"",""1"",""6433""
","
","
","""event"",""trial"",""time""
""fullscreenenter"",""1"",""6433""
","
",,,,,,,,,,,,"[{""stimulus"":""run_exp/static/images/task_images/dig.jpg"",""time"":0.3999999985098839},{""stimulus"":""run_exp/static/images/task_images/land.jpg"",""time"":669.8999999985099},{""stimulus"":""run_exp/static/images/task_images/dig.jpg"",""time"":1341.8000000044703}]",[],7,,,,,,,,,,,,,,
harvest,150,539756,0.0-45.0-4.0,"""event"",""trial"",""time""
""fullscreenenter"",""1"",""6433""
","
","
","""event"",""trial"",""time""
""fullscreenenter"",""1"",""6433""
","
",,null,run_exp/static/images/task_images/gems/93.jpg,null,,,,,,,67,,,7,,,,,93,0.720502721,0.720430108,,,,,,,
decision,151,539775,0.0-45.0-5.0,"""event"",""trial"",""time""
""fullscreenenter"",""1"",""6433""
","
","
","""event"",""trial"",""time""
""fullscreenenter"",""1"",""6433""
","
",,17.4,run_exp/static/images/task_images/land.jpg,65,,,,,,,67,,,7,,,,,,,,184009,1,0,FALSE,,,
dig,152,542764,0.0-46.0-0.0,"""event"",""trial"",""time""
""fullscreenenter"",""1"",""6433""
","
","
","""event"",""trial"",""time""
""fullscreenenter"",""1"",""6433""
","
",,,,,,,,,,,,"[{""stimulus"":""run_exp/static/images/task_images/dig.jpg"",""time"":0.3999999985098839},{""stimulus"":""run_exp/static/images/task_images/land.jpg"",""time"":1001.1000000014901},{""stimulus"":""run_exp/static/images/task_images/dig.jpg"",""time"":1993.3999999985099}]",[],7,,,,,,,,,,,,,,
harvest,153,543772,0.0-46.0-1.0,"""event"",""trial"",""time""
""fullscreenenter"",""1"",""6433""
","
","
","""event"",""trial"",""time""
""fullscreenenter"",""1"",""6433""
","
",,null,run_exp/static/images/task_images/gems/67.jpg,null,,,,,,,52,,,7,,,,,67,0.778227928,0.776119403,,,,,,,
decision,154,543918,0.0-46.0-2.0,"""event"",""trial"",""time""
""fullscreenenter"",""1"",""6433""
","
","
","""event"",""trial"",""time""
""fullscreenenter"",""1"",""6433""
","
",,145.1,run_exp/static/images/task_images/land.jpg,65,,,,,,,52,,,7,,,,,,,,188152,1,1,FALSE,,,
dig,155,546780,0.0-47.0-0.0,"""event"",""trial"",""time""
""fullscreenenter"",""1"",""6433""
","
","
","""event"",""trial"",""time""
""fullscreenenter"",""1"",""6433""
","
",,,,,,,,,,,,"[{""stimulus"":""run_exp/static/images/task_images/dig.jpg"",""time"":0.30000000447034836},{""stimulus"":""run_exp/static/images/task_images/land.jpg"",""time"":954.5},{""stimulus"":""run_exp/static/images/task_images/dig.jpg"",""time"":1906.4000000059605}]",[],7,,,,,,,,,,,,,,
harvest,156,547788,0.0-47.0-1.0,"""event"",""trial"",""time""
""fullscreenenter"",""1"",""6433""
","
","
","""event"",""trial"",""time""
""fullscreenenter"",""1"",""6433""
","
",,null,run_exp/static/images/task_images/gems/52.jpg,null,,,,,,,41,,,7,,,,,52,0.793273193,0.788461538,,,,,,,
decision,157,548495,0.0-47.0-2.0,"""event"",""trial"",""time""
""fullscreenenter"",""1"",""6433""
","
","
","""event"",""trial"",""time""
""fullscreenenter"",""1"",""6433""
","
",,703.3,run_exp/static/images/task_images/land.jpg,65,,,,,,,41,,,7,,,,,,,,192729,1,2,FALSE,,,
dig,158,550796,0.0-48.0-0.0,"""event"",""trial"",""time""
""fullscreenenter"",""1"",""6433""
","
","
","""event"",""trial"",""time""
""fullscreenenter"",""1"",""6433""
","
",,,,,,,,,,,,"[{""stimulus"":""run_exp/static/images/task_images/dig.jpg"",""time"":0.3999999985098839},{""stimulus"":""run_exp/static/images/task_images/land.jpg"",""time"":769.7000000029802},{""stimulus"":""run_exp/static/images/task_images/dig.jpg"",""time"":1537.6000000014901}]",[],7,,,,,,,,,,,,,,
harvest,159,551804,0.0-48.0-1.0,"""event"",""trial"",""time""
""fullscreenenter"",""1"",""6433""
","
","
","""event"",""trial"",""time""
""fullscreenenter"",""1"",""6433""
","
",,null,run_exp/static/images/task_images/gems/41.jpg,null,,,,,,,30,,,7,,,,,41,0.73750008,0.731707317,,,,,,,
decision,160,551820,0.0-48.0-2.0,"""event"",""trial"",""time""
""fullscreenenter"",""1"",""6433""
","
","
","""event"",""trial"",""time""
""fullscreenenter"",""1"",""6433""
","
",,14.1,run_exp/static/images/task_images/land.jpg,65,,,,,,,30,,,7,,,,,,,,196054,1,3,FALSE,,,
dig,161,554812,0.0-49.0-0.0,"""event"",""trial"",""time""
""fullscreenenter"",""1"",""6433""
","
","
","""event"",""trial"",""time""
""fullscreenenter"",""1"",""6433""
","
",,,,,,,,,,,,"[{""stimulus"":""run_exp/static/images/task_images/dig.jpg"",""time"":0.3999999985098839},{""stimulus"":""run_exp/static/images/task_images/land.jpg"",""time"":1003.5},{""stimulus"":""run_exp/static/images/task_images/dig.jpg"",""time"":1995.6000000014901}]",[],7,,,,,,,,,,,,,,
harvest,162,555820,0.0-49.0-1.0,"""event"",""trial"",""time""
""fullscreenenter"",""1"",""6433""
","
","
","""event"",""trial"",""time""
""fullscreenenter"",""1"",""6433""
","
",,null,run_exp/static/images/task_images/gems/30.jpg,null,,,,,,,25,,,7,,,,,30,0.824262063,0.833333333,,,,,,,
decision,163,556082,0.0-49.0-2.0,"""event"",""trial"",""time""
""fullscreenenter"",""1"",""6433""
","
","
","""event"",""trial"",""time""
""fullscreenenter"",""1"",""6433""
","
",,260.3,run_exp/static/images/task_images/land.jpg,76,,,,,,,25,,,7,,,,,,,,200316,1,4,TRUE,,,
travel,164,565829,0.0-50.0-0.0,"""event"",""trial"",""time""
""fullscreenenter"",""1"",""6433""
","
","
","""event"",""trial"",""time""
""fullscreenenter"",""1"",""6433""
","
",,,,,,,,,,,,"[{""stimulus"":""run_exp/static/images/task_images/rocket-01.jpg"",""time"":0.30000000447034836},{""stimulus"":""run_exp/static/images/task_images/rocket-02.jpg"",""time"":1086.6000000014901},{""stimulus"":""run_exp/static/images/task_images/rocket-03.jpg"",""time"":2166.4000000059605},{""stimulus"":""run_exp/static/images/task_images/rocket-04.jpg"",""time"":3254},{""stimulus"":""run_exp/static/images/task_images/rocket-05.jpg"",""time"":4334.60000000149},{""stimulus"":""run_exp/static/images/task_images/rocket-06.jpg"",""time"":5414.60000000149},{""stimulus"":""run_exp/static/images/task_images/rocket-07.jpg"",""time"":6494.10000000149},{""stimulus"":""run_exp/static/images/task_images/rocket-08.jpg"",""time"":7582},{""stimulus"":""run_exp/static/images/task_images/rocket-09.jpg"",""time"":8662.40000000596}]",[],7,,,,,,,,,,,,,,
alien_welcome,165,570836,0.0-50.0-1.0,"""event"",""trial"",""time""
""fullscreenenter"",""1"",""6433""
","
","
","""event"",""trial"",""time""
""fullscreenenter"",""1"",""6433""
","
",,null,run_exp/static/images/task_images/aliens/old_aliens/planet/alien_planet-60.jpg,null,,,,,,,,,,,,,60,"58,24,39,36,15,25,23,60,35,74,10,67,56,7,6,41,63,19,78,57,47,2,75,62,44,49,69,32,43,65,8,26,46,9,45,12,33,18,16,17,54,53,42,79,5",,,,,,,,,,
land,166,571340,0.0-50.0-2.0,"""event"",""trial"",""time""
""fullscreenenter"",""1"",""6433""
","
","
","""event"",""trial"",""time""
""fullscreenenter"",""1"",""6433""
","
",,null,run_exp/static/images/task_images/land.jpg,null,,,,,,,100,,,8,,,,,,,,,,,,,,
dig,167,573348,0.0-50.0-3.0,"""event"",""trial"",""time""
""fullscreenenter"",""1"",""6433""
","
","
","""event"",""trial"",""time""
""fullscreenenter"",""1"",""6433""
","
",,,,,,,,,,,,"[{""stimulus"":""run_exp/static/images/task_images/dig.jpg"",""time"":0.3999999985098839},{""stimulus"":""run_exp/static/images/task_images/land.jpg"",""time"":670.3999999985099},{""stimulus"":""run_exp/static/images/task_images/dig.jpg"",""time"":1342.8000000044703}]",[],8,,,,,,,,,,,,,,
harvest,168,574356,0.0-50.0-4.0,"""event"",""trial"",""time""
""fullscreenenter"",""1"",""6433""
","
","
","""event"",""trial"",""time""
""fullscreenenter"",""1"",""6433""
","
",,null,run_exp/static/images/task_images/gems/100.jpg,null,,,,,,,82,,,8,,,,,100,0.821811789,0.82,,,,,,,
decision,169,574891,0.0-50.0-5.0,"""event"",""trial"",""time""
""fullscreenenter"",""1"",""6433""
","
","
","""event"",""trial"",""time""
""fullscreenenter"",""1"",""6433""
","
",,533.5,run_exp/static/images/task_images/land.jpg,65,,,,,,,82,,,8,,,,,,,,219125,1,0,FALSE,,,
dig,170,577372,0.0-51.0-0.0,"""event"",""trial"",""time""
""fullscreenenter"",""1"",""6433""
","
","
","""event"",""trial"",""time""
""fullscreenenter"",""1"",""6433""
","
",,,,,,,,,,,,"[{""stimulus"":""run_exp/static/images/task_images/dig.jpg"",""time"":1.8999999985098839},{""stimulus"":""run_exp/static/images/task_images/land.jpg"",""time"":829.3999999985099},{""stimulus"":""run_exp/static/images/task_images/dig.jpg"",""time"":1653}]",[],8,,,,,,,,,,,,,,
harvest,171,578380,0.0-51.0-1.0,"""event"",""trial"",""time""
""fullscreenenter"",""1"",""6433""
","
","
","""event"",""trial"",""time""
""fullscreenenter"",""1"",""6433""
","
",,null,run_exp/static/images/task_images/gems/82.jpg,null,,,,,,,67,,,8,,,,,82,0.8133614,0.817073171,,,,,,,
decision,172,578949,0.0-51.0-2.0,"""event"",""trial"",""time""
""fullscreenenter"",""1"",""6433""
","
","
","""event"",""trial"",""time""
""fullscreenenter"",""1"",""6433""
","
",,566.9,run_exp/static/images/task_images/land.jpg,65,,,,,,,67,,,8,,,,,,,,223183,1,1,FALSE,,,
dig,173,581388,0.0-52.0-0.0,"""event"",""trial"",""time""
""fullscreenenter"",""1"",""6433""
","
","
","""event"",""trial"",""time""
""fullscreenenter"",""1"",""6433""
","
",,,,,,,,,,,,"[{""stimulus"":""run_exp/static/images/task_images/dig.jpg"",""time"":0.29999999701976776},{""stimulus"":""run_exp/static/images/task_images/land.jpg"",""time"":819.5999999940395},{""stimulus"":""run_exp/static/images/task_images/dig.jpg"",""time"":1627.5999999940395}]",[],8,,,,,,,,,,,,,,
harvest,174,582396,0.0-52.0-1.0,"""event"",""trial"",""time""
""fullscreenenter"",""1"",""6433""
","
","
","""event"",""trial"",""time""
""fullscreenenter"",""1"",""6433""
","
",,null,run_exp/static/images/task_images/gems/67.jpg,null,,,,,,,54,,,8,,,,,67,0.807023685,0.805970149,,,,,,,
decision,175,582802,0.0-52.0-2.0,"""event"",""trial"",""time""
""fullscreenenter"",""1"",""6433""
","
","
","""event"",""trial"",""time""
""fullscreenenter"",""1"",""6433""
","
",,404.4,run_exp/static/images/task_images/land.jpg,65,,,,,,,54,,,8,,,,,,,,227036,1,2,FALSE,,,
dig,176,585404,0.0-53.0-0.0,"""event"",""trial"",""time""
""fullscreenenter"",""1"",""6433""
","
","
","""event"",""trial"",""time""
""fullscreenenter"",""1"",""6433""
","
",,,,,,,,,,,,"[{""stimulus"":""run_exp/static/images/task_images/dig.jpg"",""time"":0.4000000059604645},{""stimulus"":""run_exp/static/images/task_images/land.jpg"",""time"":869.4000000059605},{""stimulus"":""run_exp/static/images/task_images/dig.jpg"",""time"":1733.6000000014901}]",[],8,,,,,,,,,,,,,,
harvest,177,586412,0.0-53.0-1.0,"""event"",""trial"",""time""
""fullscreenenter"",""1"",""6433""
","
","
","""event"",""trial"",""time""
""fullscreenenter"",""1"",""6433""
","
",,null,run_exp/static/images/task_images/gems/54.jpg,null,,,,,,,47,,,8,,,,,54,0.868588176,0.87037037,,,,,,,
decision,178,586680,0.0-53.0-2.0,"""event"",""trial"",""time""
""fullscreenenter"",""1"",""6433""
","
","
","""event"",""trial"",""time""
""fullscreenenter"",""1"",""6433""
","
",,266.5,run_exp/static/images/task_images/land.jpg,65,,,,,,,47,,,8,,,,,,,,230914,1,3,FALSE,,,
dig,179,589420,0.0-54.0-0.0,"""event"",""trial"",""time""
""fullscreenenter"",""1"",""6433""
","
","
","""event"",""trial"",""time""
""fullscreenenter"",""1"",""6433""
","
",,,,,,,,,,,,"[{""stimulus"":""run_exp/static/images/task_images/dig.jpg"",""time"":0.19999999552965164},{""stimulus"":""run_exp/static/images/task_images/land.jpg"",""time"":920.1999999955297},{""stimulus"":""run_exp/static/images/task_images/dig.jpg"",""time"":1824.5}]",[],8,,,,,,,,,,,,,,
harvest,180,590428,0.0-54.0-1.0,"""event"",""trial"",""time""
""fullscreenenter"",""1"",""6433""
","
","
","""event"",""trial"",""time""
""fullscreenenter"",""1"",""6433""
","
",,null,run_exp/static/images/task_images/gems/47.jpg,null,,,,,,,36,,,8,,,,,47,0.766922173,0.765957447,,,,,,,
decision,181,590821,0.0-54.0-2.0,"""event"",""trial"",""time""
""fullscreenenter"",""1"",""6433""
","
","
","""event"",""trial"",""time""
""fullscreenenter"",""1"",""6433""
","
",,391.4,run_exp/static/images/task_images/land.jpg,65,,,,,,,36,,,8,,,,,,,,235055,1,4,FALSE,,,
dig,182,593436,0.0-55.0-0.0,"""event"",""trial"",""time""
""fullscreenenter"",""1"",""6433""
","
","
","""event"",""trial"",""time""
""fullscreenenter"",""1"",""6433""
","
",,,,,,,,,,,,"[{""stimulus"":""run_exp/static/images/task_images/dig.jpg"",""time"":0.29999999701976776},{""stimulus"":""run_exp/static/images/task_images/land.jpg"",""time"":873.5999999940395},{""stimulus"":""run_exp/static/images/task_images/dig.jpg"",""time"":1745}]",[],8,,,,,,,,,,,,,,
harvest,183,594444,0.0-55.0-1.0,"""event"",""trial"",""time""
""fullscreenenter"",""1"",""6433""
","
","
","""event"",""trial"",""time""
""fullscreenenter"",""1"",""6433""
","
",,null,run_exp/static/images/task_images/gems/36.jpg,null,,,,,,,30,,,8,,,,,36,0.829230557,0.833333333,,,,,,,
decision,184,595080,0.0-55.0-2.0,"""event"",""trial"",""time""
""fullscreenenter"",""1"",""6433""
","
","
","""event"",""trial"",""time""
""fullscreenenter"",""1"",""6433""
","
",,634.6,run_exp/static/images/task_images/land.jpg,65,,,,,,,30,,,8,,,,,,,,239314,1,5,FALSE,,,
dig,185,597452,0.0-56.0-0.0,"""event"",""trial"",""time""
""fullscreenenter"",""1"",""6433""
","
","
","""event"",""trial"",""time""
""fullscreenenter"",""1"",""6433""
","
",,,,,,,,,,,,"[{""stimulus"":""run_exp/static/images/task_images/dig.jpg"",""time"":0.3999999985098839},{""stimulus"":""run_exp/static/images/task_images/land.jpg"",""time"":792.5},{""stimulus"":""run_exp/static/images/task_images/dig.jpg"",""time"":1584.2999999970198}]",[],8,,,,,,,,,,,,,,
harvest,186,598460,0.0-56.0-1.0,"""event"",""trial"",""time""
""fullscreenenter"",""1"",""6433""
","
","
","""event"",""trial"",""time""
""fullscreenenter"",""1"",""6433""
","
",,null,run_exp/static/images/task_images/gems/30.jpg,null,,,,,,,25,,,8,,,,,30,0.826316661,0.833333333,,,,,,,
decision,187,599016,0.0-56.0-2.0,"""event"",""trial"",""time""
""fullscreenenter"",""1"",""6433""
","
","
","""event"",""trial"",""time""
""fullscreenenter"",""1"",""6433""
","
",,554.7,run_exp/static/images/task_images/land.jpg,76,,,,,,,25,,,8,,,,,,,,243250,1,6,TRUE,,,
travel,188,608468,0.0-57.0-0.0,"""event"",""trial"",""time""
""fullscreenenter"",""1"",""6433""
","
","
","""event"",""trial"",""time""
""fullscreenenter"",""1"",""6433""
","
",,,,,,,,,,,,"[{""stimulus"":""run_exp/static/images/task_images/rocket-01.jpg"",""time"":0.19999999552965164},{""stimulus"":""run_exp/static/images/task_images/rocket-02.jpg"",""time"":1056.5999999940395},{""stimulus"":""run_exp/static/images/task_images/rocket-03.jpg"",""time"":2104.1999999955297},{""stimulus"":""run_exp/static/images/task_images/rocket-04.jpg"",""time"":3152.0999999940395},{""stimulus"":""run_exp/static/images/task_images/rocket-05.jpg"",""time"":4200.5999999940395},{""stimulus"":""run_exp/static/images/task_images/rocket-06.jpg"",""time"":5248.19999999553},{""stimulus"":""run_exp/static/images/task_images/rocket-07.jpg"",""time"":6296.79999999702},{""stimulus"":""run_exp/static/images/task_images/rocket-08.jpg"",""time"":7352.5},{""stimulus"":""run_exp/static/images/task_images/rocket-09.jpg"",""time"":8400.29999999702}]",[],8,,,,,,,,,,,,,,
alien_welcome,189,613476,0.0-57.0-1.0,"""event"",""trial"",""time""
""fullscreenenter"",""1"",""6433""
","
","
","""event"",""trial"",""time""
""fullscreenenter"",""1"",""6433""
","
",,null,run_exp/static/images/task_images/aliens/old_aliens/planet/alien_planet-35.jpg,null,,,,,,,,,,,,,35,"58,24,39,36,15,25,23,60,35,74,10,67,56,7,6,41,63,19,78,57,47,2,75,62,44,49,69,32,43,65,8,26,46,9,45,12,33,18,16,17,54,53,42,79,5",,,,,,,,,,
land,190,613981,0.0-57.0-2.0,"""event"",""trial"",""time""
""fullscreenenter"",""1"",""6433""
","
","
","""event"",""trial"",""time""
""fullscreenenter"",""1"",""6433""
","
",,null,run_exp/static/images/task_images/land.jpg,null,,,,,,,100,,,9,,,,,,,,,,,,,,
dig,191,615988,0.0-57.0-3.0,"""event"",""trial"",""time""
""fullscreenenter"",""1"",""6433""
","
","
","""event"",""trial"",""time""
""fullscreenenter"",""1"",""6433""
","
",,,,,,,,,,,,"[{""stimulus"":""run_exp/static/images/task_images/dig.jpg"",""time"":0.3999999985098839},{""stimulus"":""run_exp/static/images/task_images/land.jpg"",""time"":670.2000000029802},{""stimulus"":""run_exp/static/images/task_images/dig.jpg"",""time"":1342}]",[],9,,,,,,,,,,,,,,
harvest,192,616996,0.0-57.0-4.0,"""event"",""trial"",""time""
""fullscreenenter"",""1"",""6433""
","
","
","""event"",""trial"",""time""
""fullscreenenter"",""1"",""6433""
","
",,null,run_exp/static/images/task_images/gems/100.jpg,null,,,,,,,12,,,9,,,,,100,0.121366801,0.12,,,,,,,
decision,193,618428,0.0-57.0-5.0,"""event"",""trial"",""time""
""fullscreenenter"",""1"",""6433""
","
","
","""event"",""trial"",""time""
""fullscreenenter"",""1"",""6433""
","
",,1430.1,run_exp/static/images/task_images/land.jpg,65,,,,,,,12,,,9,,,,,,,,262662,1,0,FALSE,,,
dig,194,620004,0.0-58.0-0.0,"""event"",""trial"",""time""
""fullscreenenter"",""1"",""6433""
","
","
","""event"",""trial"",""time""
""fullscreenenter"",""1"",""6433""
","
",,,,,,,,,,,,"[{""stimulus"":""run_exp/static/images/task_images/dig.jpg"",""time"":0.4000000059604645},{""stimulus"":""run_exp/static/images/task_images/land.jpg"",""time"":532.5},{""stimulus"":""run_exp/static/images/task_images/dig.jpg"",""time"":1052.4000000059605}]",[],9,,,,,,,,,,,,,,
harvest,195,621012,0.0-58.0-1.0,"""event"",""trial"",""time""
""fullscreenenter"",""1"",""6433""
","
","
","""event"",""trial"",""time""
""fullscreenenter"",""1"",""6433""
","
",,null,run_exp/static/images/task_images/gems/12.jpg,null,,,,,,,2,,,9,,,,,12,0.165155442,0.166666667,,,,,,,
decision,196,621362,0.0-58.0-2.0,"""event"",""trial"",""time""
""fullscreenenter"",""1"",""6433""
","
","
","""event"",""trial"",""time""
""fullscreenenter"",""1"",""6433""
","
",,348.3,run_exp/static/images/task_images/land.jpg,76,,,,,,,2,,,9,,,,,,,,265596,1,1,TRUE,,,
travel,197,631020,0.0-59.0-0.0,"""event"",""trial"",""time""
""fullscreenenter"",""1"",""6433""
","
","
","""event"",""trial"",""time""
""fullscreenenter"",""1"",""6433""
","
",,,,,,,,,,,,"[{""stimulus"":""run_exp/static/images/task_images/rocket-01.jpg"",""time"":0.30000000447034836},{""stimulus"":""run_exp/static/images/task_images/rocket-02.jpg"",""time"":1078.5},{""stimulus"":""run_exp/static/images/task_images/rocket-03.jpg"",""time"":2150.2000000029802},{""stimulus"":""run_exp/static/images/task_images/rocket-04.jpg"",""time"":3222.5},{""stimulus"":""run_exp/static/images/task_images/rocket-05.jpg"",""time"":4294.4000000059605},{""stimulus"":""run_exp/static/images/task_images/rocket-06.jpg"",""time"":5366.30000000447},{""stimulus"":""run_exp/static/images/task_images/rocket-07.jpg"",""time"":6438.80000000447},{""stimulus"":""run_exp/static/images/task_images/rocket-08.jpg"",""time"":7510.20000000298},{""stimulus"":""run_exp/static/images/task_images/rocket-09.jpg"",""time"":8582}]",[],9,,,,,,,,,,,,,,
alien_welcome,198,636029,0.0-59.0-1.0,"""event"",""trial"",""time""
""fullscreenenter"",""1"",""6433""
","
","
","""event"",""trial"",""time""
""fullscreenenter"",""1"",""6433""
","
",,null,run_exp/static/images/task_images/aliens/old_aliens/planet/alien_planet-74.jpg,null,,,,,,,,,,,,,74,"58,24,39,36,15,25,23,60,35,74,10,67,56,7,6,41,63,19,78,57,47,2,75,62,44,49,69,32,43,65,8,26,46,9,45,12,33,18,16,17,54,53,42,79,5",,,,,,,,,,
land,199,636532,0.0-59.0-2.0,"""event"",""trial"",""time""
""fullscreenenter"",""1"",""6433""
","
","
","""event"",""trial"",""time""
""fullscreenenter"",""1"",""6433""
","
",,null,run_exp/static/images/task_images/land.jpg,null,,,,,,,100,,,10,,,,,,,,,,,,,,
dig,200,638541,0.0-59.0-3.0,"""event"",""trial"",""time""
""fullscreenenter"",""1"",""6433""
","
","
","""event"",""trial"",""time""
""fullscreenenter"",""1"",""6433""
","
",,,,,,,,,,,,"[{""stimulus"":""run_exp/static/images/task_images/dig.jpg"",""time"":0.29999999701976776},{""stimulus"":""run_exp/static/images/task_images/land.jpg"",""time"":670.5},{""stimulus"":""run_exp/static/images/task_images/dig.jpg"",""time"":1342.6000000014901}]",[],10,,,,,,,,,,,,,,
harvest,201,639544,0.0-59.0-4.0,"""event"",""trial"",""time""
""fullscreenenter"",""1"",""6433""
","
","
","""event"",""trial"",""time""
""fullscreenenter"",""1"",""6433""
","
",,null,run_exp/static/images/task_images/gems/100.jpg,null,,,,,,,19,,,10,,,,,100,0.185524141,0.19,,,,,,,
decision,202,640234,0.0-59.0-5.0,"""event"",""trial"",""time""
""fullscreenenter"",""1"",""6433""
","
","
","""event"",""trial"",""time""
""fullscreenenter"",""1"",""6433""
","
",,688.6,run_exp/static/images/task_images/land.jpg,65,,,,,,,19,,,10,,,,,,,,284468,1,0,FALSE,,,
dig,203,642556,0.0-60.0-0.0,"""event"",""trial"",""time""
""fullscreenenter"",""1"",""6433""
","
","
","""event"",""trial"",""time""
""fullscreenenter"",""1"",""6433""
","
",,,,,,,,,,,,"[{""stimulus"":""run_exp/static/images/task_images/dig.jpg"",""time"":0.19999999552965164},{""stimulus"":""run_exp/static/images/task_images/land.jpg"",""time"":774.2999999970198},{""stimulus"":""run_exp/static/images/task_images/dig.jpg"",""time"":1542.6999999955297}]",[],10,,,,,,,,,,,,,,
harvest,204,643564,0.0-60.0-1.0,"""event"",""trial"",""time""
""fullscreenenter"",""1"",""6433""
","
","
","""event"",""trial"",""time""
""fullscreenenter"",""1"",""6433""
","
",,null,run_exp/static/images/task_images/gems/19.jpg,null,,,,,,,4,,,10,,,,,19,0.228152843,0.210526316,,,,,,,
decision,205,644298,0.0-60.0-2.0,"""event"",""trial"",""time""
""fullscreenenter"",""1"",""6433""
","
","
","""event"",""trial"",""time""
""fullscreenenter"",""1"",""6433""
","
",,732,run_exp/static/images/task_images/land.jpg,76,,,,,,,4,,,10,,,,,,,,288532,1,1,TRUE,,,
travel,206,653572,0.0-61.0-0.0,"""event"",""trial"",""time""
""fullscreenenter"",""1"",""6433""
","
","
","""event"",""trial"",""time""
""fullscreenenter"",""1"",""6433""
","
",,,,,,,,,,,,"[{""stimulus"":""run_exp/static/images/task_images/rocket-01.jpg"",""time"":0.19999999552965164},{""stimulus"":""run_exp/static/images/task_images/rocket-02.jpg"",""time"":1037.7999999970198},{""stimulus"":""run_exp/static/images/task_images/rocket-03.jpg"",""time"":2061.39999999851},{""stimulus"":""run_exp/static/images/task_images/rocket-04.jpg"",""time"":3093.39999999851},{""stimulus"":""run_exp/static/images/task_images/rocket-05.jpg"",""time"":4125.5},{""stimulus"":""run_exp/static/images/task_images/rocket-06.jpg"",""time"":5149.5999999940395},{""stimulus"":""run_exp/static/images/task_images/rocket-07.jpg"",""time"":6182.69999999553},{""stimulus"":""run_exp/static/images/task_images/rocket-08.jpg"",""time"":7205.19999999553},{""stimulus"":""run_exp/static/images/task_images/rocket-09.jpg"",""time"":8237.59999999404}]",[],10,,,,,,,,,,,,,,
alien_welcome,207,658582,0.0-61.0-1.0,"""event"",""trial"",""time""
""fullscreenenter"",""1"",""6433""
","
","
","""event"",""trial"",""time""
""fullscreenenter"",""1"",""6433""
","
",,null,run_exp/static/images/task_images/aliens/old_aliens/planet/alien_planet-10.jpg,null,,,,,,,,,,,,,10,"58,24,39,36,15,25,23,60,35,74,10,67,56,7,6,41,63,19,78,57,47,2,75,62,44,49,69,32,43,65,8,26,46,9,45,12,33,18,16,17,54,53,42,79,5",,,,,,,,,,
land,208,659084,0.0-61.0-2.0,"""event"",""trial"",""time""
""fullscreenenter"",""1"",""6433""
","
","
","""event"",""trial"",""time""
""fullscreenenter"",""1"",""6433""
","
",,null,run_exp/static/images/task_images/land.jpg,null,,,,,,,105,,,11,,,,,,,,,,,,,,
dig,209,661092,0.0-61.0-3.0,"""event"",""trial"",""time""
""fullscreenenter"",""1"",""6433""
","
","
","""event"",""trial"",""time""
""fullscreenenter"",""1"",""6433""
","
",,,,,,,,,,,,"[{""stimulus"":""run_exp/static/images/task_images/dig.jpg"",""time"":0.4000000059604645},{""stimulus"":""run_exp/static/images/task_images/land.jpg"",""time"":670.8000000044703},{""stimulus"":""run_exp/static/images/task_images/dig.jpg"",""time"":1342.9000000059605}]",[],11,,,,,,,,,,,,,,
harvest,210,662100,0.0-61.0-4.0,"""event"",""trial"",""time""
""fullscreenenter"",""1"",""6433""
","
","
","""event"",""trial"",""time""
""fullscreenenter"",""1"",""6433""
","
",,null,run_exp/static/images/task_images/gems/105.jpg,null,,,,,,,24,,,11,,,,,105,0.227329063,0.228571429,,,,,,,
decision,211,662712,0.0-61.0-5.0,"""event"",""trial"",""time""
""fullscreenenter"",""1"",""6433""
","
","
","""event"",""trial"",""time""
""fullscreenenter"",""1"",""6433""
","
",,610.7,run_exp/static/images/task_images/land.jpg,65,,,,,,,24,,,11,,,,,,,,306946,1,0,TRUE,,,
end_of_block_continue,212,671765,0.0-62.0-0.0,"""event"",""trial"",""time""
""fullscreenenter"",""1"",""6433""
","
","
","""event"",""trial"",""time""
""fullscreenenter"",""1"",""6433""
","
",,null,run_exp/static/audio/clip_32_block_end.m4a,,,,,,,null,,,,,,,,,,,,,,,,,,
alien_welcome,213,676773,0.0-63.0-0.0,"""event"",""trial"",""time""
""fullscreenenter"",""1"",""6433""
","
","
","""event"",""trial"",""time""
""fullscreenenter"",""1"",""6433""
","
",,null,run_exp/static/images/task_images/aliens/old_aliens/planet/alien_planet-67.jpg,null,,,,,,,,,,,,,67,"58,24,39,36,15,25,23,60,35,74,10,67,56,7,6,41,63,19,78,57,47,2,75,62,44,49,69,32,43,65,8,26,46,9,45,12,33,18,16,17,54,53,42,79,5",,,,,,,,,,
land,214,677277,0.0-63.0-1.0,"""event"",""trial"",""time""
""fullscreenenter"",""1"",""6433""
","
","
","""event"",""trial"",""time""
""fullscreenenter"",""1"",""6433""
","
",,null,run_exp/static/images/task_images/land.jpg,null,,,,,,,97,,,12,,,,,,,,,,,,,,
dig,215,679284,0.0-63.0-2.0,"""event"",""trial"",""time""
""fullscreenenter"",""1"",""6433""
","
","
","""event"",""trial"",""time""
""fullscreenenter"",""1"",""6433""
","
",,,,,,,,,,,,"[{""stimulus"":""run_exp/static/images/task_images/dig.jpg"",""time"":0.3999999985098839},{""stimulus"":""run_exp/static/images/task_images/land.jpg"",""time"":670.5},{""stimulus"":""run_exp/static/images/task_images/dig.jpg"",""time"":1342}]",[],12,,,,,,,,,,,,,,
harvest,216,680292,0.0-63.0-3.0,"""event"",""trial"",""time""
""fullscreenenter"",""1"",""6433""
","
","
","""event"",""trial"",""time""
""fullscreenenter"",""1"",""6433""
","
",,null,run_exp/static/images/task_images/gems/97.jpg,null,,,,,,,23,,,12,,,,,97,0.241527151,0.237113402,,,,,,,
decision,217,680727,0.0-63.0-4.0,"""event"",""trial"",""time""
""fullscreenenter"",""1"",""6433""
","
","
","""event"",""trial"",""time""
""fullscreenenter"",""1"",""6433""
","
",,433.4,run_exp/static/images/task_images/land.jpg,65,,,,,,,23,,,12,,,,,,,,8957,2,0,FALSE,,,
dig,218,683300,0.0-64.0-0.0,"""event"",""trial"",""time""
""fullscreenenter"",""1"",""6433""
","
","
","""event"",""trial"",""time""
""fullscreenenter"",""1"",""6433""
","
",,,,,,,,,,,,"[{""stimulus"":""run_exp/static/images/task_images/dig.jpg"",""time"":0.30000000447034836},{""stimulus"":""run_exp/static/images/task_images/land.jpg"",""time"":857},{""stimulus"":""run_exp/static/images/task_images/dig.jpg"",""time"":1712.6000000014901}]",[],12,,,,,,,,,,,,,,
harvest,219,684308,0.0-64.0-1.0,"""event"",""trial"",""time""
""fullscreenenter"",""1"",""6433""
","
","
","""event"",""trial"",""time""
""fullscreenenter"",""1"",""6433""
","
",,null,run_exp/static/images/task_images/gems/23.jpg,null,,,,,,,5,,,12,,,,,23,0.203903254,0.217391304,,,,,,,
decision,220,684459,0.0-64.0-2.0,"""event"",""trial"",""time""
""fullscreenenter"",""1"",""6433""
","
","
","""event"",""trial"",""time""
""fullscreenenter"",""1"",""6433""
","
",,150.1,run_exp/static/images/task_images/land.jpg,76,,,,,,,5,,,12,,,,,,,,12690,2,1,TRUE,,,
travel,221,694316,0.0-65.0-0.0,"""event"",""trial"",""time""
""fullscreenenter"",""1"",""6433""
","
","
","""event"",""trial"",""time""
""fullscreenenter"",""1"",""6433""
","
",,,,,,,,,,,,"[{""stimulus"":""run_exp/static/images/task_images/rocket-01.jpg"",""time"":0.30000000447034836},{""stimulus"":""run_exp/static/images/task_images/rocket-02.jpg"",""time"":1100.5},{""stimulus"":""run_exp/static/images/task_images/rocket-03.jpg"",""time"":2196.8000000044703},{""stimulus"":""run_exp/static/images/task_images/rocket-04.jpg"",""time"":3284.89999999851},{""stimulus"":""run_exp/static/images/task_images/rocket-05.jpg"",""time"":4381.89999999851},{""stimulus"":""run_exp/static/images/task_images/rocket-06.jpg"",""time"":5476.5},{""stimulus"":""run_exp/static/images/task_images/rocket-07.jpg"",""time"":6572.80000000447},{""stimulus"":""run_exp/static/images/task_images/rocket-08.jpg"",""time"":7660.60000000149},{""stimulus"":""run_exp/static/images/task_images/rocket-09.jpg"",""time"":8756.70000000298}]",[],12,,,,,,,,,,,,,,
alien_welcome,222,699324,0.0-65.0-1.0,"""event"",""trial"",""time""
""fullscreenenter"",""1"",""6433""
","
","
","""event"",""trial"",""time""
""fullscreenenter"",""1"",""6433""
","
",,null,run_exp/static/images/task_images/aliens/old_aliens/planet/alien_planet-56.jpg,null,,,,,,,,,,,,,56,"58,24,39,36,15,25,23,60,35,74,10,67,56,7,6,41,63,19,78,57,47,2,75,62,44,49,69,32,43,65,8,26,46,9,45,12,33,18,16,17,54,53,42,79,5",,,,,,,,,,
land,223,699828,0.0-65.0-2.0,"""event"",""trial"",""time""
""fullscreenenter"",""1"",""6433""
","
","
","""event"",""trial"",""time""
""fullscreenenter"",""1"",""6433""
","
",,null,run_exp/static/images/task_images/land.jpg,null,,,,,,,101,,,13,,,,,,,,,,,,,,
dig,224,701836,0.0-65.0-3.0,"""event"",""trial"",""time""
""fullscreenenter"",""1"",""6433""
","
","
","""event"",""trial"",""time""
""fullscreenenter"",""1"",""6433""
","
",,,,,,,,,,,,"[{""stimulus"":""run_exp/static/images/task_images/dig.jpg"",""time"":0.3999999985098839},{""stimulus"":""run_exp/static/images/task_images/land.jpg"",""time"":670.8000000044703},{""stimulus"":""run_exp/static/images/task_images/dig.jpg"",""time"":1342.6000000014901}]",[],13,,,,,,,,,,,,,,
harvest,225,702844,0.0-65.0-4.0,"""event"",""trial"",""time""
""fullscreenenter"",""1"",""6433""
","
","
","""event"",""trial"",""time""
""fullscreenenter"",""1"",""6433""
","
",,null,run_exp/static/images/task_images/gems/101.jpg,null,,,,,,,20,,,13,,,,,101,0.20223654,0.198019802,,,,,,,
decision,226,702959,0.0-65.0-5.0,"""event"",""trial"",""time""
""fullscreenenter"",""1"",""6433""
","
","
","""event"",""trial"",""time""
""fullscreenenter"",""1"",""6433""
","
",,111.3,run_exp/static/images/task_images/land.jpg,65,,,,,,,20,,,13,,,,,,,,31189,2,0,FALSE,,,
dig,227,705852,0.0-66.0-0.0,"""event"",""trial"",""time""
""fullscreenenter"",""1"",""6433""
","
","
","""event"",""trial"",""time""
""fullscreenenter"",""1"",""6433""
","
",,,,,,,,,,,,"[{""stimulus"":""run_exp/static/images/task_images/dig.jpg"",""time"":0.20000000298023224},{""stimulus"":""run_exp/static/images/task_images/land.jpg"",""time"":968.6000000014901},{""stimulus"":""run_exp/static/images/task_images/dig.jpg"",""time"":1928.4000000059605}]",[],13,,,,,,,,,,,,,,
harvest,228,706860,0.0-66.0-1.0,"""event"",""trial"",""time""
""fullscreenenter"",""1"",""6433""
","
","
","""event"",""trial"",""time""
""fullscreenenter"",""1"",""6433""
","
",,null,run_exp/static/images/task_images/gems/20.jpg,null,,,,,,,5,,,13,,,,,20,0.23306185,0.25,,,,,,,
decision,229,707163,0.0-66.0-2.0,"""event"",""trial"",""time""
""fullscreenenter"",""1"",""6433""
","
","
","""event"",""trial"",""time""
""fullscreenenter"",""1"",""6433""
","
",,301.2,run_exp/static/images/task_images/land.jpg,76,,,,,,,5,,,13,,,,,,,,35394,2,1,TRUE,,,
travel,230,716868,0.0-67.0-0.0,"""event"",""trial"",""time""
""fullscreenenter"",""1"",""6433""
","
","
","""event"",""trial"",""time""
""fullscreenenter"",""1"",""6433""
","
",,,,,,,,,,,,"[{""stimulus"":""run_exp/static/images/task_images/rocket-01.jpg"",""time"":0.20000000298023224},{""stimulus"":""run_exp/static/images/task_images/rocket-02.jpg"",""time"":1085.1000000014901},{""stimulus"":""run_exp/static/images/task_images/rocket-03.jpg"",""time"":2157},{""stimulus"":""run_exp/static/images/task_images/rocket-04.jpg"",""time"":3237.7000000029802},{""stimulus"":""run_exp/static/images/task_images/rocket-05.jpg"",""time"":4316.5},{""stimulus"":""run_exp/static/images/task_images/rocket-06.jpg"",""time"":5388.39999999851},{""stimulus"":""run_exp/static/images/task_images/rocket-07.jpg"",""time"":6468.80000000447},{""stimulus"":""run_exp/static/images/task_images/rocket-08.jpg"",""time"":7540.5},{""stimulus"":""run_exp/static/images/task_images/rocket-09.jpg"",""time"":8620.89999999851}]",[],13,,,,,,,,,,,,,,
alien_welcome,231,721876,0.0-67.0-1.0,"""event"",""trial"",""time""
""fullscreenenter"",""1"",""6433""
","
","
","""event"",""trial"",""time""
""fullscreenenter"",""1"",""6433""
","
",,null,run_exp/static/images/task_images/aliens/old_aliens/planet/alien_planet-7.jpg,null,,,,,,,,,,,,,7,"58,24,39,36,15,25,23,60,35,74,10,67,56,7,6,41,63,19,78,57,47,2,75,62,44,49,69,32,43,65,8,26,46,9,45,12,33,18,16,17,54,53,42,79,5",,,,,,,,,,
land,232,722380,0.0-67.0-2.0,"""event"",""trial"",""time""
""fullscreenenter"",""1"",""6433""
","
","
","""event"",""trial"",""time""
""fullscreenenter"",""1"",""6433""
","
",,null,run_exp/static/images/task_images/land.jpg,null,,,,,,,97,,,14,,,,,,,,,,,,,,
dig,233,724388,0.0-67.0-3.0,"""event"",""trial"",""time""
""fullscreenenter"",""1"",""6433""
","
","
","""event"",""trial"",""time""
""fullscreenenter"",""1"",""6433""
","
",,,,,,,,,,,,"[{""stimulus"":""run_exp/static/images/task_images/dig.jpg"",""time"":0.29999999701976776},{""stimulus"":""run_exp/static/images/task_images/land.jpg"",""time"":670.6000000014901},{""stimulus"":""run_exp/static/images/task_images/dig.jpg"",""time"":1336.2999999970198}]",[],14,,,,,,,,,,,,,,
harvest,234,725396,0.0-67.0-4.0,"""event"",""trial"",""time""
""fullscreenenter"",""1"",""6433""
","
","
","""event"",""trial"",""time""
""fullscreenenter"",""1"",""6433""
","
",,null,run_exp/static/images/task_images/gems/97.jpg,null,,,,,,,15,,,14,,,,,97,0.157556407,0.154639175,,,,,,,
decision,235,726006,0.0-67.0-5.0,"""event"",""trial"",""time""
""fullscreenenter"",""1"",""6433""
","
","
","""event"",""trial"",""time""
""fullscreenenter"",""1"",""6433""
","
",,608.5,run_exp/static/images/task_images/land.jpg,65,,,,,,,15,,,14,,,,,,,,54236,2,0,FALSE,,,
dig,236,728406,0.0-68.0-0.0,"""event"",""trial"",""time""
""fullscreenenter"",""1"",""6433""
","
","
","""event"",""trial"",""time""
""fullscreenenter"",""1"",""6433""
","
",,,,,,,,,,,,"[{""stimulus"":""run_exp/static/images/task_images/dig.jpg"",""time"":1.7000000029802322},{""stimulus"":""run_exp/static/images/task_images/land.jpg"",""time"":801.7999999970198},{""stimulus"":""run_exp/static/images/task_images/dig.jpg"",""time"":1601.7999999970198}]",[],14,,,,,,,,,,,,,,
harvest,237,729408,0.0-68.0-1.0,"""event"",""trial"",""time""
""fullscreenenter"",""1"",""6433""
","
","
","""event"",""trial"",""time""
""fullscreenenter"",""1"",""6433""
","
",,null,run_exp/static/images/task_images/gems/15.jpg,null,,,,,,,3,,,14,,,,,15,0.191066555,0.2,,,,,,,
decision,238,729572,0.0-68.0-2.0,"""event"",""trial"",""time""
""fullscreenenter"",""1"",""6433""
","
","
","""event"",""trial"",""time""
""fullscreenenter"",""1"",""6433""
","
",,163.2,run_exp/static/images/task_images/land.jpg,76,,,,,,,3,,,14,,,,,,,,57803,2,1,TRUE,,,
travel,239,739412,0.0-69.0-0.0,"""event"",""trial"",""time""
""fullscreenenter"",""1"",""6433""
","
","
","""event"",""trial"",""time""
""fullscreenenter"",""1"",""6433""
","
