trial_type,trial_index,time_elapsed,internal_node_id,success,rt,stimulus,key_press,prompt,subject_id,age,gender,button_pressed,next_reward,animation_sequence,responses,planet,curr_prac_trial,n_prac_rounds,alien,aliens,reward_received,decay_rate_actual,decay_rate_exp,time_in_block,block_num,prt,last_trial_on_planet,button_html,bonus,num_failures
pavlovia,0,11,0.0-0.0,,,,,,,,,,,,,,,,,,,,,,,,,,,
fullscreen,1,16512,0.0-1.0,TRUE,,,,,,,,,,,,,,,,,,,,,,,,,,
instruc_welcome,2,26416,0.0-2.0,,null,run_exp/static/audio/clip_1_welcome.m4a,null,"<p>Howdy! In this experiment, you’ll be an explorer traveling through space to collect space treasure.</p><p>Your mission is to collect as much treasure as possible.</p><br><br><p><img src='run_exp/static/images/task_images/opening_img-01.jpg' height='300' width='auto'></p>",wqSjg1QvkTNJSw4_1Y3uCvx5VSxv8Zo_MLRP_cUUbqvWsoyjeeP4,16.52,male,,,,,,,,,,,,,,,,,,,
audio-keyboard-response,3,43433,0.0-3.0,,null,run_exp/static/audio/clip_2_move.m4a,null,,,,,,,,,,,,,,,,,,,,,,,
welcome_dec,4,44106,0.0-4.0,,663.7,"<p>Howdy! In this experiment, you’ll be an explorer traveling through space to collect space treasure.</p><p>Your mission is to collect as much treasure as possible.</p><br><br><p><img src='run_exp/static/images/task_images/opening_img-01.jpg' height='300' width='auto'></p>",,,,,,1,,,,,,,,,,,,,,,,,,
html-keyboard-response,5,44677,0.0-5.0,,561.9,"<p>Howdy! In this experiment, you’ll be an explorer traveling through space to collect space treasure.</p><p>Your mission is to collect as much treasure as possible.</p><br><br><p><img src='run_exp/static/images/task_images/opening_img-01.jpg' height='300' width='auto'></p><button class=""jspsych-html-btn-unchosen""><img src=""run_exp/static/images/task_images/planet-01.jpg"" height=""50""></button><button class=""jspsych-html-btn-chosen""><img src=""run_exp/static/images/task_images/planet-02.jpg"" height=""50""></button><p><b>[press the space bar to lock in your answer]<b><br></p>",32,,,,,,,,,,,,,,,,,,,,,,,
instruc_goal,6,55086,0.0-6.0-0.0,,null,run_exp/static/audio/clip_3_goal.m4a,null,"<p> As a space explorer, you’ll visit different planets to dig for space treasure, these pink gems.</p> <p> The more treasure you dig up, the more bonus money you’ll win! </p><br><br><p><img src='run_exp/static/images/task_images/pink_gem.jpg' height='300' width='auto'></p>",,,,,,,,,,,,,,,,,,,,,,
instruc_goal,7,56846,0.0-6.0-1.0,,1753.3,"<p> As a space explorer, you’ll visit different planets to dig for space treasure, these pink gems.</p> <p> The more treasure you dig up, the more bonus money you’ll win! </p><br><br><p><img src='run_exp/static/images/task_images/pink_gem.jpg' height='300' width='auto'></p>",,,,,,1,,,,,,,,,,,,,,,,,,
html-keyboard-response,8,57290,0.0-6.0-2.0,,438.2,"<p> As a space explorer, you’ll visit different planets to dig for space treasure, these pink gems.</p> <p> The more treasure you dig up, the more bonus money you’ll win! </p><br><br><p><img src='run_exp/static/images/task_images/pink_gem.jpg' height='300' width='auto'></p><button class=""jspsych-html-btn-unchosen""><img src=""run_exp/static/images/task_images/planet-01.jpg"" height=""50""></button><button class=""jspsych-html-btn-chosen""><img src=""run_exp/static/images/task_images/planet-02.jpg"" height=""50""></button><p><b>[press the space bar to lock in your answer]<b><br></p>",32,,,,,,,,,,,,,,,,,,,,,,,
instruc_dig,9,73656,0.0-7.0-0.0,,null,run_exp/static/audio/clip_4_dig.m4a,null,,,,,,100,,,,,,,,,,,,,,,,,
instruc_dig_try,10,73700,0.0-7.0-1.0,,40.9,"<p> When you’ve arrived at a new planet, you will dig once. </p> <p>Then, you get to decide if you want to stay on the planet and dig again or travel to a new planet and dig there.</p> <p> To stay and dig, press the letter <strong>‘A’</strong> on your keyboard. Try pressing it now! </p><p><img src='run_exp/static/images/task_images/land.jpg'  height='700' width='auto'></p>",65,"<p> When you’ve arrived at a new planet, you will dig once. </p> <p>Then, you get to decide if you want to stay on the planet and dig again or travel to a new planet and dig there.</p> <p> To stay and dig, press the letter <strong>‘A’</strong> on your keyboard. Try pressing it now! </p><p><img src='run_exp/static/images/task_images/land.jpg'  height='700' width='auto'></p>",,,,,100,,,,,,,,,,,,,,,,,
dig_prac,11,75719,0.0-7.0-2.0,,,,,,,,,,,"[{""stimulus"":""run_exp/static/images/task_images/dig.jpg"",""time"":1},{""stimulus"":""run_exp/static/images/task_images/land.jpg"",""time"":670.3000000000175},{""stimulus"":""run_exp/static/images/task_images/dig.jpg"",""time"":1656.1000000000058}]",[],,,,,,,,,,,,,,,
instruc_travel,12,112343,0.0-7.0-3.0,,null,run_exp/static/audio/clip_5_travel.m4a,null,"<p>Every time you dig up gems, there are less gems on the planet, so the more you dig on a planet the fewer gems you’ll get with each dig.</p><p>When gems are running low, you may want to travel to a new planet. </p> <p>  Planets are very far apart in this galaxy, so it will take some time to travel between them. </p> <br><p>There are lots and lots of planets for you to visit, so you won’t be able to return to any planets you’ve seen before. </p><br><p>To leave this planet and travel to a new one, press the letter <strong>‘L’</strong> on your keyboard. Try pressing it now! </p><p><img src='run_exp/static/images/task_images/rocket-01.jpg'  height='600' width='auto'></p>",,,,,,,,,,,,,,,,,,,,,,
instruc_travel_try,13,112930,0.0-7.0-4.0,,573.8,"<p>Every time you dig up gems, there are less gems on the planet, so the more you dig on a planet the fewer gems you’ll get with each dig.</p><p>When gems are running low, you may want to travel to a new planet. </p> <p>  Planets are very far apart in this galaxy, so it will take some time to travel between them. </p> <br><p>There are lots and lots of planets for you to visit, so you won’t be able to return to any planets you’ve seen before. </p><br><p>To leave this planet and travel to a new one, press the letter <strong>‘L’</strong> on your keyboard. Try pressing it now! </p><p><img src='run_exp/static/images/task_images/rocket-01.jpg'  height='600' width='auto'></p>",76,"<p>Every time you dig up gems, there are less gems on the planet, so the more you dig on a planet the fewer gems you’ll get with each dig.</p><p>When gems are running low, you may want to travel to a new planet. </p> <p>  Planets are very far apart in this galaxy, so it will take some time to travel between them. </p> <br><p>There are lots and lots of planets for you to visit, so you won’t be able to return to any planets you’ve seen before. </p><br><p>To leave this planet and travel to a new one, press the letter <strong>‘L’</strong> on your keyboard. Try pressing it now! </p><p><img src='run_exp/static/images/task_images/rocket-01.jpg'  height='600' width='auto'></p>",,,,,,,,,,,,,,,,,,,,,,
travel_prac,14,122937,0.0-7.0-5.0,,,,,,,,,,,"[{""stimulus"":""run_exp/static/images/task_images/rocket-01.jpg"",""time"":1.1000000000349246},{""stimulus"":""run_exp/static/images/task_images/rocket-02.jpg"",""time"":1116.100000000035},{""stimulus"":""run_exp/static/images/task_images/rocket-03.jpg"",""time"":2226.4000000000233},{""stimulus"":""run_exp/static/images/task_images/rocket-04.jpg"",""time"":3338},{""stimulus"":""run_exp/static/images/task_images/rocket-05.jpg"",""time"":4448.900000000023},{""stimulus"":""run_exp/static/images/task_images/rocket-06.jpg"",""time"":5567.100000000035},{""stimulus"":""run_exp/static/images/task_images/rocket-07.jpg"",""time"":6671},{""stimulus"":""run_exp/static/images/task_images/rocket-08.jpg"",""time"":7781.600000000035},{""stimulus"":""run_exp/static/images/task_images/rocket-09.jpg"",""time"":8893}]",[],0,,,,,,,,,,,,,,
instruc_alien_greet,15,150461,0.0-7.0-6.0,,null,run_exp/static/audio/clip_6_alien.m4a,null,"<p>When you arrive at a new planet, the alien who owns the treasure mine on that planet will greet you!</p><p>The better an alien takes care of their mine the easier it is to dig for gems. Some aliens take better care of their mine than others. So, you won’t get exactly the same amount of gems on each planet.</p><p>What the alien looks like does not tell you anything about how many gems there are on the planet.</p><br><p><img src=""run_exp/static/images/task_images/aliens/instructions_aliens/planet/alien_planet-1.jpg""  height=""600"" width=""auto""></p>",,,,,,,,,,,,,,,,,,,,,,
instruc_alien_greet,16,156497,0.0-7.0-7.0,,6018.9,"<p>When you arrive at a new planet, the alien who owns the treasure mine on that planet will greet you!</p><p>The better an alien takes care of their mine the easier it is to dig for gems. Some aliens take better care of their mine than others. So, you won’t get exactly the same amount of gems on each planet.</p><p>What the alien looks like does not tell you anything about how many gems there are on the planet.</p><br><p><img src=""run_exp/static/images/task_images/aliens/instructions_aliens/planet/alien_planet-1.jpg""  height=""600"" width=""auto""></p>",,,,,,1,,,,,,,,,,,,,,,,,,
html-keyboard-response,17,158109,0.0-7.0-8.0,,1603.5,"<p>When you arrive at a new planet, the alien who owns the treasure mine on that planet will greet you!</p><p>The better an alien takes care of their mine the easier it is to dig for gems. Some aliens take better care of their mine than others. So, you won’t get exactly the same amount of gems on each planet.</p><p>What the alien looks like does not tell you anything about how many gems there are on the planet.</p><br><p><img src=""run_exp/static/images/task_images/aliens/instructions_aliens/planet/alien_planet-1.jpg""  height=""600"" width=""auto""></p><button class=""jspsych-html-btn-unchosen""><img src=""run_exp/static/images/task_images/planet-01.jpg"" height=""50""></button><button class=""jspsych-html-btn-chosen""><img src=""run_exp/static/images/task_images/planet-02.jpg"" height=""50""></button><p><b>[press the space bar to lock in your answer]<b><br></p>",32,,,,,,,,,,,,,,,,,,,,,,,
time_out,18,169543,0.0-8.0-0.0,,null,run_exp/static/audio/clip_7_timeout.m4a,null,"<p>If you don't make your choice fast enough, you’ll have to wait a few seconds before you can make another one.</p><p>You can’t dig for more gems or travel to new planets. You just have to sit and wait.</p><br><p><img src='run_exp/static/images/task_images/time_out.jpg'  height='600' width='auto'></p>",,,,,,,,,,,,,,,,,,,,,,
time_out,19,172822,0.0-8.0-1.0,,3267.7,"<p>If you don't make your choice fast enough, you’ll have to wait a few seconds before you can make another one.</p><p>You can’t dig for more gems or travel to new planets. You just have to sit and wait.</p><br><p><img src='run_exp/static/images/task_images/time_out.jpg'  height='600' width='auto'></p>",,,,,,1,,,,,,,,,,,,,,,,,,
html-keyboard-response,20,176645,0.0-8.0-2.0,,3815,"<p>If you don't make your choice fast enough, you’ll have to wait a few seconds before you can make another one.</p><p>You can’t dig for more gems or travel to new planets. You just have to sit and wait.</p><br><p><img src='run_exp/static/images/task_images/time_out.jpg'  height='600' width='auto'></p><button class=""jspsych-html-btn-unchosen""><img src=""run_exp/static/images/task_images/planet-01.jpg"" height=""50""></button><button class=""jspsych-html-btn-chosen""><img src=""run_exp/static/images/task_images/planet-02.jpg"" height=""50""></button><p><b>[press the space bar to lock in your answer]<b><br></p>",32,,,,,,,,,,,,,,,,,,,,,,,
instruc_break,21,192592,0.0-9.0-0.0,,null,run_exp/static/audio/clip_8_break.m4a,null,"<p> After digging and traveling for a while, you’ll be able to take a break at home base. </p><p>The game will last 20 minutes no matter what.</p><p>You will visit home base every 5 minutes, so, you will visit home base three times during the game.</p><br><p><img src='run_exp/static/images/task_images/home_base.jpg' height='600' width='auto'></p>",,,,,,,,,,,,,,,,,,,,,,
instruc_break,22,198816,0.0-9.0-1.0,,6212.7,"<p> After digging and traveling for a while, you’ll be able to take a break at home base. </p><p>The game will last 20 minutes no matter what.</p><p>You will visit home base every 5 minutes, so, you will visit home base three times during the game.</p><br><p><img src='run_exp/static/images/task_images/home_base.jpg' height='600' width='auto'></p>",,,,,,1,,,,,,,,,,,,,,,,,,
html-keyboard-response,23,201696,0.0-9.0-2.0,,2870.9,"<p> After digging and traveling for a while, you’ll be able to take a break at home base. </p><p>The game will last 20 minutes no matter what.</p><p>You will visit home base every 5 minutes, so, you will visit home base three times during the game.</p><br><p><img src='run_exp/static/images/task_images/home_base.jpg' height='600' width='auto'></p><button class=""jspsych-html-btn-unchosen""><img src=""run_exp/static/images/task_images/planet-01.jpg"" height=""50""></button><button class=""jspsych-html-btn-chosen""><img src=""run_exp/static/images/task_images/planet-02.jpg"" height=""50""></button><p><b>[press the space bar to lock in your answer]<b><br></p>",32,,,,,,,,,,,,,,,,,,,,,,,
instruc_prac_game,24,212194,0.0-10.0-0.0,,null,run_exp/static/audio/clip_9_practice.m4a,null,"<p> Are you ready to play a practice game? </p> <p>In this practice game, you'll be digging up barrels of gems. But, in the real game, you'll be digging up the gems themselves. </p>",,,,,,,,,,,,,,,,,,,,,,
html-button-response,25,214084,0.0-10.0-1.0,,1883.5,"<p> Are you ready to play a practice game? </p> <p>In this practice game, you'll be digging up barrels of gems. But, in the real game, you'll be digging up the gems themselves. </p>",,,,,,0,,,,,,,,,,,,,,,,,,
alien_welcome_prac,26,219107,0.0-11.0-0.0,,null,run_exp/static/images/task_images/aliens/practice_aliens/planet/alien_planet-5.jpg,null,,,,,,,,,,,,,,,,,,,,,,,
land_prac,27,219614,0.0-11.0-1.0,,null,run_exp/static/images/task_images/land.jpg,null,,,,,,99,,,0,,,,,,,,,,,,,,
dig_prac,28,221628,0.0-11.0-2.0,,,,,,,,,,,"[{""stimulus"":""run_exp/static/images/task_images/dig.jpg"",""time"":1.3999999999650754},{""stimulus"":""run_exp/static/images/task_images/land.jpg"",""time"":673.0999999999767},{""stimulus"":""run_exp/static/images/task_images/dig.jpg"",""time"":1340.1999999999534}]",[],,,,,,,,,,,,,,,
harvest_prac,29,222634,0.0-11.0-3.0,,null,run_exp/static/images/task_images/barrel_text.jpg,null,,,,,,,,,,,,,,,,,,,,,,,
decision_prac,30,225639,0.0-11.0-4.0,,null,run_exp/static/images/task_images/land.jpg,null,,,,,,,,,,1,,,,,,,,,,,,,
time_out,31,227659,0.0-12.0-0.0,,null,run_exp/static/images/task_images/time_out.jpg,null,,,,,,,,,,,,,,,,,,,,,,,
decision_prac,32,228059,0.0-12.0-1.0,,392.1,run_exp/static/images/task_images/land.jpg,65,,,,,,,,,,2,,,,,,,,,,,,,
dig_prac,33,230077,0.0-13.0-0.0,,,,,,,,,,,"[{""stimulus"":""run_exp/static/images/task_images/dig.jpg"",""time"":1},{""stimulus"":""run_exp/static/images/task_images/land.jpg"",""time"":672.9000000000233},{""stimulus"":""run_exp/static/images/task_images/dig.jpg"",""time"":1339.100000000035}]",[],,,,,,,,,,,,,,,
harvest_prac,34,231082,0.0-13.0-1.0,,null,run_exp/static/images/task_images/barrel_text.jpg,null,,,,,,,,,,,,,,,,,,,,,,,
decision_prac,35,231719,0.0-13.0-2.0,,632,run_exp/static/images/task_images/land.jpg,65,,,,,,,,,,3,,,,,,,,,,,,,
dig_prac,36,233746,0.0-14.0-0.0,,,,,,,,,,,"[{""stimulus"":""run_exp/static/images/task_images/dig.jpg"",""time"":1.2000000000116415},{""stimulus"":""run_exp/static/images/task_images/land.jpg"",""time"":673.5999999999767},{""stimulus"":""run_exp/static/images/task_images/dig.jpg"",""time"":1340.5999999999767}]",[],,,,,,,,,,,,,,,
harvest_prac,37,234753,0.0-14.0-1.0,,null,run_exp/static/images/task_images/barrel_text.jpg,null,,,,,,,,,,,,,,,,,,,,,,,
decision_prac,38,235094,0.0-14.0-2.0,,334.3,run_exp/static/images/task_images/land.jpg,65,,,,,,,,,,4,,,,,,,,,,,,,
dig_prac,39,237115,0.0-15.0-0.0,,,,,,,,,,,"[{""stimulus"":""run_exp/static/images/task_images/dig.jpg"",""time"":1.099999999976717},{""stimulus"":""run_exp/static/images/task_images/land.jpg"",""time"":673.5},{""stimulus"":""run_exp/static/images/task_images/dig.jpg"",""time"":1340.2000000000116}]",[],,,,,,,,,,,,,,,
harvest_prac,40,238123,0.0-15.0-1.0,,null,run_exp/static/images/task_images/barrel_text.jpg,null,,,,,,,,,,,,,,,,,,,,,,,
decision_prac,41,238417,0.0-15.0-2.0,,287.9,run_exp/static/images/task_images/land.jpg,65,,,,,,,,,,,1,,,,,,,,,,,,
quiz_instruc,42,250167,0.0-16.0-0.0,,11723.1,run_exp/static/audio/clip_10_quiz.m4a,,,,,,0,,,,,,,,,,,,,,,,,,
instruc_repeat,43,293316,0.0-16.0-1.0,,null,"<p> Are you ready to play a practice game? </p> <p>In this practice game, you'll be digging up barrels of gems. But, in the real game, you'll be digging up the gems themselves. </p>",null,"<p>In this game, your goal is to collect as many gems as you can. That’s how you will win bonus money. </p> <p>The entire game will last 20 minutes no matter how many gems you collect or how many planets you visit. </p><p>To stay on a planet and dig again, press the letter A on your keyboard. To leave for a new planet, press the letter L.</p><p>The more you dig on a planet, the fewer gems you’ll get with each dig which is why you might consider leaving for a new planet. </p><p>When you arrive at a new planet, you’ll be greeted by an alien. What the alien looks like does not tell you anything about how much treasure is on the planet. </p>",,,,,,,,,,,,,,,,,,,,,,
instruc_repeat_continue,44,295269,0.0-16.0-2.0,,1943.6,"<p> Are you ready to play a practice game? </p> <p>In this practice game, you'll be digging up barrels of gems. But, in the real game, you'll be digging up the gems themselves. </p>",,,,,,0,,,,,,,,,,,,,,,,,,
quiz_q_1_ask,45,302509,0.0-16.0-3.0,,7228.3,run_exp/static/audio/clip_11_q1_ask.m4a,,,,,,2,,,,,,,,,,,,,,,,,,
quiz_q_1_fb_correct,46,306774,0.0-17.0-0.0,,null,run_exp/static/audio/clip_12_q1_corrrect.m4a,null,<p>That’s correct. You win extra money by collecting more gems.</p>,,,,,,,,,,,,,,,,,,,,,,
quiz_q_2_ask,47,309599,0.0-17.0-1.0,,2809.6,run_exp/static/audio/clip_14_q2_ask.m4a,,,,,,1,,,,,,,,,,,,,,,,,,
quiz_q_2_fb_correct,48,313817,0.0-18.0-0.0,,null,run_exp/static/audio/clip_15_q2_correct.m4a,null,<p>That’s correct. The experiment is 20 minutes no matter what.</p>,,,,,,,,,,,,,,,,,,,,,,
quiz_q_3_ask,49,316255,0.0-18.0-1.0,,2427.9,run_exp/static/audio/clip_17_q3_ask.m4a,,,,,,1,,,,,,,,,,,,,,,,,,
quiz_q_3_fb_correct,50,320604,0.0-19.0-0.0,,null,run_exp/static/audio/clip_18_q3_correct.m4a,null,<p> That’s correct. You press the letter L to travel to a new planet.</p>,,,,,,,,,,,,,,,,,,,,,,
quiz_q_4_ask,51,323460,0.0-19.0-1.0,,2845.4,run_exp/static/audio/clip_20_q4_ask.m4a,,,,,,0,,,,,,,,,,,,,,,,,,
quiz_q_4_fb_correct,52,329185,0.0-20.0-0.0,,null,run_exp/static/audio/clip_21_q4_correct.m4a,null,<p> That’s correct. The more you dig on a planet the fewer gems you’ll get with each dig. </p>,,,,,,,,,,,,,,,,,,,,,,
quiz_q_5_ask,53,331824,0.0-20.0-1.0,,2616.1,run_exp/static/audio/clip_23_q5_ask.m4a,,,,,,1,,,,,,,,,,,,,,,,,,
quiz_q_5_fb_correct,54,337125,0.0-21.0-0.0,,null,run_exp/static/audio/clip_24_q5_correct.m4a,null,<p> That’s correct. The alien tells you nothing about how much treasure is on the planet.</p>,,,,,,,,,,,,,,,,,,,,,,
quiz_correct,55,340967,0.0-22.0-0.0,,null,run_exp/static/audio/clip_26_correct_quiz.m4a,null,,,,,,,,,,,,,,,,,,,,,,,
quiz_correct_continue,56,341908,0.0-22.0-1.0,,932.1,<p>Good job! You're now ready to move on to the real game!</p>,,,,,,0,,,,,,,,,,,,,,,,,,
audio-keyboard-response,57,352367,0.0-22.0-2.0,,null,run_exp/static/audio/clip_28_real_game.m4a,null,,,,,,,,,,,,,,,,,,,,,,,
instruc_begin_exp_contine,58,354072,0.0-22.0-3.0,,1695.5,"<p>Now that you know how  to dig for space treasure and travel to new planets,you can start exploring! </p><p>Do you want to go over the instructions again or get started with the real game?</p>",,,,,,1,,,,,,1,,,,,,,,,,,,
alien_welcome,59,359096,0.0-23.0-0.0,,null,run_exp/static/images/task_images/aliens/old_aliens/planet/alien_planet-74.jpg,null,,,,,,,,,,,,74,"74,12,14,19,34,51,39,73,26,38,29,18,28,31,46,33,61,1,53,75,41,7,58,16,57,59,54",,,,,,,,,,
land,60,359604,0.0-23.0-1.0,,null,run_exp/static/images/task_images/land.jpg,null,,,,,,102,,,1,,,,,,,,,,,,,,
dig,61,361635,0.0-23.0-2.0,,,,,,,,,,,"[{""stimulus"":""run_exp/static/images/task_images/dig.jpg"",""time"":1.8000000000465661},{""stimulus"":""run_exp/static/images/task_images/land.jpg"",""time"":675.9000000000233},{""stimulus"":""run_exp/static/images/task_images/dig.jpg"",""time"":1340.7000000000698}]",[],1,,,,,,,,,,,,,,
harvest,62,362642,0.0-23.0-3.0,,null,run_exp/static/images/task_images/gems/102.jpg,null,,,,,,18,,,1,,,,,102,0.174239586,0.176470588,,,,,,,
decision,63,363087,0.0-23.0-4.0,,437.3,run_exp/static/images/task_images/land.jpg,65,,,,,,18,,,1,,,,,,,,9002,1,0,FALSE,,,
dig,64,365679,0.0-24.0-0.0,,,,,,,,,,,"[{""stimulus"":""run_exp/static/images/task_images/dig.jpg"",""time"":1.1999999999534339},{""stimulus"":""run_exp/static/images/task_images/land.jpg"",""time"":859.1999999999534},{""stimulus"":""run_exp/static/images/task_images/dig.jpg"",""time"":1712.4000000000233}]",[],1,,,,,,,,,,,,,,
harvest,65,366684,0.0-24.0-1.0,,null,run_exp/static/images/task_images/gems/18.jpg,null,,,,,,3,,,1,,,,,18,0.141809826,0.166666667,,,,,,,
decision,66,367063,0.0-24.0-2.0,,372.1,run_exp/static/images/task_images/land.jpg,65,,,,,,3,,,1,,,,,,,,12976,1,1,FALSE,,,
dig,67,369714,0.0-25.0-0.0,,,,,,,,,,,"[{""stimulus"":""run_exp/static/images/task_images/dig.jpg"",""time"":1.099999999976717},{""stimulus"":""run_exp/static/images/task_images/land.jpg"",""time"":880},{""stimulus"":""run_exp/static/images/task_images/dig.jpg"",""time"":1755.1999999999534}]",[],1,,,,,,,,,,,,,,
harvest,68,370720,0.0-25.0-1.0,,null,run_exp/static/images/task_images/gems/3.jpg,null,,,,,,1,,,1,,,,,3,0.239752995,0.333333333,,,,,,,
decision,69,371759,0.0-25.0-2.0,,1032.1,run_exp/static/images/task_images/land.jpg,65,,,,,,1,,,1,,,,,,,,17671,1,2,FALSE,,,
dig,70,373747,0.0-26.0-0.0,,,,,,,,,,,"[{""stimulus"":""run_exp/static/images/task_images/dig.jpg"",""time"":1},{""stimulus"":""run_exp/static/images/task_images/land.jpg"",""time"":659.6999999999534},{""stimulus"":""run_exp/static/images/task_images/dig.jpg"",""time"":1314}]",[],1,,,,,,,,,,,,,,
harvest,71,374752,0.0-26.0-1.0,,null,run_exp/static/images/task_images/gems/1.jpg,null,,,,,,0,,,1,,,,,1,0.191126865,0,,,,,,,
decision,72,376264,0.0-26.0-2.0,,1505.1,run_exp/static/images/task_images/land.jpg,65,,,,,,0,,,1,,,,,,,,22176,1,3,FALSE,,,
dig,73,377775,0.0-27.0-0.0,,,,,,,,,,,"[{""stimulus"":""run_exp/static/images/task_images/dig.jpg"",""time"":1},{""stimulus"":""run_exp/static/images/task_images/land.jpg"",""time"":502.79999999993015},{""stimulus"":""run_exp/static/images/task_images/dig.jpg"",""time"":1000.2999999999302}]",[],1,,,,,,,,,,,,,,
harvest,74,378781,0.0-27.0-1.0,,null,run_exp/static/images/task_images/gems/0.jpg,null,,,,,,0,,,1,,,,,0,0.26763905,NaN,,,,,,,
decision,75,381509,0.0-27.0-2.0,,2722.1,run_exp/static/images/task_images/land.jpg,76,,,,,,0,,,1,,,,,,,,27421,1,4,TRUE,,,
travel,76,388794,0.0-28.0-0.0,,,,,,,,,,,"[{""stimulus"":""run_exp/static/images/task_images/rocket-01.jpg"",""time"":0.8000000000465661},{""stimulus"":""run_exp/static/images/task_images/rocket-02.jpg"",""time"":812.2000000000698},{""stimulus"":""run_exp/static/images/task_images/rocket-03.jpg"",""time"":1621},{""stimulus"":""run_exp/static/images/task_images/rocket-04.jpg"",""time"":2428.20000000007},{""stimulus"":""run_exp/static/images/task_images/rocket-05.jpg"",""time"":3236.20000000007},{""stimulus"":""run_exp/static/images/task_images/rocket-06.jpg"",""time"":4044.0999999999767},{""stimulus"":""run_exp/static/images/task_images/rocket-07.jpg"",""time"":4852.300000000047},{""stimulus"":""run_exp/static/images/task_images/rocket-08.jpg"",""time"":5660.20000000007},{""stimulus"":""run_exp/static/images/task_images/rocket-09.jpg"",""time"":6468.5}]",[],1,,,,,,,,,,,,,,
alien_welcome,77,393802,0.0-28.0-1.0,,null,run_exp/static/images/task_images/aliens/old_aliens/planet/alien_planet-12.jpg,null,,,,,,,,,,,,12,"74,12,14,19,34,51,39,73,26,38,29,18,28,31,46,33,61,1,53,75,41,7,58,16,57,59,54",,,,,,,,,,
land,78,394310,0.0-28.0-2.0,,null,run_exp/static/images/task_images/land.jpg,null,,,,,,101,,,2,,,,,,,,,,,,,,
dig,79,396325,0.0-28.0-3.0,,,,,,,,,,,"[{""stimulus"":""run_exp/static/images/task_images/dig.jpg"",""time"":1.8000000000465661},{""stimulus"":""run_exp/static/images/task_images/land.jpg"",""time"":673.2000000000698},{""stimulus"":""run_exp/static/images/task_images/dig.jpg"",""time"":1340.0999999999767}]",[],2,,,,,,,,,,,,,,
harvest,80,397330,0.0-28.0-4.0,,null,run_exp/static/images/task_images/gems/101.jpg,null,,,,,,26,,,2,,,,,101,0.258868334,0.257425743,,,,,,,
decision,81,398337,0.0-28.0-5.0,,1000,run_exp/static/images/task_images/land.jpg,65,,,,,,26,,,2,,,,,,,,44249,1,0,FALSE,,,
dig,82,400353,0.0-29.0-0.0,,,,,,,,,,,"[{""stimulus"":""run_exp/static/images/task_images/dig.jpg"",""time"":1.1000000000931323},{""stimulus"":""run_exp/static/images/task_images/land.jpg"",""time"":671.5},{""stimulus"":""run_exp/static/images/task_images/dig.jpg"",""time"":1337.1000000000931}]",[],2,,,,,,,,,,,,,,
harvest,83,401358,0.0-29.0-1.0,,null,run_exp/static/images/task_images/gems/26.jpg,null,,,,,,5,,,2,,,,,26,0.181246771,0.192307692,,,,,,,
decision,84,402671,0.0-29.0-2.0,,1309.8,run_exp/static/images/task_images/land.jpg,65,,,,,,5,,,2,,,,,,,,48583,1,1,FALSE,,,
dig,85,404372,0.0-30.0-0.0,,,,,,,,,,,"[{""stimulus"":""run_exp/static/images/task_images/dig.jpg"",""time"":0.6999999999534339},{""stimulus"":""run_exp/static/images/task_images/land.jpg"",""time"":567.5},{""stimulus"":""run_exp/static/images/task_images/dig.jpg"",""time"":1130.0999999999767}]",[],2,,,,,,,,,,,,,,
harvest,86,405378,0.0-30.0-1.0,,null,run_exp/static/images/task_images/gems/5.jpg,null,,,,,,1,,,2,,,,,5,0.218100739,0.2,,,,,,,
decision,87,406735,0.0-30.0-2.0,,1350.3,run_exp/static/images/task_images/land.jpg,65,,,,,,1,,,2,,,,,,,,52647,1,2,FALSE,,,
dig,88,408400,0.0-31.0-0.0,,,,,,,,,,,"[{""stimulus"":""run_exp/static/images/task_images/dig.jpg"",""time"":0.9000000000232831},{""stimulus"":""run_exp/static/images/task_images/land.jpg"",""time"":554},{""stimulus"":""run_exp/static/images/task_images/dig.jpg"",""time"":1103}]",[],2,,,,,,,,,,,,,,
harvest,89,409407,0.0-31.0-1.0,,null,run_exp/static/images/task_images/gems/1.jpg,null,,,,,,0,,,2,,,,,1,0.163109457,0,,,,,,,
decision,90,409532,0.0-31.0-2.0,,108.4,run_exp/static/images/task_images/land.jpg,65,,,,,,0,,,2,,,,,,,,55444,1,3,FALSE,,,
dig,91,412439,0.0-32.0-0.0,,,,,,,,,,,"[{""stimulus"":""run_exp/static/images/task_images/dig.jpg"",""time"":1.099999999976717},{""stimulus"":""run_exp/static/images/task_images/land.jpg"",""time"":978.5},{""stimulus"":""run_exp/static/images/task_images/dig.jpg"",""time"":1931.1999999999534}]",[],2,,,,,,,,,,,,,,
harvest,92,413445,0.0-32.0-1.0,,null,run_exp/static/images/task_images/gems/0.jpg,null,,,,,,0,,,2,,,,,0,0.28330322,NaN,,,,,,,
decision,93,413455,0.0-32.0-2.0,,2.3,run_exp/static/images/task_images/land.jpg,65,,,,,,0,,,2,,,,,,,,59367,1,4,FALSE,,,
dig,94,416472,0.0-33.0-0.0,,,,,,,,,,,"[{""stimulus"":""run_exp/static/images/task_images/dig.jpg"",""time"":1.1000000000931323},{""stimulus"":""run_exp/static/images/task_images/land.jpg"",""time"":1004.2000000000698},{""stimulus"":""run_exp/static/images/task_images/dig.jpg"",""time"":2001.9000000000233}]",[],2,,,,,,,,,,,,,,
harvest,95,417478,0.0-33.0-1.0,,null,run_exp/static/images/task_images/gems/0.jpg,null,,,,,,0,,,2,,,,,0,0.264449032,NaN,,,,,,,
decision,96,417957,0.0-33.0-2.0,,471.4,run_exp/static/images/task_images/land.jpg,65,,,,,,0,,,2,,,,,,,,63869,1,5,FALSE,,,
dig,97,420501,0.0-34.0-0.0,,,,,,,,,,,"[{""stimulus"":""run_exp/static/images/task_images/dig.jpg"",""time"":1.099999999976717},{""stimulus"":""run_exp/static/images/task_images/land.jpg"",""time"":846.7000000000698},{""stimulus"":""run_exp/static/images/task_images/dig.jpg"",""time"":1689.2000000000698}]",[],2,,,,,,,,,,,,,,
harvest,98,421507,0.0-34.0-1.0,,null,run_exp/static/images/task_images/gems/0.jpg,null,,,,,,0,,,2,,,,,0,0.20396577,NaN,,,,,,,
decision,99,422983,0.0-34.0-2.0,,1471.4,run_exp/static/images/task_images/land.jpg,65,,,,,,0,,,2,,,,,,,,68895,1,6,FALSE,,,
dig,100,424539,0.0-35.0-0.0,,,,,,,,,,,"[{""stimulus"":""run_exp/static/images/task_images/dig.jpg"",""time"":1.3000000000465661},{""stimulus"":""run_exp/static/images/task_images/land.jpg"",""time"":514.6000000000931},{""stimulus"":""run_exp/static/images/task_images/dig.jpg"",""time"":1023.5}]",[],2,,,,,,,,,,,,,,
harvest,101,425561,0.0-35.0-1.0,,null,run_exp/static/images/task_images/gems/0.jpg,null,,,,,,0,,,2,,,,,0,0.230467692,NaN,,,,,,,
decision,102,425953,0.0-35.0-2.0,,384.9,run_exp/static/images/task_images/land.jpg,76,,,,,,0,,,2,,,,,,,,71865,1,7,TRUE,,,
travel,103,435584,0.0-36.0-0.0,,,,,,,,,,,"[{""stimulus"":""run_exp/static/images/task_images/rocket-01.jpg"",""time"":1.099999999976717},{""stimulus"":""run_exp/static/images/task_images/rocket-02.jpg"",""time"":1073.2999999999302},{""stimulus"":""run_exp/static/images/task_images/rocket-03.jpg"",""time"":2141.29999999993},{""stimulus"":""run_exp/static/images/task_images/rocket-04.jpg"",""time"":3209.1999999999534},{""stimulus"":""run_exp/static/images/task_images/rocket-05.jpg"",""time"":4278.399999999907},{""stimulus"":""run_exp/static/images/task_images/rocket-06.jpg"",""time"":5344.699999999953},{""stimulus"":""run_exp/static/images/task_images/rocket-07.jpg"",""time"":6412.5},{""stimulus"":""run_exp/static/images/task_images/rocket-08.jpg"",""time"":7481.29999999993},{""stimulus"":""run_exp/static/images/task_images/rocket-09.jpg"",""time"":8549.29999999993}]",[],2,,,,,,,,,,,,,,
alien_welcome,104,440593,0.0-36.0-1.0,,null,run_exp/static/images/task_images/aliens/old_aliens/planet/alien_planet-14.jpg,null,,,,,,,,,,,,14,"74,12,14,19,34,51,39,73,26,38,29,18,28,31,46,33,61,1,53,75,41,7,58,16,57,59,54",,,,,,,,,,
land,105,441100,0.0-36.0-2.0,,null,run_exp/static/images/task_images/land.jpg,null,,,,,,104,,,3,,,,,,,,,,,,,,
dig,106,443116,0.0-36.0-3.0,,,,,,,,,,,"[{""stimulus"":""run_exp/static/images/task_images/dig.jpg"",""time"":1.7000000000698492},{""stimulus"":""run_exp/static/images/task_images/land.jpg"",""time"":673.7000000000698},{""stimulus"":""run_exp/static/images/task_images/dig.jpg"",""time"":1340.4000000000233}]",[],3,,,,,,,,,,,,,,
harvest,107,444122,0.0-36.0-4.0,,null,run_exp/static/images/task_images/gems/104.jpg,null,,,,,,44,,,3,,,,,104,0.419411075,0.423076923,,,,,,,
decision,108,445561,0.0-36.0-5.0,,1431.5,run_exp/static/images/task_images/land.jpg,65,,,,,,44,,,3,,,,,,,,91473,1,0,FALSE,,,
dig,109,447146,0.0-37.0-0.0,,,,,,,,,,,"[{""stimulus"":""run_exp/static/images/task_images/dig.jpg"",""time"":1.099999999976717},{""stimulus"":""run_exp/static/images/task_images/land.jpg"",""time"":527.4000000000233},{""stimulus"":""run_exp/static/images/task_images/dig.jpg"",""time"":1048.8000000000466}]",[],3,,,,,,,,,,,,,,
harvest,110,448152,0.0-37.0-1.0,,null,run_exp/static/images/task_images/gems/44.jpg,null,,,,,,18,,,3,,,,,44,0.417639303,0.409090909,,,,,,,
decision,111,449366,0.0-37.0-2.0,,1207.4,run_exp/static/images/task_images/land.jpg,65,,,,,,18,,,3,,,,,,,,95279,1,1,FALSE,,,
dig,112,451176,0.0-38.0-0.0,,,,,,,,,,,"[{""stimulus"":""run_exp/static/images/task_images/dig.jpg"",""time"":1.1000000000931323},{""stimulus"":""run_exp/static/images/task_images/land.jpg"",""time"":602.1000000000931},{""stimulus"":""run_exp/static/images/task_images/dig.jpg"",""time"":1199}]",[],3,,,,,,,,,,,,,,
harvest,113,452183,0.0-38.0-1.0,,null,run_exp/static/images/task_images/gems/18.jpg,null,,,,,,9,,,3,,,,,18,0.491904621,0.5,,,,,,,
decision,114,452665,0.0-38.0-2.0,,475,run_exp/static/images/task_images/land.jpg,65,,,,,,9,,,3,,,,,,,,98578,1,2,FALSE,,,
dig,115,455207,0.0-39.0-0.0,,,,,,,,,,,"[{""stimulus"":""run_exp/static/images/task_images/dig.jpg"",""time"":1.099999999976717},{""stimulus"":""run_exp/static/images/task_images/land.jpg"",""time"":846.1999999999534},{""stimulus"":""run_exp/static/images/task_images/dig.jpg"",""time"":1687.4000000000233}]",[],3,,,,,,,,,,,,,,
harvest,116,456631,0.0-39.0-1.0,,null,run_exp/static/images/task_images/gems/9.jpg,null,,,,,,4,,,3,,,,,9,0.469409311,0.444444444,,,,,,,
decision,117,457375,0.0-39.0-2.0,,737.6,run_exp/static/images/task_images/land.jpg,65,,,,,,4,,,3,,,,,,,,103288,1,3,FALSE,,,
dig,118,459656,0.0-40.0-0.0,,,,,,,,,,,"[{""stimulus"":""run_exp/static/images/task_images/dig.jpg"",""time"":1},{""stimulus"":""run_exp/static/images/task_images/land.jpg"",""time"":759.4000000000233},{""stimulus"":""run_exp/static/images/task_images/dig.jpg"",""time"":1512.9000000000233}]",[],3,,,,,,,,,,,,,,
harvest,119,460663,0.0-40.0-1.0,,null,run_exp/static/images/task_images/gems/4.jpg,null,,,,,,2,,,3,,,,,4,0.52574619,0.5,,,,,,,
decision,120,461654,0.0-40.0-2.0,,983.4,run_exp/static/images/task_images/land.jpg,65,,,,,,2,,,3,,,,,,,,107566,1,4,FALSE,,,
dig,121,463689,0.0-41.0-0.0,,,,,,,,,,,"[{""stimulus"":""run_exp/static/images/task_images/dig.jpg"",""time"":1.1999999999534339},{""stimulus"":""run_exp/static/images/task_images/land.jpg"",""time"":677.5},{""stimulus"":""run_exp/static/images/task_images/dig.jpg"",""time"":1348.9000000000233}]",[],3,,,,,,,,,,,,,,
harvest,122,464694,0.0-41.0-1.0,,null,run_exp/static/images/task_images/gems/2.jpg,null,,,,,,1,,,3,,,,,2,0.487320985,0.5,,,,,,,
decision,123,465830,0.0-41.0-2.0,,1133.1,run_exp/static/images/task_images/land.jpg,65,,,,,,1,,,3,,,,,,,,111743,1,5,FALSE,,,
dig,124,467716,0.0-42.0-0.0,,,,,,,,,,,"[{""stimulus"":""run_exp/static/images/task_images/dig.jpg"",""time"":1.099999999976717},{""stimulus"":""run_exp/static/images/task_images/land.jpg"",""time"":627.4000000000233},{""stimulus"":""run_exp/static/images/task_images/dig.jpg"",""time"":1249.4000000000233}]",[],3,,,,,,,,,,,,,,
harvest,125,468722,0.0-42.0-1.0,,null,run_exp/static/images/task_images/gems/1.jpg,null,,,,,,1,,,3,,,,,1,0.553549023,1,,,,,,,
decision,126,468770,0.0-42.0-2.0,,40.2,run_exp/static/images/task_images/land.jpg,65,,,,,,1,,,3,,,,,,,,114683,1,6,FALSE,,,
dig,127,471748,0.0-43.0-0.0,,,,,,,,,,,"[{""stimulus"":""run_exp/static/images/task_images/dig.jpg"",""time"":1.2000000000698492},{""stimulus"":""run_exp/static/images/task_images/land.jpg"",""time"":991.4000000000233},{""stimulus"":""run_exp/static/images/task_images/dig.jpg"",""time"":1977.7000000000698}]",[],3,,,,,,,,,,,,,,
harvest,128,472773,0.0-43.0-1.0,,null,run_exp/static/images/task_images/gems/1.jpg,null,,,,,,0,,,3,,,,,1,0.43908859,0,,,,,,,
decision,129,474709,0.0-43.0-2.0,,1916.3,run_exp/static/images/task_images/land.jpg,76,,,,,,0,,,3,,,,,,,,120621,1,7,TRUE,,,
travel,130,482820,0.0-44.0-0.0,,,,,,,,,,,"[{""stimulus"":""run_exp/static/images/task_images/rocket-01.jpg"",""time"":1.3000000000465661},{""stimulus"":""run_exp/static/images/task_images/rocket-02.jpg"",""time"":903.5999999999767},{""stimulus"":""run_exp/static/images/task_images/rocket-03.jpg"",""time"":1801.5999999999767},{""stimulus"":""run_exp/static/images/task_images/rocket-04.jpg"",""time"":2699.4000000000233},{""stimulus"":""run_exp/static/images/task_images/rocket-05.jpg"",""time"":3597.5},{""stimulus"":""run_exp/static/images/task_images/rocket-06.jpg"",""time"":4495.300000000047},{""stimulus"":""run_exp/static/images/task_images/rocket-07.jpg"",""time"":5393.099999999977},{""stimulus"":""run_exp/static/images/task_images/rocket-08.jpg"",""time"":6291.800000000047},{""stimulus"":""run_exp/static/images/task_images/rocket-09.jpg"",""time"":7189.800000000047}]",[],3,,,,,,,,,,,,,,
alien_welcome,131,487829,0.0-44.0-1.0,,null,run_exp/static/images/task_images/aliens/old_aliens/planet/alien_planet-19.jpg,null,,,,,,,,,,,,19,"74,12,14,19,34,51,39,73,26,38,29,18,28,31,46,33,61,1,53,75,41,7,58,16,57,59,54",,,,,,,,,,
land,132,488336,0.0-44.0-2.0,,null,run_exp/static/images/task_images/land.jpg,null,,,,,,102,,,4,,,,,,,,,,,,,,
dig,133,490354,0.0-44.0-3.0,,,,,,,,,,,"[{""stimulus"":""run_exp/static/images/task_images/dig.jpg"",""time"":1.7000000000698492},{""stimulus"":""run_exp/static/images/task_images/land.jpg"",""time"":673.6000000000931},{""stimulus"":""run_exp/static/images/task_images/dig.jpg"",""time"":1340.7000000000698}]",[],4,,,,,,,,,,,,,,
harvest,134,491360,0.0-44.0-4.0,,null,run_exp/static/images/task_images/gems/102.jpg,null,,,,,,44,,,4,,,,,102,0.427491742,0.431372549,,,,,,,
decision,135,491483,0.0-44.0-5.0,,115.7,run_exp/static/images/task_images/land.jpg,65,,,,,,44,,,4,,,,,,,,137396,1,0,FALSE,,,
dig,136,494386,0.0-45.0-0.0,,,,,,,,,,,"[{""stimulus"":""run_exp/static/images/task_images/dig.jpg"",""time"":1.2000000000698492},{""stimulus"":""run_exp/static/images/task_images/land.jpg"",""time"":966.5},{""stimulus"":""run_exp/static/images/task_images/dig.jpg"",""time"":1928.0999999999767}]",[],4,,,,,,,,,,,,,,
harvest,137,495392,0.0-45.0-1.0,,null,run_exp/static/images/task_images/gems/44.jpg,null,,,,,,20,,,4,,,,,44,0.453314576,0.454545455,,,,,,,
decision,138,495921,0.0-45.0-2.0,,513.2,run_exp/static/images/task_images/land.jpg,65,,,,,,20,,,4,,,,,,,,141833,1,1,FALSE,,,
dig,139,498424,0.0-46.0-0.0,,,,,,,,,,,"[{""stimulus"":""run_exp/static/images/task_images/dig.jpg"",""time"":1.1000000000931323},{""stimulus"":""run_exp/static/images/task_images/land.jpg"",""time"":833.6000000000931},{""stimulus"":""run_exp/static/images/task_images/dig.jpg"",""time"":1661.6000000000931}]",[],4,,,,,,,,,,,,,,
harvest,140,499430,0.0-46.0-1.0,,null,run_exp/static/images/task_images/gems/20.jpg,null,,,,,,11,,,4,,,,,20,0.550527002,0.55,,,,,,,
decision,141,500714,0.0-46.0-2.0,,1281.1,run_exp/static/images/task_images/land.jpg,65,,,,,,11,,,4,,,,,,,,146626,1,2,FALSE,,,
dig,142,502444,0.0-47.0-0.0,,,,,,,,,,,"[{""stimulus"":""run_exp/static/images/task_images/dig.jpg"",""time"":0.9000000000232831},{""stimulus"":""run_exp/static/images/task_images/land.jpg"",""time"":577.3000000000466},{""stimulus"":""run_exp/static/images/task_images/dig.jpg"",""time"":1149.5}]",[],4,,,,,,,,,,,,,,
harvest,143,503450,0.0-47.0-1.0,,null,run_exp/static/images/task_images/gems/11.jpg,null,,,,,,5,,,4,,,,,11,0.420419105,0.454545455,,,,,,,
decision,144,504419,0.0-47.0-2.0,,962.1,run_exp/static/images/task_images/land.jpg,65,,,,,,5,,,4,,,,,,,,150332,1,3,FALSE,,,
dig,145,506477,0.0-48.0-0.0,,,,,,,,,,,"[{""stimulus"":""run_exp/static/images/task_images/dig.jpg"",""time"":1.099999999976717},{""stimulus"":""run_exp/static/images/task_images/land.jpg"",""time"":684.1999999999534},{""stimulus"":""run_exp/static/images/task_images/dig.jpg"",""time"":1363.5}]",[],4,,,,,,,,,,,,,,
harvest,146,507484,0.0-48.0-1.0,,null,run_exp/static/images/task_images/gems/5.jpg,null,,,,,,2,,,4,,,,,5,0.48109165,0.4,,,,,,,
decision,147,507592,0.0-48.0-2.0,,100.3,run_exp/static/images/task_images/land.jpg,65,,,,,,2,,,4,,,,,,,,153505,1,4,FALSE,,,
dig,148,510510,0.0-49.0-0.0,,,,,,,,,,,"[{""stimulus"":""run_exp/static/images/task_images/dig.jpg"",""time"":1.099999999976717},{""stimulus"":""run_exp/static/images/task_images/land.jpg"",""time"":971.5},{""stimulus"":""run_exp/static/images/task_images/dig.jpg"",""time"":1937.1999999999534}]",[],4,,,,,,,,,,,,,,
harvest,149,511518,0.0-49.0-1.0,,null,run_exp/static/images/task_images/gems/2.jpg,null,,,,,,1,,,4,,,,,2,0.523543424,0.5,,,,,,,
decision,150,511847,0.0-49.0-2.0,,321.7,run_exp/static/images/task_images/land.jpg,76,,,,,,1,,,4,,,,,,,,157759,1,5,TRUE,,,
travel,151,521546,0.0-50.0-0.0,,,,,,,,,,,"[{""stimulus"":""run_exp/static/images/task_images/rocket-01.jpg"",""time"":1.1999999999534339},{""stimulus"":""run_exp/static/images/task_images/rocket-02.jpg"",""time"":1080},{""stimulus"":""run_exp/static/images/task_images/rocket-03.jpg"",""time"":2154.29999999993},{""stimulus"":""run_exp/static/images/task_images/rocket-04.jpg"",""time"":3229.79999999993},{""stimulus"":""run_exp/static/images/task_images/rocket-05.jpg"",""time"":4305.599999999977},{""stimulus"":""run_exp/static/images/task_images/rocket-06.jpg"",""time"":5379.199999999953},{""stimulus"":""run_exp/static/images/task_images/rocket-07.jpg"",""time"":6455.5},{""stimulus"":""run_exp/static/images/task_images/rocket-08.jpg"",""time"":7529.699999999953},{""stimulus"":""run_exp/static/images/task_images/rocket-09.jpg"",""time"":8605.5}]",[],4,,,,,,,,,,,,,,
alien_welcome,152,526555,0.0-50.0-1.0,,null,run_exp/static/images/task_images/aliens/old_aliens/planet/alien_planet-34.jpg,null,,,,,,,,,,,,34,"74,12,14,19,34,51,39,73,26,38,29,18,28,31,46,33,61,1,53,75,41,7,58,16,57,59,54",,,,,,,,,,
land,153,527062,0.0-50.0-2.0,,null,run_exp/static/images/task_images/land.jpg,null,,,,,,114,,,5,,,,,,,,,,,,,,
dig,154,529082,0.0-50.0-3.0,,,,,,,,,,,"[{""stimulus"":""run_exp/static/images/task_images/dig.jpg"",""time"":1.8000000000465661},{""stimulus"":""run_exp/static/images/task_images/land.jpg"",""time"":673.9000000000233},{""stimulus"":""run_exp/static/images/task_images/dig.jpg"",""time"":1340.5}]",[],5,,,,,,,,,,,,,,
harvest,155,530089,0.0-50.0-4.0,,null,run_exp/static/images/task_images/gems/114.jpg,null,,,,,,60,,,5,,,,,114,0.528966386,0.526315789,,,,,,,
decision,156,530885,0.0-50.0-5.0,,789.1,run_exp/static/images/task_images/land.jpg,65,,,,,,60,,,5,,,,,,,,176797,1,0,FALSE,,,
dig,157,533115,0.0-51.0-0.0,,,,,,,,,,,"[{""stimulus"":""run_exp/static/images/task_images/dig.jpg"",""time"":1.1000000000931323},{""stimulus"":""run_exp/static/images/task_images/land.jpg"",""time"":741.8000000000466},{""stimulus"":""run_exp/static/images/task_images/dig.jpg"",""time"":1477.7000000000698}]",[],5,,,,,,,,,,,,,,
harvest,158,534121,0.0-51.0-1.0,,null,run_exp/static/images/task_images/gems/60.jpg,null,,,,,,29,,,5,,,,,60,0.481287785,0.483333333,,,,,,,
decision,159,535253,0.0-51.0-2.0,,1129.2,run_exp/static/images/task_images/land.jpg,65,,,,,,29,,,5,,,,,,,,181165,1,1,FALSE,,,
dig,160,537136,0.0-52.0-0.0,,,,,,,,,,,"[{""stimulus"":""run_exp/static/images/task_images/dig.jpg"",""time"":0.8999999999068677},{""stimulus"":""run_exp/static/images/task_images/land.jpg"",""time"":628.2999999999302},{""stimulus"":""run_exp/static/images/task_images/dig.jpg"",""time"":1251.0999999999767}]",[],5,,,,,,,,,,,,,,
harvest,161,538141,0.0-52.0-1.0,,null,run_exp/static/images/task_images/gems/29.jpg,null,,,,,,15,,,5,,,,,29,0.510982196,0.517241379,,,,,,,
decision,162,539099,0.0-52.0-2.0,,955.2,run_exp/static/images/task_images/land.jpg,65,,,,,,15,,,5,,,,,,,,185011,1,2,FALSE,,,
dig,163,541163,0.0-53.0-0.0,,,,,,,,,,,"[{""stimulus"":""run_exp/static/images/task_images/dig.jpg"",""time"":0.8999999999068677},{""stimulus"":""run_exp/static/images/task_images/land.jpg"",""time"":686.1999999999534},{""stimulus"":""run_exp/static/images/task_images/dig.jpg"",""time"":1366.0999999999767}]",[],5,,,,,,,,,,,,,,
harvest,164,542181,0.0-53.0-1.0,,null,run_exp/static/images/task_images/gems/15.jpg,null,,,,,,8,,,5,,,,,15,0.53409715,0.533333333,,,,,,,
decision,165,543112,0.0-53.0-2.0,,927.9,run_exp/static/images/task_images/land.jpg,65,,,,,,8,,,5,,,,,,,,189024,1,3,FALSE,,,
dig,166,545193,0.0-54.0-0.0,,,,,,,,,,,"[{""stimulus"":""run_exp/static/images/task_images/dig.jpg"",""time"":0.8000000000465661},{""stimulus"":""run_exp/static/images/task_images/land.jpg"",""time"":693.5999999999767},{""stimulus"":""run_exp/static/images/task_images/dig.jpg"",""time"":1384.3000000000466}]",[],5,,,,,,,,,,,,,,
harvest,167,546199,0.0-54.0-1.0,,null,run_exp/static/images/task_images/gems/8.jpg,null,,,,,,4,,,5,,,,,8,0.562254749,0.5,,,,,,,
decision,168,547126,0.0-54.0-2.0,,923.6,run_exp/static/images/task_images/land.jpg,65,,,,,,4,,,5,,,,,,,,193038,1,4,FALSE,,,
dig,169,549219,0.0-55.0-0.0,,,,,,,,,,,"[{""stimulus"":""run_exp/static/images/task_images/dig.jpg"",""time"":1},{""stimulus"":""run_exp/static/images/task_images/land.jpg"",""time"":696.8000000000466},{""stimulus"":""run_exp/static/images/task_images/dig.jpg"",""time"":1389.0999999999767}]",[],5,,,,,,,,,,,,,,
harvest,170,550225,0.0-55.0-1.0,,null,run_exp/static/images/task_images/gems/4.jpg,null,,,,,,2,,,5,,,,,4,0.472290317,0.5,,,,,,,
decision,171,550681,0.0-55.0-2.0,,449.1,run_exp/static/images/task_images/land.jpg,76,,,,,,2,,,5,,,,,,,,196594,1,5,TRUE,,,
travel,172,560253,0.0-56.0-0.0,,,,,,,,,,,"[{""stimulus"":""run_exp/static/images/task_images/rocket-01.jpg"",""time"":1.099999999976717},{""stimulus"":""run_exp/static/images/task_images/rocket-02.jpg"",""time"":1075.6999999999534},{""stimulus"":""run_exp/static/images/task_images/rocket-03.jpg"",""time"":2126.8000000000466},{""stimulus"":""run_exp/static/images/task_images/rocket-04.jpg"",""time"":3188},{""stimulus"":""run_exp/static/images/task_images/rocket-05.jpg"",""time"":4248.800000000047},{""stimulus"":""run_exp/static/images/task_images/rocket-06.jpg"",""time"":5309.599999999977},{""stimulus"":""run_exp/static/images/task_images/rocket-07.jpg"",""time"":6371.199999999953},{""stimulus"":""run_exp/static/images/task_images/rocket-08.jpg"",""time"":7431.300000000047},{""stimulus"":""run_exp/static/images/task_images/rocket-09.jpg"",""time"":8492}]",[],5,,,,,,,,,,,,,,
alien_welcome,173,565260,0.0-56.0-1.0,,null,run_exp/static/images/task_images/aliens/old_aliens/planet/alien_planet-51.jpg,null,,,,,,,,,,,,51,"74,12,14,19,34,51,39,73,26,38,29,18,28,31,46,33,61,1,53,75,41,7,58,16,57,59,54",,,,,,,,,,
land,174,565765,0.0-56.0-2.0,,null,run_exp/static/images/task_images/land.jpg,null,,,,,,93,,,6,,,,,,,,,,,,,,
dig,175,567778,0.0-56.0-3.0,,,,,,,,,,,"[{""stimulus"":""run_exp/static/images/task_images/dig.jpg"",""time"":1.400000000023283},{""stimulus"":""run_exp/static/images/task_images/land.jpg"",""time"":671.8000000000466},{""stimulus"":""run_exp/static/images/task_images/dig.jpg"",""time"":1339}]",[],6,,,,,,,,,,,,,,
harvest,176,568783,0.0-56.0-4.0,,null,run_exp/static/images/task_images/gems/93.jpg,null,,,,,,72,,,6,,,,,93,0.778087763,0.774193548,,,,,,,
decision,177,569925,0.0-56.0-5.0,,1135.5,run_exp/static/images/task_images/land.jpg,65,,,,,,72,,,6,,,,,,,,215838,1,0,FALSE,,,
dig,178,571809,0.0-57.0-0.0,,,,,,,,,,,"[{""stimulus"":""run_exp/static/images/task_images/dig.jpg"",""time"":1.099999999976717},{""stimulus"":""run_exp/static/images/task_images/land.jpg"",""time"":625.5},{""stimulus"":""run_exp/static/images/task_images/dig.jpg"",""time"":1246.5}]",[],6,,,,,,,,,,,,,,
harvest,179,572814,0.0-57.0-1.0,,null,run_exp/static/images/task_images/gems/72.jpg,null,,,,,,50,,,6,,,,,72,0.701003471,0.694444444,,,,,,,
decision,180,573675,0.0-57.0-2.0,,853.9,run_exp/static/images/task_images/land.jpg,65,,,,,,50,,,6,,,,,,,,219587,1,1,FALSE,,,
dig,181,575842,0.0-58.0-0.0,,,,,,,,,,,"[{""stimulus"":""run_exp/static/images/task_images/dig.jpg"",""time"":1.400000000023283},{""stimulus"":""run_exp/static/images/task_images/land.jpg"",""time"":720.6000000000931},{""stimulus"":""run_exp/static/images/task_images/dig.jpg"",""time"":1435.5}]",[],6,,,,,,,,,,,,,,
harvest,182,576847,0.0-58.0-1.0,,null,run_exp/static/images/task_images/gems/50.jpg,null,,,,,,44,,,6,,,,,50,0.875673613,0.88,,,,,,,
decision,183,578024,0.0-58.0-2.0,,1170.2,run_exp/static/images/task_images/land.jpg,65,,,,,,44,,,6,,,,,,,,223937,1,2,FALSE,,,
dig,184,579872,0.0-59.0-0.0,,,,,,,,,,,"[{""stimulus"":""run_exp/static/images/task_images/dig.jpg"",""time"":1.2000000000698492},{""stimulus"":""run_exp/static/images/task_images/land.jpg"",""time"":613.5999999999767},{""stimulus"":""run_exp/static/images/task_images/dig.jpg"",""time"":1223.2000000000698}]",[],6,,,,,,,,,,,,,,
harvest,185,580877,0.0-59.0-1.0,,null,run_exp/static/images/task_images/gems/44.jpg,null,,,,,,31,,,6,,,,,44,0.704996505,0.704545455,,,,,,,
decision,186,581315,0.0-59.0-2.0,,429.8,run_exp/static/images/task_images/land.jpg,65,,,,,,31,,,6,,,,,,,,227227,1,3,FALSE,,,
dig,187,583905,0.0-60.0-0.0,,,,,,,,,,,"[{""stimulus"":""run_exp/static/images/task_images/dig.jpg"",""time"":1.3999999999068677},{""stimulus"":""run_exp/static/images/task_images/land.jpg"",""time"":861.3999999999069},{""stimulus"":""run_exp/static/images/task_images/dig.jpg"",""time"":1717.6999999999534}]",[],6,,,,,,,,,,,,,,
harvest,188,584910,0.0-60.0-1.0,,null,run_exp/static/images/task_images/gems/31.jpg,null,,,,,,25,,,6,,,,,31,0.80219805,0.806451613,,,,,,,
decision,189,585838,0.0-60.0-2.0,,919.5,run_exp/static/images/task_images/land.jpg,65,,,,,,25,,,6,,,,,,,,231753,1,4,FALSE,,,
dig,190,587959,0.0-61.0-0.0,,,,,,,,,,,"[{""stimulus"":""run_exp/static/images/task_images/dig.jpg"",""time"":2.200000000069849},{""stimulus"":""run_exp/static/images/task_images/land.jpg"",""time"":705.7000000000698},{""stimulus"":""run_exp/static/images/task_images/dig.jpg"",""time"":1392.5}]",[],6,,,,,,,,,,,,,,
harvest,191,588965,0.0-61.0-1.0,,null,run_exp/static/images/task_images/gems/25.jpg,null,,,,,,18,,,6,,,,,25,0.717842355,0.72,,,,,,,
decision,192,589730,0.0-61.0-2.0,,762.1,run_exp/static/images/task_images/land.jpg,65,,,,,,18,,,6,,,,,,,,235642,1,5,FALSE,,,
dig,193,591980,0.0-62.0-0.0,,,,,,,,,,,"[{""stimulus"":""run_exp/static/images/task_images/dig.jpg"",""time"":0.8999999999068677},{""stimulus"":""run_exp/static/images/task_images/land.jpg"",""time"":748.8999999999069},{""stimulus"":""run_exp/static/images/task_images/dig.jpg"",""time"":1493.8999999999069}]",[],6,,,,,,,,,,,,,,
harvest,194,592987,0.0-62.0-1.0,,null,run_exp/static/images/task_images/gems/18.jpg,null,,,,,,15,,,6,,,,,18,0.855890336,0.833333333,,,,,,,
decision,195,593291,0.0-62.0-2.0,,297.5,run_exp/static/images/task_images/land.jpg,65,,,,,,15,,,6,,,,,,,,239203,1,6,FALSE,,,
dig,196,596005,0.0-63.0-0.0,,,,,,,,,,,"[{""stimulus"":""run_exp/static/images/task_images/dig.jpg"",""time"":0.8000000000465661},{""stimulus"":""run_exp/static/images/task_images/land.jpg"",""time"":904.5999999999767},{""stimulus"":""run_exp/static/images/task_images/dig.jpg"",""time"":1803.8000000000466}]",[],6,,,,,,,,,,,,,,
harvest,197,597013,0.0-63.0-1.0,,null,run_exp/static/images/task_images/gems/15.jpg,null,,,,,,13,,,6,,,,,15,0.84408997,0.866666667,,,,,,,
decision,198,597027,0.0-63.0-2.0,,0.5,run_exp/static/images/task_images/land.jpg,65,,,,,,13,,,6,,,,,,,,242940,1,7,FALSE,,,
dig,199,600049,0.0-64.0-0.0,,,,,,,,,,,"[{""stimulus"":""run_exp/static/images/task_images/dig.jpg"",""time"":1.6999999999534339},{""stimulus"":""run_exp/static/images/task_images/land.jpg"",""time"":1004.8000000000466},{""stimulus"":""run_exp/static/images/task_images/dig.jpg"",""time"":2005.3000000000466}]",[],6,,,,,,,,,,,,,,
harvest,200,601056,0.0-64.0-1.0,,null,run_exp/static/images/task_images/gems/13.jpg,null,,,,,,10,,,6,,,,,13,0.76553194,0.769230769,,,,,,,
decision,201,602381,0.0-64.0-2.0,,1318,run_exp/static/images/task_images/land.jpg,76,,,,,,10,,,6,,,,,,,,248294,1,8,TRUE,,,
travel,202,611080,0.0-65.0-0.0,,,,,,,,,,,"[{""stimulus"":""run_exp/static/images/task_images/rocket-01.jpg"",""time"":1.1999999999534339},{""stimulus"":""run_exp/static/images/task_images/rocket-02.jpg"",""time"":967.6999999999534},{""stimulus"":""run_exp/static/images/task_images/rocket-03.jpg"",""time"":1931.7999999999302},{""stimulus"":""run_exp/static/images/task_images/rocket-04.jpg"",""time"":2897.0999999999767},{""stimulus"":""run_exp/static/images/task_images/rocket-05.jpg"",""time"":3860.4000000000233},{""stimulus"":""run_exp/static/images/task_images/rocket-06.jpg"",""time"":4823.699999999953},{""stimulus"":""run_exp/static/images/task_images/rocket-07.jpg"",""time"":5787.699999999953},{""stimulus"":""run_exp/static/images/task_images/rocket-08.jpg"",""time"":6751.900000000023},{""stimulus"":""run_exp/static/images/task_images/rocket-09.jpg"",""time"":7716.599999999977}]",[],6,,,,,,,,,,,,,,
alien_welcome,203,616093,0.0-65.0-1.0,,null,run_exp/static/images/task_images/aliens/old_aliens/planet/alien_planet-39.jpg,null,,,,,,,,,,,,39,"74,12,14,19,34,51,39,73,26,38,29,18,28,31,46,33,61,1,53,75,41,7,58,16,57,59,54",,,,,,,,,,
land,204,616597,0.0-65.0-2.0,,null,run_exp/static/images/task_images/land.jpg,null,,,,,,99,,,7,,,,,,,,,,,,,,
dig,205,618612,0.0-65.0-3.0,,,,,,,,,,,"[{""stimulus"":""run_exp/static/images/task_images/dig.jpg"",""time"":1.5},{""stimulus"":""run_exp/static/images/task_images/land.jpg"",""time"":679.0999999999767},{""stimulus"":""run_exp/static/images/task_images/dig.jpg"",""time"":1339.5}]",[],7,,,,,,,,,,,,,,
harvest,206,619617,0.0-65.0-4.0,,null,run_exp/static/images/task_images/gems/99.jpg,null,,,,,,75,,,7,,,,,99,0.757840627,0.757575758,,,,,,,
decision,207,620692,0.0-65.0-5.0,,1067.9,run_exp/static/images/task_images/land.jpg,65,,,,,,75,,,7,,,,,,,,266604,1,0,FALSE,,,
dig,208,622647,0.0-66.0-0.0,,,,,,,,,,,"[{""stimulus"":""run_exp/static/images/task_images/dig.jpg"",""time"":1.5},{""stimulus"":""run_exp/static/images/task_images/land.jpg"",""time"":649},{""stimulus"":""run_exp/static/images/task_images/dig.jpg"",""time"":1293.5}]",[],7,,,,,,,,,,,,,,
harvest,209,623652,0.0-66.0-1.0,,null,run_exp/static/images/task_images/gems/75.jpg,null,,,,,,60,,,7,,,,,75,0.79878827,0.8,,,,,,,
decision,210,624522,0.0-66.0-2.0,,866.7,run_exp/static/images/task_images/land.jpg,65,,,,,,60,,,7,,,,,,,,270434,1,1,FALSE,,,
dig,211,626669,0.0-67.0-0.0,,,,,,,,,,,"[{""stimulus"":""run_exp/static/images/task_images/dig.jpg"",""time"":0.9000000000232831},{""stimulus"":""run_exp/static/images/task_images/land.jpg"",""time"":716.2000000000698},{""stimulus"":""run_exp/static/images/task_images/dig.jpg"",""time"":1427.3000000000466}]",[],7,,,,,,,,,,,,,,
harvest,212,627677,0.0-67.0-1.0,,null,run_exp/static/images/task_images/gems/60.jpg,null,,,,,,50,,,7,,,,,60,0.838213326,0.833333333,,,,,,,
decision,213,627895,0.0-67.0-2.0,,209.6,run_exp/static/images/task_images/land.jpg,65,,,,,,50,,,7,,,,,,,,273807,1,2,FALSE,,,
dig,214,630707,0.0-68.0-0.0,,,,,,,,,,,"[{""stimulus"":""run_exp/static/images/task_images/dig.jpg"",""time"":1.2000000000698492},{""stimulus"":""run_exp/static/images/task_images/land.jpg"",""time"":935.5},{""stimulus"":""run_exp/static/images/task_images/dig.jpg"",""time"":1865.8000000000466}]",[],7,,,,,,,,,,,,,,
harvest,215,631714,0.0-68.0-1.0,,null,run_exp/static/images/task_images/gems/50.jpg,null,,,,,,40,,,7,,,,,50,0.805684265,0.8,,,,,,,
decision,216,631866,0.0-68.0-2.0,,143.9,run_exp/static/images/task_images/land.jpg,65,,,,,,40,,,7,,,,,,,,277778,1,3,FALSE,,,
dig,217,634746,0.0-69.0-0.0,,,,,,,,,,,"[{""stimulus"":""run_exp/static/images/task_images/dig.jpg"",""time"":1.2999999999301508},{""stimulus"":""run_exp/static/images/task_images/land.jpg"",""time"":958.0999999999767},{""stimulus"":""run_exp/static/images/task_images/dig.jpg"",""time"":1910.0999999999767}]",[],7,,,,,,,,,,,,,,
harvest,218,635752,0.0-69.0-1.0,,null,run_exp/static/images/task_images/gems/40.jpg,null,,,,,,33,,,7,,,,,40,0.835387962,0.825,,,,,,,
decision,219,636628,0.0-69.0-2.0,,873.2,run_exp/static/images/task_images/land.jpg,65,,,,,,33,,,7,,,,,,,,282541,1,4,FALSE,,,
dig,220,638768,0.0-70.0-0.0,,,,,,,,,,,"[{""stimulus"":""run_exp/static/images/task_images/dig.jpg"",""time"":0.8999999999068677},{""stimulus"":""run_exp/static/images/task_images/land.jpg"",""time"":712.8999999999069},{""stimulus"":""run_exp/static/images/task_images/dig.jpg"",""time"":1421.1999999999534}]",[],7,,,,,,,,,,,,,,
harvest,221,639774,0.0-70.0-1.0,,null,run_exp/static/images/task_images/gems/33.jpg,null,,,,,,26,,,7,,,,,33,0.78492474,0.787878788,,,,,,,
decision,222,640602,0.0-70.0-2.0,,824.8,run_exp/static/images/task_images/land.jpg,65,,,,,,26,,,7,,,,,,,,286514,1,5,FALSE,,,
dig,223,642801,0.0-71.0-0.0,,,,,,,,,,,"[{""stimulus"":""run_exp/static/images/task_images/dig.jpg"",""time"":1.099999999976717},{""stimulus"":""run_exp/static/images/task_images/land.jpg"",""time"":729},{""stimulus"":""run_exp/static/images/task_images/dig.jpg"",""time"":1455.3000000000466}]",[],7,,,,,,,,,,,,,,
harvest,224,643809,0.0-71.0-1.0,,null,run_exp/static/images/task_images/gems/26.jpg,null,,,,,,22,,,7,,,,,26,0.837792376,0.846153846,,,,,,,
decision,225,644031,0.0-71.0-2.0,,214.8,run_exp/static/images/task_images/land.jpg,65,,,,,,22,,,7,,,,,,,,289943,1,6,FALSE,,,
dig,226,646841,0.0-72.0-0.0,,,,,,,,,,,"[{""stimulus"":""run_exp/static/images/task_images/dig.jpg"",""time"":0.9000000000232831},{""stimulus"":""run_exp/static/images/task_images/land.jpg"",""time"":937.6999999999534},{""stimulus"":""run_exp/static/images/task_images/dig.jpg"",""time"":1866.8000000000466}]",[],7,,,,,,,,,,,,,,
harvest,227,647848,0.0-72.0-1.0,,null,run_exp/static/images/task_images/gems/22.jpg,null,,,,,,18,,,7,,,,,22,0.796438885,0.818181818,,,,,,,
decision,228,648698,0.0-72.0-2.0,,842.8,run_exp/static/images/task_images/land.jpg,65,,,,,,18,,,7,,,,,,,,294610,1,7,FALSE,,,
dig,229,650880,0.0-73.0-0.0,,,,,,,,,,,"[{""stimulus"":""run_exp/static/images/task_images/dig.jpg"",""time"":1.2000000000698492},{""stimulus"":""run_exp/static/images/task_images/land.jpg"",""time"":724.8000000000466},{""stimulus"":""run_exp/static/images/task_images/dig.jpg"",""time"":1444}]",[],7,,,,,,,,,,,,,,
harvest,230,651888,0.0-73.0-1.0,,null,run_exp/static/images/task_images/gems/18.jpg,null,,,,,,14,,,7,,,,,18,0.786533391,0.777777778,,,,,,,
decision,231,652077,0.0-73.0-2.0,,180.4,run_exp/static/images/task_images/land.jpg,65,,,,,,14,,,7,,,,,,,,297990,1,8,FALSE,,,
dig,232,654925,0.0-74.0-0.0,,,,,,,,,,,"[{""stimulus"":""run_exp/static/images/task_images/dig.jpg"",""time"":1.099999999976717},{""stimulus"":""run_exp/static/images/task_images/land.jpg"",""time"":944.8000000000466},{""stimulus"":""run_exp/static/images/task_images/dig.jpg"",""time"":1884.2000000000698}]",[],7,,,,,,,,,,,,,,
harvest,233,655933,0.0-74.0-1.0,,null,run_exp/static/images/task_images/gems/14.jpg,null,,,,,,12,,,7,,,,,14,0.845562604,0.857142857,,,,,,,
decision,234,656644,0.0-74.0-2.0,,703.5,run_exp/static/images/task_images/land.jpg,65,,,,,,12,,,7,,,,,,,,302556,1,9,TRUE,,,
end_of_block_continue,235,664310,0.0-75.0-0.0,,7644.4,run_exp/static/audio/clip_32_block_end.m4a,,,,,,0,,,,,,,,,,,,,,,,,,
alien_welcome,236,669337,0.0-76.0-0.0,,null,run_exp/static/images/task_images/aliens/old_aliens/planet/alien_planet-73.jpg,null,,,,,,,,,,,,73,"74,12,14,19,34,51,39,73,26,38,29,18,28,31,46,33,61,1,53,75,41,7,58,16,57,59,54",,,,,,,,,,
land,237,669845,0.0-76.0-1.0,,null,run_exp/static/images/task_images/land.jpg,null,,,,,,103,,,8,,,,,,,,,,,,,,
dig,238,671868,0.0-76.0-2.0,,,,,,,,,,,"[{""stimulus"":""run_exp/static/images/task_images/dig.jpg"",""time"":1.6999999999534339},{""stimulus"":""run_exp/static/images/task_images/land.jpg"",""time"":675},{""stimulus"":""run_exp/static/images/task_images/dig.jpg"",""time"":1341.5999999999767}]",[],8,,,,,,,,,,,,,,
harvest,239,672874,0.0-76.0-3.0,,null,run_exp/static/images/task_images/gems/103.jpg,null,,,,,,20,,,8,,,,,103,0.192289574,0.194174757,,,,,,,
decision,240,674004,0.0-76.0-4.0,,1126.3,run_exp/static/images/task_images/land.jpg,65,,,,,,20,,,8,,,,,,,,9675,2,0,FALSE,,,
dig,241,675901,0.0-77.0-0.0,,,,,,,,,,,"[{""stimulus"":""run_exp/static/images/task_images/dig.jpg"",""time"":1.3000000000465661},{""stimulus"":""run_exp/static/images/task_images/land.jpg"",""time"":630.8000000000466},{""stimulus"":""run_exp/static/images/task_images/dig.jpg"",""time"":1254.5999999999767}]",[],8,,,,,,,,,,,,,,
harvest,242,676910,0.0-77.0-1.0,,null,run_exp/static/images/task_images/gems/20.jpg,null,,,,,,4,,,8,,,,,20,0.198510192,0.2,,,,,,,
decision,243,676940,0.0-77.0-2.0,,20.8,run_exp/static/images/task_images/land.jpg,65,,,,,,4,,,8,,,,,,,,12611,2,1,FALSE,,,
dig,244,679944,0.0-78.0-0.0,,,,,,,,,,,"[{""stimulus"":""run_exp/static/images/task_images/dig.jpg"",""time"":1.1999999999534339},{""stimulus"":""run_exp/static/images/task_images/land.jpg"",""time"":999.1999999999534},{""stimulus"":""run_exp/static/images/task_images/dig.jpg"",""time"":1992.2999999999302}]",[],8,,,,,,,,,,,,,,
harvest,245,680951,0.0-78.0-1.0,,null,run_exp/static/images/task_images/gems/4.jpg,null,,,,,,1,,,8,,,,,4,0.276180999,0.25,,,,,,,
decision,246,681978,0.0-78.0-2.0,,1018,run_exp/static/images/task_images/land.jpg,76,,,,,,1,,,8,,,,,,,,17649,2,2,TRUE,,,
travel,247,690986,0.0-79.0-0.0,,,,,,,,,,,"[{""stimulus"":""run_exp/static/images/task_images/rocket-01.jpg"",""time"":1.2000000000698492},{""stimulus"":""run_exp/static/images/task_images/rocket-02.jpg"",""time"":1004.5999999999767},{""stimulus"":""run_exp/static/images/task_images/rocket-03.jpg"",""time"":2002.9000000000233},{""stimulus"":""run_exp/static/images/task_images/rocket-04.jpg"",""time"":3000.4000000000233},{""stimulus"":""run_exp/static/images/task_images/rocket-05.jpg"",""time"":3998.5},{""stimulus"":""run_exp/static/images/task_images/rocket-06.jpg"",""time"":4996.599999999977},{""stimulus"":""run_exp/static/images/task_images/rocket-07.jpg"",""time"":5994.5},{""stimulus"":""run_exp/static/images/task_images/rocket-08.jpg"",""time"":6992.400000000023},{""stimulus"":""run_exp/static/images/task_images/rocket-09.jpg"",""time"":7990.400000000023}]",[],8,,,,,,,,,,,,,,
alien_welcome,248,695996,0.0-79.0-1.0,,null,run_exp/static/images/task_images/aliens/old_aliens/planet/alien_planet-26.jpg,null,,,,,,,,,,,,26,"74,12,14,19,34,51,39,73,26,38,29,18,28,31,46,33,61,1,53,75,41,7,58,16,57,59,54",,,,,,,,,,
land,249,696505,0.0-79.0-2.0,,null,run_exp/static/images/task_images/land.jpg,null,,,,,,99,,,9,,,,,,,,,,,,,,
dig,250,698529,0.0-79.0-3.0,,,,,,,,,,,"[{""stimulus"":""run_exp/static/images/task_images/dig.jpg"",""time"":1.8000000000465661},{""stimulus"":""run_exp/static/images/task_images/land.jpg"",""time"":674.5},{""stimulus"":""run_exp/static/images/task_images/dig.jpg"",""time"":1341.5999999999767}]",[],9,,,,,,,,,,,,,,
harvest,251,699537,0.0-79.0-4.0,,null,run_exp/static/images/task_images/gems/99.jpg,null,,,,,,15,,,9,,,,,99,0.1473524,0.151515152,,,,,,,
decision,252,699838,0.0-79.0-5.0,,291.3,run_exp/static/images/task_images/land.jpg,65,,,,,,15,,,9,,,,,,,,35509,2,0,FALSE,,,
dig,253,702575,0.0-80.0-0.0,,,,,,,,,,,"[{""stimulus"":""run_exp/static/images/task_images/dig.jpg"",""time"":1.2999999999301508},{""stimulus"":""run_exp/static/images/task_images/land.jpg"",""time"":909.6999999999534},{""stimulus"":""run_exp/static/images/task_images/dig.jpg"",""time"":1811.0999999999767}]",[],9,,,,,,,,,,,,,,
harvest,254,703581,0.0-80.0-1.0,,null,run_exp/static/images/task_images/gems/15.jpg,null,,,,,,3,,,9,,,,,15,0.177716017,0.2,,,,,,,
decision,255,704432,0.0-80.0-2.0,,842.6,run_exp/static/images/task_images/land.jpg,65,,,,,,3,,,9,,,,,,,,40103,2,1,FALSE,,,
dig,256,706616,0.0-81.0-0.0,,,,,,,,,,,"[{""stimulus"":""run_exp/static/images/task_images/dig.jpg"",""time"":1.2999999999301508},{""stimulus"":""run_exp/static/images/task_images/land.jpg"",""time"":726},{""stimulus"":""run_exp/static/images/task_images/dig.jpg"",""time"":1444.5999999999767}]",[],9,,,,,,,,,,,,,,
harvest,257,707624,0.0-81.0-1.0,,null,run_exp/static/images/task_images/gems/3.jpg,null,,,,,,1,,,9,,,,,3,0.2304592,0.333333333,,,,,,,
decision,258,707809,0.0-81.0-2.0,,175.3,run_exp/static/images/task_images/land.jpg,76,,,,,,1,,,9,,,,,,,,43481,2,2,TRUE,,,
travel,259,717668,0.0-82.0-0.0,,,,,,,,,,,"[{""stimulus"":""run_exp/static/images/task_images/rocket-01.jpg"",""time"":1.5},{""stimulus"":""run_exp/static/images/task_images/rocket-02.jpg"",""time"":1097.5999999999767},{""stimulus"":""run_exp/static/images/task_images/rocket-03.jpg"",""time"":2188.8000000000466},{""stimulus"":""run_exp/static/images/task_images/rocket-04.jpg"",""time"":3279.4000000000233},{""stimulus"":""run_exp/static/images/task_images/rocket-05.jpg"",""time"":4370.900000000023},{""stimulus"":""run_exp/static/images/task_images/rocket-06.jpg"",""time"":5461.800000000047},{""stimulus"":""run_exp/static/images/task_images/rocket-07.jpg"",""time"":6552.800000000047},{""stimulus"":""run_exp/static/images/task_images/rocket-08.jpg"",""time"":7643.70000000007},{""stimulus"":""run_exp/static/images/task_images/rocket-09.jpg"",""time"":8734.70000000007}]",[],9,,,,,,,,,,,,,,
alien_welcome,260,722678,0.0-82.0-1.0,,null,run_exp/static/images/task_images/aliens/old_aliens/planet/alien_planet-38.jpg,null,,,,,,,,,,,,38,"74,12,14,19,34,51,39,73,26,38,29,18,28,31,46,33,61,1,53,75,41,7,58,16,57,59,54",,,,,,,,,,
land,261,723187,0.0-82.0-2.0,,null,run_exp/static/images/task_images/land.jpg,null,,,,,,100,,,10,,,,,,,,,,,,,,
dig,262,725206,0.0-82.0-3.0,,,,,,,,,,,"[{""stimulus"":""run_exp/static/images/task_images/dig.jpg"",""time"":1.400000000023283},{""stimulus"":""run_exp/static/images/task_images/land.jpg"",""time"":673.9000000000233},{""stimulus"":""run_exp/static/images/task_images/dig.jpg"",""time"":1341}]",[],10,,,,,,,,,,,,,,
harvest,263,726213,0.0-82.0-4.0,,null,run_exp/static/images/task_images/gems/100.jpg,null,,,,,,25,,,10,,,,,100,0.253062551,0.25,,,,,,,
decision,264,727368,0.0-82.0-5.0,,1151.9,run_exp/static/images/task_images/land.jpg,65,,,,,,25,,,10,,,,,,,,63039,2,0,FALSE,,,
dig,265,729236,0.0-83.0-0.0,,,,,,,,,,,"[{""stimulus"":""run_exp/static/images/task_images/dig.jpg"",""time"":1.1999999999534339},{""stimulus"":""run_exp/static/images/task_images/land.jpg"",""time"":623.1999999999534},{""stimulus"":""run_exp/static/images/task_images/dig.jpg"",""time"":1238.3999999999069}]",[],10,,,,,,,,,,,,,,
harvest,266,730246,0.0-83.0-1.0,,null,run_exp/static/images/task_images/gems/25.jpg,null,,,,,,8,,,10,,,,,25,0.310018422,0.32,,,,,,,
decision,267,730540,0.0-83.0-2.0,,284.7,run_exp/static/images/task_images/land.jpg,65,,,,,,8,,,10,,,,,,,,66211,2,1,FALSE,,,
dig,268,733284,0.0-84.0-0.0,,,,,,,,,,,"[{""stimulus"":""run_exp/static/images/task_images/dig.jpg"",""time"":1.7999999999301508},{""stimulus"":""run_exp/static/images/task_images/land.jpg"",""time"":912.6999999999534},{""stimulus"":""run_exp/static/images/task_images/dig.jpg"",""time"":1817.7999999999302}]",[],10,,,,,,,,,,,,,,
harvest,269,734293,0.0-84.0-1.0,,null,run_exp/static/images/task_images/gems/8.jpg,null,,,,,,2,,,10,,,,,8,0.248900329,0.25,,,,,,,
decision,270,734532,0.0-84.0-2.0,,230.3,run_exp/static/images/task_images/land.jpg,65,,,,,,2,,,10,,,,,,,,70203,2,2,FALSE,,,
dig,271,737330,0.0-85.0-0.0,,,,,,,,,,,"[{""stimulus"":""run_exp/static/images/task_images/dig.jpg"",""time"":1.1999999999534339},{""stimulus"":""run_exp/static/images/task_images/land.jpg"",""time"":929.5999999999767},{""stimulus"":""run_exp/static/images/task_images/dig.jpg"",""time"":1852.5999999999767}]",[],10,,,,,,,,,,,,,,
harvest,272,738338,0.0-85.0-1.0,,null,run_exp/static/images/task_images/gems/2.jpg,null,,,,,,0,,,10,,,,,2,0.17560921,0,,,,,,,
decision,273,738766,0.0-85.0-2.0,,419.3,run_exp/static/images/task_images/land.jpg,76,,,,,,0,,,10,,,,,,,,74437,2,3,TRUE,,,
travel,274,748370,0.0-86.0-0.0,,,,,,,,,,,"[{""stimulus"":""run_exp/static/images/task_images/rocket-01.jpg"",""time"":1.5},{""stimulus"":""run_exp/static/images/task_images/rocket-02.jpg"",""time"":1071.0999999999767},{""stimulus"":""run_exp/static/images/task_images/rocket-03.jpg"",""time"":2145.20000000007},{""stimulus"":""run_exp/static/images/task_images/rocket-04.jpg"",""time"":3199},{""stimulus"":""run_exp/static/images/task_images/rocket-05.jpg"",""time"":4263},{""stimulus"":""run_exp/static/images/task_images/rocket-06.jpg"",""time"":5327.400000000023},{""stimulus"":""run_exp/static/images/task_images/rocket-07.jpg"",""time"":6390.900000000023},{""stimulus"":""run_exp/static/images/task_images/rocket-08.jpg"",""time"":7455},{""stimulus"":""run_exp/static/images/task_images/rocket-09.jpg"",""time"":8518.900000000023}]",[],10,,,,,,,,,,,,,,
alien_welcome,275,753380,0.0-86.0-1.0,,null,run_exp/static/images/task_images/aliens/old_aliens/planet/alien_planet-29.jpg,null,,,,,,,,,,,,29,"74,12,14,19,34,51,39,73,26,38,29,18,28,31,46,33,61,1,53,75,41,7,58,16,57,59,54",,,,,,,,,,
land,276,753888,0.0-86.0-2.0,,null,run_exp/static/images/task_images/land.jpg,null,,,,,,93,,,11,,,,,,,,,,,,,,
dig,277,755913,0.0-86.0-3.0,,,,,,,,,,,"[{""stimulus"":""run_exp/static/images/task_images/dig.jpg"",""time"":2},{""stimulus"":""run_exp/static/images/task_images/land.jpg"",""time"":675.2000000000698},{""stimulus"":""run_exp/static/images/task_images/dig.jpg"",""time"":1341.1000000000931}]",[],11,,,,,,,,,,,,,,
harvest,278,756921,0.0-86.0-4.0,,null,run_exp/static/images/task_images/gems/93.jpg,null,,,,,,79,,,11,,,,,93,0.849747708,0.849462366,,,,,,,
decision,279,757194,0.0-86.0-5.0,,263.4,run_exp/static/images/task_images/land.jpg,65,,,,,,79,,,11,,,,,,,,92865,2,0,FALSE,,,
dig,280,759960,0.0-87.0-0.0,,,,,,,,,,,"[{""stimulus"":""run_exp/static/images/task_images/dig.jpg"",""time"":1.400000000023283},{""stimulus"":""run_exp/static/images/task_images/land.jpg"",""time"":918.7000000000698},{""stimulus"":""run_exp/static/images/task_images/dig.jpg"",""time"":1830.8000000000466}]",[],11,,,,,,,,,,,,,,
harvest,281,760967,0.0-87.0-1.0,,null,run_exp/static/images/task_images/gems/79.jpg,null,,,,,,68,,,11,,,,,79,0.855418896,0.860759494,,,,,,,
decision,282,762113,0.0-87.0-2.0,,1142.1,run_exp/static/images/task_images/land.jpg,65,,,,,,68,,,11,,,,,,,,97784,2,1,FALSE,,,
dig,283,763999,0.0-88.0-0.0,,,,,,,,,,,"[{""stimulus"":""run_exp/static/images/task_images/dig.jpg"",""time"":1.3000000000465661},{""stimulus"":""run_exp/static/images/task_images/land.jpg"",""time"":625.6000000000931},{""stimulus"":""run_exp/static/images/task_images/dig.jpg"",""time"":1244.4000000000233}]",[],11,,,,,,,,,,,,,,
harvest,284,765428,0.0-88.0-1.0,,null,run_exp/static/images/task_images/gems/68.jpg,null,,,,,,50,,,11,,,,,68,0.73304966,0.735294118,,,,,,,
decision,285,766271,0.0-88.0-2.0,,839.5,run_exp/static/images/task_images/land.jpg,65,,,,,,50,,,11,,,,,,,,101942,2,2,FALSE,,,
dig,286,768449,0.0-89.0-0.0,,,,,,,,,,,"[{""stimulus"":""run_exp/static/images/task_images/dig.jpg"",""time"":1},{""stimulus"":""run_exp/static/images/task_images/land.jpg"",""time"":726.5},{""stimulus"":""run_exp/static/images/task_images/dig.jpg"",""time"":1446.0999999999767}]",[],11,,,,,,,,,,,,,,
harvest,287,769459,0.0-89.0-1.0,,null,run_exp/static/images/task_images/gems/50.jpg,null,,,,,,46,,,11,,,,,50,0.924315743,0.92,,,,,,,
decision,288,769574,0.0-89.0-2.0,,105.2,run_exp/static/images/task_images/land.jpg,65,,,,,,46,,,11,,,,,,,,105245,2,3,FALSE,,,
dig,289,772506,0.0-90.0-0.0,,,,,,,,,,,"[{""stimulus"":""run_exp/static/images/task_images/dig.jpg"",""time"":1.5},{""stimulus"":""run_exp/static/images/task_images/land.jpg"",""time"":971},{""stimulus"":""run_exp/static/images/task_images/dig.jpg"",""time"":1935.3000000000466}]",[],11,,,,,,,,,,,,,,
harvest,290,773910,0.0-90.0-1.0,,null,run_exp/static/images/task_images/gems/46.jpg,null,,,,,,32,,,11,,,,,46,0.700061795,0.695652174,,,,,,,
decision,291,774344,0.0-90.0-2.0,,431.1,run_exp/static/images/task_images/land.jpg,65,,,,,,32,,,11,,,,,,,,110015,2,4,FALSE,,,
dig,292,776930,0.0-91.0-0.0,,,,,,,,,,,"[{""stimulus"":""run_exp/static/images/task_images/dig.jpg"",""time"":1},{""stimulus"":""run_exp/static/images/task_images/land.jpg"",""time"":862},{""stimulus"":""run_exp/static/images/task_images/dig.jpg"",""time"":1718.5999999999767}]",[],11,,,,,,,,,,,,,,
harvest,293,777939,0.0-91.0-1.0,,null,run_exp/static/images/task_images/gems/32.jpg,null,,,,,,26,,,11,,,,,32,0.812585322,0.8125,,,,,,,
decision,294,778718,0.0-91.0-2.0,,770.9,run_exp/static/images/task_images/land.jpg,65,,,,,,26,,,11,,,,,,,,114389,2,5,FALSE,,,
dig,295,780973,0.0-92.0-0.0,,,,,,,,,,,"[{""stimulus"":""run_exp/static/images/task_images/dig.jpg"",""time"":1.3000000000465661},{""stimulus"":""run_exp/static/images/task_images/land.jpg"",""time"":748.8000000000466},{""stimulus"":""run_exp/static/images/task_images/dig.jpg"",""time"":1491.6999999999534}]",[],11,,,,,,,,,,,,,,
harvest,296,781981,0.0-92.0-1.0,,null,run_exp/static/images/task_images/gems/26.jpg,null,,,,,,20,,,11,,,,,26,0.769480877,0.769230769,,,,,,,
decision,297,782233,0.0-92.0-2.0,,243.8,run_exp/static/images/task_images/land.jpg,65,,,,,,20,,,11,,,,,,,,117904,2,6,FALSE,,,
dig,298,785007,0.0-93.0-0.0,,,,,,,,,,,"[{""stimulus"":""run_exp/static/images/task_images/dig.jpg"",""time"":1},{""stimulus"":""run_exp/static/images/task_images/land.jpg"",""time"":923.1999999999534},{""stimulus"":""run_exp/static/images/task_images/dig.jpg"",""time"":1840.5999999999767}]",[],11,,,,,,,,,,,,,,
harvest,299,786015,0.0-93.0-1.0,,null,run_exp/static/images/task_images/gems/20.jpg,null,,,,,,15,,,11,,,,,20,0.755867364,0.75,,,,,,,
decision,300,786226,0.0-93.0-2.0,,203.9,run_exp/static/images/task_images/land.jpg,65,,,,,,15,,,11,,,,,,,,121898,2,7,FALSE,,,
dig,301,789043,0.0-94.0-0.0,,,,,,,,,,,"[{""stimulus"":""run_exp/static/images/task_images/dig.jpg"",""time"":1},{""stimulus"":""run_exp/static/images/task_images/land.jpg"",""time"":937},{""stimulus"":""run_exp/static/images/task_images/dig.jpg"",""time"":1868.5}]",[],11,,,,,,,,,,,,,,
harvest,302,790051,0.0-94.0-1.0,,null,run_exp/static/images/task_images/gems/15.jpg,null,,,,,,12,,,11,,,,,15,0.824254573,0.8,,,,,,,
decision,303,790086,0.0-94.0-2.0,,27.2,run_exp/static/images/task_images/land.jpg,65,,,,,,12,,,11,,,,,,,,125757,2,8,FALSE,,,
dig,304,793077,0.0-95.0-0.0,,,,,,,,,,,"[{""stimulus"":""run_exp/static/images/task_images/dig.jpg"",""time"":0.9000000000232831},{""stimulus"":""run_exp/static/images/task_images/land.jpg"",""time"":994.6999999999534},{""stimulus"":""run_exp/static/images/task_images/dig.jpg"",""time"":1984.5}]",[],11,,,,,,,,,,,,,,
harvest,305,794084,0.0-95.0-1.0,,null,run_exp/static/images/task_images/gems/12.jpg,null,,,,,,10,,,11,,,,,12,0.803662301,0.833333333,,,,,,,
decision,306,794551,0.0-95.0-2.0,,464.2,run_exp/static/images/task_images/land.jpg,65,,,,,,10,,,11,,,,,,,,130222,2,9,FALSE,,,
dig,307,797107,0.0-96.0-0.0,,,,,,,,,,,"[{""stimulus"":""run_exp/static/images/task_images/dig.jpg"",""time"":1.1999999999534339},{""stimulus"":""run_exp/static/images/task_images/land.jpg"",""time"":850.6999999999534},{""stimulus"":""run_exp/static/images/task_images/dig.jpg"",""time"":1695.6999999999534}]",[],11,,,,,,,,,,,,,,
harvest,308,798115,0.0-96.0-1.0,,null,run_exp/static/images/task_images/gems/10.jpg,null,,,,,,8,,,11,,,,,10,0.82360318,0.8,,,,,,,
decision,309,799027,0.0-96.0-2.0,,905,run_exp/static/images/task_images/land.jpg,65,,,,,,8,,,11,,,,,,,,134698,2,10,FALSE,,,
dig,310,801144,0.0-97.0-0.0,,,,,,,,,,,"[{""stimulus"":""run_exp/static/images/task_images/dig.jpg"",""time"":1.3000000000465661},{""stimulus"":""run_exp/static/images/task_images/land.jpg"",""time"":703.1000000000931},{""stimulus"":""run_exp/static/images/task_images/dig.jpg"",""time"":1401.2000000000698}]",[],11,,,,,,,,,,,,,,
harvest,311,802152,0.0-97.0-1.0,,null,run_exp/static/images/task_images/gems/8.jpg,null,,,,,,7,,,11,,,,,8,0.836281319,0.875,,,,,,,
decision,312,802501,0.0-97.0-2.0,,341.6,run_exp/static/images/task_images/land.jpg,65,,,,,,7,,,11,,,,,,,,138172,2,11,FALSE,,,
dig,313,805180,0.0-98.0-0.0,,,,,,,,,,,"[{""stimulus"":""run_exp/static/images/task_images/dig.jpg"",""time"":1.1000000000931323},{""stimulus"":""run_exp/static/images/task_images/land.jpg"",""time"":890.9000000000233},{""stimulus"":""run_exp/static/images/task_images/dig.jpg"",""time"":1777}]",[],11,,,,,,,,,,,,,,
harvest,314,806186,0.0-98.0-1.0,,null,run_exp/static/images/task_images/gems/7.jpg,null,,,,,,6,,,11,,,,,7,0.819212229,0.857142857,,,,,,,
decision,315,807112,0.0-98.0-2.0,,922.7,run_exp/static/images/task_images/land.jpg,65,,,,,,6,,,11,,,,,,,,142783,2,12,FALSE,,,
dig,316,809202,0.0-99.0-0.0,,,,,,,,,,,"[{""stimulus"":""run_exp/static/images/task_images/dig.jpg"",""time"":0.6999999999534339},{""stimulus"":""run_exp/static/images/task_images/land.jpg"",""time"":696.3000000000466},{""stimulus"":""run_exp/static/images/task_images/dig.jpg"",""time"":1388.3000000000466}]",[],11,,,,,,,,,,,,,,
harvest,317,810208,0.0-99.0-1.0,,null,run_exp/static/images/task_images/gems/6.jpg,null,,,,,,5,,,11,,,,,6,0.759370324,0.833333333,,,,,,,
decision,318,810953,0.0-99.0-2.0,,742,run_exp/static/images/task_images/land.jpg,65,,,,,,5,,,11,,,,,,,,146625,2,13,FALSE,,,
dig,319,813224,0.0-100.0-0.0,,,,,,,,,,,"[{""stimulus"":""run_exp/static/images/task_images/dig.jpg"",""time"":0.8999999999068677},{""stimulus"":""run_exp/static/images/task_images/land.jpg"",""time"":757},{""stimulus"":""run_exp/static/images/task_images/dig.jpg"",""time"":1508.8999999999069}]",[],11,,,,,,,,,,,,,,
harvest,320,814231,0.0-100.0-1.0,,null,run_exp/static/images/task_images/gems/5.jpg,null,,,,,,4,,,11,,,,,5,0.809700606,0.8,,,,,,,
decision,321,814701,0.0-100.0-2.0,,462.5,run_exp/static/images/task_images/land.jpg,65,,,,,,4,,,11,,,,,,,,150373,2,14,FALSE,,,
dig,322,817257,0.0-101.0-0.0,,,,,,,,,,,"[{""stimulus"":""run_exp/static/images/task_images/dig.jpg"",""time"":1},{""stimulus"":""run_exp/static/images/task_images/land.jpg"",""time"":849.6999999999534},{""stimulus"":""run_exp/static/images/task_images/dig.jpg"",""time"":1694.9000000000233}]",[],11,,,,,,,,,,,,,,
harvest,323,818263,0.0-101.0-1.0,,null,run_exp/static/images/task_images/gems/4.jpg,null,,,,,,3,,,11,,,,,4,0.799345875,0.75,,,,,,,
decision,324,818340,0.0-101.0-2.0,,69.2,run_exp/static/images/task_images/land.jpg,65,,,,,,3,,,11,,,,,,,,154012,2,15,FALSE,,,
dig,325,821291,0.0-102.0-0.0,,,,,,,,,,,"[{""stimulus"":""run_exp/static/images/task_images/dig.jpg"",""time"":1},{""stimulus"":""run_exp/static/images/task_images/land.jpg"",""time"":981.1999999999534},{""stimulus"":""run_exp/static/images/task_images/dig.jpg"",""time"":1956.9000000000233}]",[],11,,,,,,,,,,,,,,
harvest,326,822299,0.0-102.0-1.0,,null,run_exp/static/images/task_images/gems/3.jpg,null,,,,,,2,,,11,,,,,3,0.791602588,0.666666667,,,,,,,
decision,327,822562,0.0-102.0-2.0,,255.5,run_exp/static/images/task_images/land.jpg,76,,,,,,2,,,11,,,,,,,,158234,2,16,TRUE,,,
travel,328,832322,0.0-103.0-0.0,,,,,,,,,,,"[{""stimulus"":""run_exp/static/images/task_images/rocket-01.jpg"",""time"":1.2000000000698492},{""stimulus"":""run_exp/static/images/task_images/rocket-02.jpg"",""time"":1091.4000000000233},{""stimulus"":""run_exp/static/images/task_images/rocket-03.jpg"",""time"":2172.20000000007},{""stimulus"":""run_exp/static/images/task_images/rocket-04.jpg"",""time"":3251},{""stimulus"":""run_exp/static/images/task_images/rocket-05.jpg"",""time"":4333.300000000047},{""stimulus"":""run_exp/static/images/task_images/rocket-06.jpg"",""time"":5415.300000000047},{""stimulus"":""run_exp/static/images/task_images/rocket-07.jpg"",""time"":6497.20000000007},{""stimulus"":""run_exp/static/images/task_images/rocket-08.jpg"",""time"":7578.900000000023},{""stimulus"":""run_exp/static/images/task_images/rocket-09.jpg"",""time"":8661.400000000023}]",[],11,,,,,,,,,,,,,,
alien_welcome,329,837330,0.0-103.0-1.0,,null,run_exp/static/images/task_images/aliens/old_aliens/planet/alien_planet-18.jpg,null,,,,,,,,,,,,18,"74,12,14,19,34,51,39,73,26,38,29,18,28,31,46,33,61,1,53,75,41,7,58,16,57,59,54",,,,,,,,,,
land,330,837837,0.0-103.0-2.0,,null,run_exp/static/images/task_images/land.jpg,null,,,,,,96,,,12,,,,,,,,,,,,,,
dig,331,839849,0.0-103.0-3.0,,,,,,,,,,,"[{""stimulus"":""run_exp/static/images/task_images/dig.jpg"",""time"":0.9000000000232831},{""stimulus"":""run_exp/static/images/task_images/land.jpg"",""time"":671.7000000000698},{""stimulus"":""run_exp/static/images/task_images/dig.jpg"",""time"":1339}]",[],12,,,,,,,,,,,,,,
harvest,332,840855,0.0-103.0-4.0,,null,run_exp/static/images/task_images/gems/96.jpg,null,,,,,,84,,,12,,,,,96,0.878328939,0.875,,,,,,,
decision,333,841651,0.0-103.0-5.0,,792.5,run_exp/static/images/task_images/land.jpg,65,,,,,,84,,,12,,,,,,,,177322,2,0,FALSE,,,
dig,334,843881,0.0-104.0-0.0,,,,,,,,,,,"[{""stimulus"":""run_exp/static/images/task_images/dig.jpg"",""time"":1.099999999976717},{""stimulus"":""run_exp/static/images/task_images/land.jpg"",""time"":740},{""stimulus"":""run_exp/static/images/task_images/dig.jpg"",""time"":1474.6999999999534}]",[],12,,,,,,,,,,,,,,
harvest,335,844887,0.0-104.0-1.0,,null,run_exp/static/images/task_images/gems/84.jpg,null,,,,,,72,,,12,,,,,84,0.855581325,0.857142857,,,,,,,
decision,336,845870,0.0-104.0-2.0,,980.2,run_exp/static/images/task_images/land.jpg,65,,,,,,72,,,12,,,,,,,,181541,2,1,FALSE,,,
dig,337,847904,0.0-105.0-0.0,,,,,,,,,,,"[{""stimulus"":""run_exp/static/images/task_images/dig.jpg"",""time"":0.8000000000465661},{""stimulus"":""run_exp/static/images/task_images/land.jpg"",""time"":677.3000000000466},{""stimulus"":""run_exp/static/images/task_images/dig.jpg"",""time"":1352.5}]",[],12,,,,,,,,,,,,,,
harvest,338,848910,0.0-105.0-1.0,,null,run_exp/static/images/task_images/gems/72.jpg,null,,,,,,60,,,12,,,,,72,0.832819665,0.833333333,,,,,,,
decision,339,849507,0.0-105.0-2.0,,591.5,run_exp/static/images/task_images/land.jpg,65,,,,,,60,,,12,,,,,,,,185179,2,2,FALSE,,,
dig,340,851937,0.0-106.0-0.0,,,,,,,,,,,"[{""stimulus"":""run_exp/static/images/task_images/dig.jpg"",""time"":1},{""stimulus"":""run_exp/static/images/task_images/land.jpg"",""time"":806.8000000000466},{""stimulus"":""run_exp/static/images/task_images/dig.jpg"",""time"":1608.7000000000698}]",[],12,,,,,,,,,,,,,,
harvest,341,852944,0.0-106.0-1.0,,null,run_exp/static/images/task_images/gems/60.jpg,null,,,,,,48,,,12,,,,,60,0.800168236,0.8,,,,,,,
decision,342,852951,0.0-106.0-2.0,,0.6,run_exp/static/images/task_images/land.jpg,65,,,,,,48,,,12,,,,,,,,188622,2,3,FALSE,,,
dig,343,855970,0.0-107.0-0.0,,,,,,,,,,,"[{""stimulus"":""run_exp/static/images/task_images/dig.jpg"",""time"":1.1000000000931323},{""stimulus"":""run_exp/static/images/task_images/land.jpg"",""time"":1003.9000000000233},{""stimulus"":""run_exp/static/images/task_images/dig.jpg"",""time"":2003.2000000000698}]",[],12,,,,,,,,,,,,,,
harvest,344,856976,0.0-107.0-1.0,,null,run_exp/static/images/task_images/gems/48.jpg,null,,,,,,37,,,12,,,,,48,0.772367443,0.770833333,,,,,,,
decision,345,857377,0.0-107.0-2.0,,398.2,run_exp/static/images/task_images/land.jpg,65,,,,,,37,,,12,,,,,,,,193048,2,4,FALSE,,,
dig,346,860002,0.0-108.0-0.0,,,,,,,,,,,"[{""stimulus"":""run_exp/static/images/task_images/dig.jpg"",""time"":1.5},{""stimulus"":""run_exp/static/images/task_images/land.jpg"",""time"":872.2999999999302},{""stimulus"":""run_exp/static/images/task_images/dig.jpg"",""time"":1740}]",[],12,,,,,,,,,,,,,,
harvest,347,861008,0.0-108.0-1.0,,null,run_exp/static/images/task_images/gems/37.jpg,null,,,,,,26,,,12,,,,,37,0.700093388,0.702702703,,,,,,,
decision,348,861827,0.0-108.0-2.0,,816.4,run_exp/static/images/task_images/land.jpg,65,,,,,,26,,,12,,,,,,,,197498,2,5,FALSE,,,
dig,349,864023,0.0-109.0-0.0,,,,,,,,,,,"[{""stimulus"":""run_exp/static/images/task_images/dig.jpg"",""time"":0.7000000000698492},{""stimulus"":""run_exp/static/images/task_images/land.jpg"",""time"":730.8000000000466},{""stimulus"":""run_exp/static/images/task_images/dig.jpg"",""time"":1458.4000000000233}]",[],12,,,,,,,,,,,,,,
harvest,350,865032,0.0-109.0-1.0,,null,run_exp/static/images/task_images/gems/26.jpg,null,,,,,,21,,,12,,,,,26,0.825042826,0.807692308,,,,,,,
decision,351,865246,0.0-109.0-2.0,,206.2,run_exp/static/images/task_images/land.jpg,65,,,,,,21,,,12,,,,,,,,200918,2,6,FALSE,,,
dig,352,868060,0.0-110.0-0.0,,,,,,,,,,,"[{""stimulus"":""run_exp/static/images/task_images/dig.jpg"",""time"":1},{""stimulus"":""run_exp/static/images/task_images/land.jpg"",""time"":935.8999999999069},{""stimulus"":""run_exp/static/images/task_images/dig.jpg"",""time"":1867.0999999999767}]",[],12,,,,,,,,,,,,,,
harvest,353,869063,0.0-110.0-1.0,,null,run_exp/static/images/task_images/gems/21.jpg,null,,,,,,18,,,12,,,,,21,0.86176498,0.857142857,,,,,,,
decision,354,869823,0.0-110.0-2.0,,756.9,run_exp/static/images/task_images/land.jpg,65,,,,,,18,,,12,,,,,,,,205494,2,7,FALSE,,,
dig,355,872081,0.0-111.0-0.0,,,,,,,,,,,"[{""stimulus"":""run_exp/static/images/task_images/dig.jpg"",""time"":0.8000000000465661},{""stimulus"":""run_exp/static/images/task_images/land.jpg"",""time"":751.6999999999534},{""stimulus"":""run_exp/static/images/task_images/dig.jpg"",""time"":1498.3000000000466}]",[],12,,,,,,,,,,,,,,
harvest,356,873087,0.0-111.0-1.0,,null,run_exp/static/images/task_images/gems/18.jpg,null,,,,,,12,,,12,,,,,18,0.689634649,0.666666667,,,,,,,
decision,357,873595,0.0-111.0-2.0,,501.8,run_exp/static/images/task_images/land.jpg,65,,,,,,12,,,12,,,,,,,,209266,2,8,FALSE,,,
dig,358,876113,0.0-112.0-0.0,,,,,,,,,,,"[{""stimulus"":""run_exp/static/images/task_images/dig.jpg"",""time"":1},{""stimulus"":""run_exp/static/images/task_images/land.jpg"",""time"":837.0999999999767},{""stimulus"":""run_exp/static/images/task_images/dig.jpg"",""time"":1669}]",[],12,,,,,,,,,,,,,,
harvest,359,877122,0.0-112.0-1.0,,null,run_exp/static/images/task_images/gems/12.jpg,null,,,,,,10,,,12,,,,,12,0.849596892,0.833333333,,,,,,,
decision,360,877128,0.0-112.0-2.0,,0.5,run_exp/static/images/task_images/land.jpg,65,,,,,,10,,,12,,,,,,,,212800,2,9,FALSE,,,
dig,361,880149,0.0-113.0-0.0,,,,,,,,,,,"[{""stimulus"":""run_exp/static/images/task_images/dig.jpg"",""time"":1},{""stimulus"":""run_exp/static/images/task_images/land.jpg"",""time"":1002.6999999999534},{""stimulus"":""run_exp/static/images/task_images/dig.jpg"",""time"":2003.0999999999767}]",[],12,,,,,,,,,,,,,,
harvest,362,881156,0.0-113.0-1.0,,null,run_exp/static/images/task_images/gems/10.jpg,null,,,,,,8,,,12,,,,,10,0.84229009,0.8,,,,,,,
decision,363,881642,0.0-113.0-2.0,,479.7,run_exp/static/images/task_images/land.jpg,65,,,,,,8,,,12,,,,,,,,217315,2,10,FALSE,,,
dig,364,884195,0.0-114.0-0.0,,,,,,,,,,,"[{""stimulus"":""run_exp/static/images/task_images/dig.jpg"",""time"":1.5},{""stimulus"":""run_exp/static/images/task_images/land.jpg"",""time"":844.7999999999302},{""stimulus"":""run_exp/static/images/task_images/dig.jpg"",""time"":1686.2999999999302}]",[],12,,,,,,,,,,,,,,
harvest,365,885202,0.0-114.0-1.0,,null,run_exp/static/images/task_images/gems/8.jpg,null,,,,,,7,,,12,,,,,8,0.857621354,0.875,,,,,,,
decision,366,885640,0.0-114.0-2.0,,432.4,run_exp/static/images/task_images/land.jpg,65,,,,,,7,,,12,,,,,,,,221311,2,11,FALSE,,,
dig,367,888229,0.0-115.0-0.0,,,,,,,,,,,"[{""stimulus"":""run_exp/static/images/task_images/dig.jpg"",""time"":1.1000000000931323},{""stimulus"":""run_exp/static/images/task_images/land.jpg"",""time"":858.9000000000233},{""stimulus"":""run_exp/static/images/task_images/dig.jpg"",""time"":1715.1000000000931}]",[],12,,,,,,,,,,,,,,
harvest,368,889234,0.0-115.0-1.0,,null,run_exp/static/images/task_images/gems/7.jpg,null,,,,,,5,,,12,,,,,7,0.722375539,0.714285714,,,,,,,
decision,369,889275,0.0-115.0-2.0,,36.1,run_exp/static/images/task_images/land.jpg,65,,,,,,5,,,12,,,,,,,,224947,2,12,FALSE,,,
dig,370,892255,0.0-116.0-0.0,,,,,,,,,,,"[{""stimulus"":""run_exp/static/images/task_images/dig.jpg"",""time"":0.9000000000232831},{""stimulus"":""run_exp/static/images/task_images/land.jpg"",""time"":991.7999999999302},{""stimulus"":""run_exp/static/images/task_images/dig.jpg"",""time"":1979.9000000000233}]",[],12,,,,,,,,,,,,,,
harvest,371,893261,0.0-116.0-1.0,,null,run_exp/static/images/task_images/gems/5.jpg,null,,,,,,4,,,12,,,,,5,0.880667262,0.8,,,,,,,
decision,372,893281,0.0-116.0-2.0,,15.8,run_exp/static/images/task_images/land.jpg,65,,,,,,4,,,12,,,,,,,,228953,2,13,FALSE,,,
dig,373,896290,0.0-117.0-0.0,,,,,,,,,,,"[{""stimulus"":""run_exp/static/images/task_images/dig.jpg"",""time"":1.3000000000465661},{""stimulus"":""run_exp/static/images/task_images/land.jpg"",""time"":999.5},{""stimulus"":""run_exp/static/images/task_images/dig.jpg"",""time"":1993.3000000000466}]",[],12,,,,,,,,,,,,,,
harvest,374,897298,0.0-117.0-1.0,,null,run_exp/static/images/task_images/gems/4.jpg,null,,,,,,3,,,12,,,,,4,0.759034557,0.75,,,,,,,
decision,375,897660,0.0-117.0-2.0,,354.2,run_exp/static/images/task_images/land.jpg,65,,,,,,3,,,12,,,,,,,,233331,2,14,FALSE,,,
dig,376,900331,0.0-118.0-0.0,,,,,,,,,,,"[{""stimulus"":""run_exp/static/images/task_images/dig.jpg"",""time"":1.5},{""stimulus"":""run_exp/static/images/task_images/land.jpg"",""time"":886.7999999998137},{""stimulus"":""run_exp/static/images/task_images/dig.jpg"",""time"":1767.7999999998137}]",[],12,,,,,,,,,,,,,,
harvest,377,901338,0.0-118.0-1.0,,null,run_exp/static/images/task_images/gems/3.jpg,null,,,,,,2,,,12,,,,,3,0.799231744,0.666666667,,,,,,,
decision,378,901859,0.0-118.0-2.0,,512.8,run_exp/static/images/task_images/land.jpg,76,,,,,,2,,,12,,,,,,,,237531,2,15,TRUE,,,
travel,379,911369,0.0-119.0-0.0,,,,,,,,,,,"[{""stimulus"":""run_exp/static/images/task_images/rocket-01.jpg"",""time"":1.1999999999534339},{""stimulus"":""run_exp/static/images/task_images/rocket-02.jpg"",""time"":1059},{""stimulus"":""run_exp/static/images/task_images/rocket-03.jpg"",""time"":2113.2999999998137},{""stimulus"":""run_exp/static/images/task_images/rocket-04.jpg"",""time"":3167.2999999998137},{""stimulus"":""run_exp/static/images/task_images/rocket-05.jpg"",""time"":4221.699999999953},{""stimulus"":""run_exp/static/images/task_images/rocket-06.jpg"",""time"":5275.299999999814},{""stimulus"":""run_exp/static/images/task_images/rocket-07.jpg"",""time"":6329.799999999814},{""stimulus"":""run_exp/static/images/task_images/rocket-08.jpg"",""time"":7383.299999999814},{""stimulus"":""run_exp/static/images/task_images/rocket-09.jpg"",""time"":8437.09999999986}]",[],12,,,,,,,,,,,,,,
alien_welcome,380,916380,0.0-119.0-1.0,,null,run_exp/static/images/task_images/aliens/old_aliens/planet/alien_planet-28.jpg,null,,,,,,,,,,,,28,"74,12,14,19,34,51,39,73,26,38,29,18,28,31,46,33,61,1,53,75,41,7,58,16,57,59,54",,,,,,,,,,
land,381,916887,0.0-119.0-2.0,,null,run_exp/static/images/task_images/land.jpg,null,,,,,,99,,,13,,,,,,,,,,,,,,
dig,382,918905,0.0-119.0-3.0,,,,,,,,,,,"[{""stimulus"":""run_exp/static/images/task_images/dig.jpg"",""time"":1.6999999999534339},{""stimulus"":""run_exp/static/images/task_images/land.jpg"",""time"":673.2999999998137},{""stimulus"":""run_exp/static/images/task_images/dig.jpg"",""time"":1340.0999999998603}]",[],13,,,,,,,,,,,,,,
harvest,383,919913,0.0-119.0-4.0,,null,run_exp/static/images/task_images/gems/99.jpg,null,,,,,,78,,,13,,,,,99,0.785101195,0.787878788,,,,,,,
decision,384,920486,0.0-119.0-5.0,,561,run_exp/static/images/task_images/land.jpg,65,,,,,,78,,,13,,,,,,,,256158,2,0,FALSE,,,
dig,385,922952,0.0-120.0-0.0,,,,,,,,,,,"[{""stimulus"":""run_exp/static/images/task_images/dig.jpg"",""time"":1.0999999998603016},{""stimulus"":""run_exp/static/images/task_images/land.jpg"",""time"":818.5999999998603},{""stimulus"":""run_exp/static/images/task_images/dig.jpg"",""time"":1631.0999999998603}]",[],13,,,,,,,,,,,,,,
harvest,386,923960,0.0-120.0-1.0,,null,run_exp/static/images/task_images/gems/78.jpg,null,,,,,,66,,,13,,,,,78,0.850612004,0.846153846,,,,,,,
decision,387,924740,0.0-120.0-2.0,,773.3,run_exp/static/images/task_images/land.jpg,65,,,,,,66,,,13,,,,,,,,260412,2,1,FALSE,,,
dig,388,926992,0.0-121.0-0.0,,,,,,,,,,,"[{""stimulus"":""run_exp/static/images/task_images/dig.jpg"",""time"":1},{""stimulus"":""run_exp/static/images/task_images/land.jpg"",""time"":747.1999999999534},{""stimulus"":""run_exp/static/images/task_images/dig.jpg"",""time"":1489}]",[],13,,,,,,,,,,,,,,
harvest,389,927998,0.0-121.0-1.0,,null,run_exp/static/images/task_images/gems/66.jpg,null,,,,,,48,,,13,,,,,66,0.72441818,0.727272727,,,,,,,
decision,390,929020,0.0-121.0-2.0,,1017.4,run_exp/static/images/task_images/land.jpg,65,,,,,,48,,,13,,,,,,,,264691,2,2,FALSE,,,
dig,391,931024,0.0-122.0-0.0,,,,,,,,,,,"[{""stimulus"":""run_exp/static/images/task_images/dig.jpg"",""time"":1.1000000000931323},{""stimulus"":""run_exp/static/images/task_images/land.jpg"",""time"":664.9000000001397},{""stimulus"":""run_exp/static/images/task_images/dig.jpg"",""time"":1325.3000000000466}]",[],13,,,,,,,,,,,,,,
harvest,392,932032,0.0-122.0-1.0,,null,run_exp/static/images/task_images/gems/48.jpg,null,,,,,,40,,,13,,,,,48,0.840750484,0.833333333,,,,,,,
decision,393,932093,0.0-122.0-2.0,,52.4,run_exp/static/images/task_images/land.jpg,65,,,,,,40,,,13,,,,,,,,267765,2,3,FALSE,,,
dig,394,935066,0.0-123.0-0.0,,,,,,,,,,,"[{""stimulus"":""run_exp/static/images/task_images/dig.jpg"",""time"":1.1999999999534339},{""stimulus"":""run_exp/static/images/task_images/land.jpg"",""time"":986.2999999998137},{""stimulus"":""run_exp/static/images/task_images/dig.jpg"",""time"":1970}]",[],13,,,,,,,,,,,,,,
harvest,395,936073,0.0-123.0-1.0,,null,run_exp/static/images/task_images/gems/40.jpg,null,,,,,,36,,,13,,,,,40,0.908498089,0.9,,,,,,,
decision,396,936289,0.0-123.0-2.0,,210.4,run_exp/static/images/task_images/land.jpg,65,,,,,,36,,,13,,,,,,,,271960,2,4,FALSE,,,
dig,397,939101,0.0-124.0-0.0,,,,,,,,,,,"[{""stimulus"":""run_exp/static/images/task_images/dig.jpg"",""time"":1},{""stimulus"":""run_exp/static/images/task_images/land.jpg"",""time"":934.6999999999534},{""stimulus"":""run_exp/static/images/task_images/dig.jpg"",""time"":1863.3999999999069}]",[],13,,,,,,,,,,,,,,
harvest,398,940108,0.0-124.0-1.0,,null,run_exp/static/images/task_images/gems/36.jpg,null,,,,,,27,,,13,,,,,36,0.755482991,0.75,,,,,,,
decision,399,940905,0.0-124.0-2.0,,790.4,run_exp/static/images/task_images/land.jpg,65,,,,,,27,,,13,,,,,,,,276577,2,5,FALSE,,,
dig,400,943130,0.0-125.0-0.0,,,,,,,,,,,"[{""stimulus"":""run_exp/static/images/task_images/dig.jpg"",""time"":0.9000000001396984},{""stimulus"":""run_exp/static/images/task_images/land.jpg"",""time"":741.6000000000931},{""stimulus"":""run_exp/static/images/task_images/dig.jpg"",""time"":1476.9000000001397}]",[],13,,,,,,,,,,,,,,
harvest,401,944141,0.0-125.0-1.0,,null,run_exp/static/images/task_images/gems/27.jpg,null,,,,,,22,,,13,,,,,27,0.830367842,0.814814815,,,,,,,
decision,402,945023,0.0-125.0-2.0,,874.7,run_exp/static/images/task_images/land.jpg,65,,,,,,22,,,13,,,,,,,,280694,2,6,FALSE,,,
dig,403,947175,0.0-126.0-0.0,,,,,,,,,,,"[{""stimulus"":""run_exp/static/images/task_images/dig.jpg"",""time"":1},{""stimulus"":""run_exp/static/images/task_images/land.jpg"",""time"":713.3000000000466},{""stimulus"":""run_exp/static/images/task_images/dig.jpg"",""time"":1421.6000000000931}]",[],13,,,,,,,,,,,,,,
harvest,404,948183,0.0-126.0-1.0,,null,run_exp/static/images/task_images/gems/22.jpg,null,,,,,,19,,,13,,,,,22,0.854615265,0.863636364,,,,,,,
decision,405,948453,0.0-126.0-2.0,,261.6,run_exp/static/images/task_images/land.jpg,65,,,,,,19,,,13,,,,,,,,284125,2,7,FALSE,,,
dig,406,951214,0.0-127.0-0.0,,,,,,,,,,,"[{""stimulus"":""run_exp/static/images/task_images/dig.jpg"",""time"":1.1000000000931323},{""stimulus"":""run_exp/static/images/task_images/land.jpg"",""time"":917.3000000000466},{""stimulus"":""run_exp/static/images/task_images/dig.jpg"",""time"":1829.8000000000466}]",[],13,,,,,,,,,,,,,,
harvest,407,952220,0.0-127.0-1.0,,null,run_exp/static/images/task_images/gems/19.jpg,null,,,,,,17,,,13,,,,,19,0.886076784,0.894736842,,,,,,,
decision,408,952612,0.0-127.0-2.0,,387.5,run_exp/static/images/task_images/land.jpg,65,,,,,,17,,,13,,,,,,,,288283,2,8,FALSE,,,
dig,409,955237,0.0-128.0-0.0,,,,,,,,,,,"[{""stimulus"":""run_exp/static/images/task_images/dig.jpg"",""time"":0.8000000000465661},{""stimulus"":""run_exp/static/images/task_images/land.jpg"",""time"":874.8000000000466},{""stimulus"":""run_exp/static/images/task_images/dig.jpg"",""time"":1744.6999999999534}]",[],13,,,,,,,,,,,,,,
harvest,410,956245,0.0-128.0-1.0,,null,run_exp/static/images/task_images/gems/17.jpg,null,,,,,,14,,,13,,,,,17,0.845238025,0.823529412,,,,,,,
decision,411,956919,0.0-128.0-2.0,,667.1,run_exp/static/images/task_images/land.jpg,65,,,,,,14,,,13,,,,,,,,292591,2,9,FALSE,,,
dig,412,959278,0.0-129.0-0.0,,,,,,,,,,,"[{""stimulus"":""run_exp/static/images/task_images/dig.jpg"",""time"":1.2000000001862645},{""stimulus"":""run_exp/static/images/task_images/land.jpg"",""time"":790},{""stimulus"":""run_exp/static/images/task_images/dig.jpg"",""time"":1559.5}]",[],13,,,,,,,,,,,,,,
harvest,413,960286,0.0-129.0-1.0,,null,run_exp/static/images/task_images/gems/14.jpg,null,,,,,,10,,,13,,,,,14,0.709086998,0.714285714,,,,,,,
decision,414,960718,0.0-129.0-2.0,,423.2,run_exp/static/images/task_images/land.jpg,65,,,,,,10,,,13,,,,,,,,296389,2,10,FALSE,,,
dig,415,963310,0.0-130.0-0.0,,,,,,,,,,,"[{""stimulus"":""run_exp/static/images/task_images/dig.jpg"",""time"":0.8999999999068677},{""stimulus"":""run_exp/static/images/task_images/land.jpg"",""time"":862.8999999999069},{""stimulus"":""run_exp/static/images/task_images/dig.jpg"",""time"":1720.5999999998603}]",[],13,,,,,,,,,,,,,,
harvest,416,964327,0.0-130.0-1.0,,null,run_exp/static/images/task_images/gems/10.jpg,null,,,,,,7,,,13,,,,,10,0.732916334,0.7,,,,,,,
decision,417,964348,0.0-130.0-2.0,,12.3,run_exp/static/images/task_images/land.jpg,65,,,,,,7,,,13,,,,,,,,300019,2,11,TRUE,,,
end_of_block_continue,418,970015,0.0-131.0-0.0,,5636.9,run_exp/static/audio/clip_32_block_end.m4a,,,,,,0,,,,,,,,,,,,,,,,,,
alien_welcome,419,975048,0.0-132.0-0.0,,null,run_exp/static/images/task_images/aliens/old_aliens/planet/alien_planet-31.jpg,null,,,,,,,,,,,,31,"74,12,14,19,34,51,39,73,26,38,29,18,28,31,46,33,61,1,53,75,41,7,58,16,57,59,54",,,,,,,,,,
land,420,975557,0.0-132.0-1.0,,null,run_exp/static/images/task_images/land.jpg,null,,,,,,103,,,14,,,,,,,,,,,,,,
dig,421,977578,0.0-132.0-2.0,,,,,,,,,,,"[{""stimulus"":""run_exp/static/images/task_images/dig.jpg"",""time"":1.8999999999068677},{""stimulus"":""run_exp/static/images/task_images/land.jpg"",""time"":674.1999999999534},{""stimulus"":""run_exp/static/images/task_images/dig.jpg"",""time"":1341.1000000000931}]",[],14,,,,,,,,,,,,,,
harvest,422,978586,0.0-132.0-3.0,,null,run_exp/static/images/task_images/gems/103.jpg,null,,,,,,52,,,14,,,,,103,0.508392797,0.504854369,,,,,,,
decision,423,979148,0.0-132.0-4.0,,553.1,run_exp/static/images/task_images/land.jpg,65,,,,,,52,,,14,,,,,,,,9109,3,0,FALSE,,,
dig,424,981623,0.0-133.0-0.0,,,,,,,,,,,"[{""stimulus"":""run_exp/static/images/task_images/dig.jpg"",""time"":1.3000000000465661},{""stimulus"":""run_exp/static/images/task_images/land.jpg"",""time"":820.9000000001397},{""stimulus"":""run_exp/static/images/task_images/dig.jpg"",""time"":1636}]",[],14,,,,,,,,,,,,,,
harvest,425,982632,0.0-133.0-1.0,,null,run_exp/static/images/task_images/gems/52.jpg,null,,,,,,28,,,14,,,,,52,0.53330523,0.538461538,,,,,,,
decision,426,983539,0.0-133.0-2.0,,899.2,run_exp/static/images/task_images/land.jpg,65,,,,,,28,,,14,,,,,,,,13501,3,1,FALSE,,,
dig,427,985665,0.0-134.0-0.0,,,,,,,,,,,"[{""stimulus"":""run_exp/static/images/task_images/dig.jpg"",""time"":1.0999999998603016},{""stimulus"":""run_exp/static/images/task_images/land.jpg"",""time"":705.6999999999534},{""stimulus"":""run_exp/static/images/task_images/dig.jpg"",""time"":1405.2999999998137}]",[],14,,,,,,,,,,,,,,
harvest,428,986674,0.0-134.0-1.0,,null,run_exp/static/images/task_images/gems/28.jpg,null,,,,,,11,,,14,,,,,28,0.409940089,0.392857143,,,,,,,
decision,429,987538,0.0-134.0-2.0,,860.3,run_exp/static/images/task_images/land.jpg,65,,,,,,11,,,14,,,,,,,,17499,3,2,FALSE,,,
dig,430,989695,0.0-135.0-0.0,,,,,,,,,,,"[{""stimulus"":""run_exp/static/images/task_images/dig.jpg"",""time"":0.8999999999068677},{""stimulus"":""run_exp/static/images/task_images/land.jpg"",""time"":718.2999999998137},{""stimulus"":""run_exp/static/images/task_images/dig.jpg"",""time"":1430.5}]",[],14,,,,,,,,,,,,,,
harvest,431,990704,0.0-135.0-1.0,,null,run_exp/static/images/task_images/gems/11.jpg,null,,,,,,6,,,14,,,,,11,0.56005802,0.545454545,,,,,,,
decision,432,990956,0.0-135.0-2.0,,242.8,run_exp/static/images/task_images/land.jpg,65,,,,,,6,,,14,,,,,,,,20917,3,3,FALSE,,,
dig,433,993742,0.0-136.0-0.0,,,,,,,,,,,"[{""stimulus"":""run_exp/static/images/task_images/dig.jpg"",""time"":1.1999999999534339},{""stimulus"":""run_exp/static/images/task_images/land.jpg"",""time"":924.7999999998137},{""stimulus"":""run_exp/static/images/task_images/dig.jpg"",""time"":1843.8999999999069}]",[],14,,,,,,,,,,,,,,
harvest,434,994750,0.0-136.0-1.0,,null,run_exp/static/images/task_images/gems/6.jpg,null,,,,,,3,,,14,,,,,6,0.457163785,0.5,,,,,,,
decision,435,995217,0.0-136.0-2.0,,460.9,run_exp/static/images/task_images/land.jpg,76,,,,,,3,,,14,,,,,,,,25178,3,4,TRUE,,,
