trial_type,trial_index,time_elapsed,internal_node_id,interactions,blur_events,focus_events,fullscreenenter_events,fullscreenexit_events,success,rt,stimulus,key_press,prompt,subject_id,participant_id,age,gender,button_pressed,next_reward,animation_sequence,responses,planet,curr_prac_trial,n_prac_rounds,alien,aliens,reward_received,decay_rate_actual,decay_rate_exp,time_in_block,block_num,prt,last_trial_on_planet,button_html,bonus,num_failures
pavlovia,0,1,0.0-0.0,"""event"",""trial"",""time""
""fullscreenenter"",""1"",""10858""
","
","
","""event"",""trial"",""time""
""fullscreenenter"",""1"",""10858""
","
",,,,,,,,,,,,,,,,,,,,,,,,,,,,
fullscreen,1,11855,0.0-1.0,"""event"",""trial"",""time""
""fullscreenenter"",""1"",""10858""
","
","
","""event"",""trial"",""time""
""fullscreenenter"",""1"",""10858""
","
",TRUE,,,,,,,,,,,,,,,,,,,,,,,,,,,
instruc_welcome,2,21668,0.0-2.0,"""event"",""trial"",""time""
""fullscreenenter"",""1"",""10858""
","
","
","""event"",""trial"",""time""
""fullscreenenter"",""1"",""10858""
","
",,null,run_exp/static/audio/clip_1_welcome.m4a,null,"<p>Howdy! In this experiment, you’ll be an explorer traveling through space to collect space treasure.</p><p>Your mission is to collect as much treasure as possible.</p><br><br><p><img src='run_exp/static/images/task_images/opening_img-01.jpg' height='300' width='auto'></p>",8305,362,25.5,Female,,,,,,,,,,,,,,,,,,,
audio-keyboard-response,3,38286,0.0-3.0,"""event"",""trial"",""time""
""fullscreenenter"",""1"",""10858""
","
","
","""event"",""trial"",""time""
""fullscreenenter"",""1"",""10858""
","
",,null,run_exp/static/audio/clip_2_move.m4a,null,,,,,,,,,,,,,,,,,,,,,,,,
welcome_dec,4,39165,0.0-4.0,"""event"",""trial"",""time""
""fullscreenenter"",""1"",""10858""
","
","
","""event"",""trial"",""time""
""fullscreenenter"",""1"",""10858""
","
",,874.6,"<p>Howdy! In this experiment, you’ll be an explorer traveling through space to collect space treasure.</p><p>Your mission is to collect as much treasure as possible.</p><br><br><p><img src='run_exp/static/images/task_images/opening_img-01.jpg' height='300' width='auto'></p>",,,,,,,1,,,,,,,,,,,,,,,,,,
html-keyboard-response,5,39416,0.0-5.0,"""event"",""trial"",""time""
""fullscreenenter"",""1"",""10858""
","
","
","""event"",""trial"",""time""
""fullscreenenter"",""1"",""10858""
","
",,248.1,"<p>Howdy! In this experiment, you’ll be an explorer traveling through space to collect space treasure.</p><p>Your mission is to collect as much treasure as possible.</p><br><br><p><img src='run_exp/static/images/task_images/opening_img-01.jpg' height='300' width='auto'></p><button class=""jspsych-html-btn-unchosen""><img src=""run_exp/static/images/task_images/planet-01.jpg"" height=""50""></button><button class=""jspsych-html-btn-chosen""><img src=""run_exp/static/images/task_images/planet-02.jpg"" height=""50""></button><p><b>[press the space bar to lock in your answer]<b><br></p>",32,,,,,,,,,,,,,,,,,,,,,,,,
instruc_goal,6,49507,0.0-6.0-0.0,"""event"",""trial"",""time""
""fullscreenenter"",""1"",""10858""
","
","
","""event"",""trial"",""time""
""fullscreenenter"",""1"",""10858""
","
",,null,run_exp/static/audio/clip_3_goal.m4a,null,"<p> As a space explorer, you’ll visit different planets to dig for space treasure, these pink gems.</p> <p> The more treasure you dig up, the more bonus money you’ll win! </p><br><br><p><img src='run_exp/static/images/task_images/pink_gem.jpg' height='300' width='auto'></p>",,,,,,,,,,,,,,,,,,,,,,,
instruc_goal,7,51064,0.0-6.0-1.0,"""event"",""trial"",""time""
""fullscreenenter"",""1"",""10858""
","
","
","""event"",""trial"",""time""
""fullscreenenter"",""1"",""10858""
","
",,1554.1,"<p> As a space explorer, you’ll visit different planets to dig for space treasure, these pink gems.</p> <p> The more treasure you dig up, the more bonus money you’ll win! </p><br><br><p><img src='run_exp/static/images/task_images/pink_gem.jpg' height='300' width='auto'></p>",,,,,,,1,,,,,,,,,,,,,,,,,,
html-keyboard-response,8,51819,0.0-6.0-2.0,"""event"",""trial"",""time""
""fullscreenenter"",""1"",""10858""
","
","
","""event"",""trial"",""time""
""fullscreenenter"",""1"",""10858""
","
",,752.4,"<p> As a space explorer, you’ll visit different planets to dig for space treasure, these pink gems.</p> <p> The more treasure you dig up, the more bonus money you’ll win! </p><br><br><p><img src='run_exp/static/images/task_images/pink_gem.jpg' height='300' width='auto'></p><button class=""jspsych-html-btn-unchosen""><img src=""run_exp/static/images/task_images/planet-01.jpg"" height=""50""></button><button class=""jspsych-html-btn-chosen""><img src=""run_exp/static/images/task_images/planet-02.jpg"" height=""50""></button><p><b>[press the space bar to lock in your answer]<b><br></p>",32,,,,,,,,,,,,,,,,,,,,,,,,
instruc_dig,9,67854,0.0-7.0-0.0,"""event"",""trial"",""time""
""fullscreenenter"",""1"",""10858""
","
","
","""event"",""trial"",""time""
""fullscreenenter"",""1"",""10858""
","
",,null,run_exp/static/audio/clip_4_dig.m4a,null,,,,,,,100,,,,,,,,,,,,,,,,,
instruc_dig_try,10,68375,0.0-7.0-1.0,"""event"",""trial"",""time""
""fullscreenenter"",""1"",""10858""
","
","
","""event"",""trial"",""time""
""fullscreenenter"",""1"",""10858""
","
",,519,"<p> When you’ve arrived at a new planet, you will dig once. </p> <p>Then, you get to decide if you want to stay on the planet and dig again or travel to a new planet and dig there.</p> <p> To stay and dig, press the letter <strong>‘A’</strong> on your keyboard. Try pressing it now! </p><p><img src='run_exp/static/images/task_images/land.jpg'  height='700' width='auto'></p>",65,"<p> When you’ve arrived at a new planet, you will dig once. </p> <p>Then, you get to decide if you want to stay on the planet and dig again or travel to a new planet and dig there.</p> <p> To stay and dig, press the letter <strong>‘A’</strong> on your keyboard. Try pressing it now! </p><p><img src='run_exp/static/images/task_images/land.jpg'  height='700' width='auto'></p>",,,,,,100,,,,,,,,,,,,,,,,,
dig_prac,11,70394,0.0-7.0-2.0,"""event"",""trial"",""time""
""fullscreenenter"",""1"",""10858""
","
","
","""event"",""trial"",""time""
""fullscreenenter"",""1"",""10858""
","
",,,,,,,,,,,,"[{""stimulus"":""run_exp/static/images/task_images/dig.jpg"",""time"":0.5},{""stimulus"":""run_exp/static/images/task_images/land.jpg"",""time"":679.2999999999302},{""stimulus"":""run_exp/static/images/task_images/dig.jpg"",""time"":1343.0999999999767}]",[],,,,,,,,,,,,,,,
instruc_travel,12,106659,0.0-7.0-3.0,"""event"",""trial"",""time""
""fullscreenenter"",""1"",""10858""
","
","
","""event"",""trial"",""time""
""fullscreenenter"",""1"",""10858""
","
",,null,run_exp/static/audio/clip_5_travel.m4a,null,"<p>Every time you dig up gems, there are less gems on the planet, so the more you dig on a planet the fewer gems you’ll get with each dig.</p><p>When gems are running low, you may want to travel to a new planet. </p> <p>  Planets are very far apart in this galaxy, so it will take some time to travel between them. </p> <br><p>There are lots and lots of planets for you to visit, so you won’t be able to return to any planets you’ve seen before. </p><br><p>To leave this planet and travel to a new one, press the letter <strong>‘L’</strong> on your keyboard. Try pressing it now! </p><p><img src='run_exp/static/images/task_images/rocket-01.jpg'  height='600' width='auto'></p>",,,,,,,,,,,,,,,,,,,,,,,
instruc_travel_try,13,107919,0.0-7.0-4.0,"""event"",""trial"",""time""
""fullscreenenter"",""1"",""10858""
","
","
","""event"",""trial"",""time""
""fullscreenenter"",""1"",""10858""
","
",,1257.9,"<p>Every time you dig up gems, there are less gems on the planet, so the more you dig on a planet the fewer gems you’ll get with each dig.</p><p>When gems are running low, you may want to travel to a new planet. </p> <p>  Planets are very far apart in this galaxy, so it will take some time to travel between them. </p> <br><p>There are lots and lots of planets for you to visit, so you won’t be able to return to any planets you’ve seen before. </p><br><p>To leave this planet and travel to a new one, press the letter <strong>‘L’</strong> on your keyboard. Try pressing it now! </p><p><img src='run_exp/static/images/task_images/rocket-01.jpg'  height='600' width='auto'></p>",76,"<p>Every time you dig up gems, there are less gems on the planet, so the more you dig on a planet the fewer gems you’ll get with each dig.</p><p>When gems are running low, you may want to travel to a new planet. </p> <p>  Planets are very far apart in this galaxy, so it will take some time to travel between them. </p> <br><p>There are lots and lots of planets for you to visit, so you won’t be able to return to any planets you’ve seen before. </p><br><p>To leave this planet and travel to a new one, press the letter <strong>‘L’</strong> on your keyboard. Try pressing it now! </p><p><img src='run_exp/static/images/task_images/rocket-01.jpg'  height='600' width='auto'></p>",,,,,,,,,,,,,,,,,,,,,,,
travel_prac,14,117932,0.0-7.0-5.0,"""event"",""trial"",""time""
""fullscreenenter"",""1"",""10858""
","
","
","""event"",""trial"",""time""
""fullscreenenter"",""1"",""10858""
","
",,,,,,,,,,,,"[{""stimulus"":""run_exp/static/images/task_images/rocket-01.jpg"",""time"":0.5},{""stimulus"":""run_exp/static/images/task_images/rocket-02.jpg"",""time"":1118.2999999999302},{""stimulus"":""run_exp/static/images/task_images/rocket-03.jpg"",""time"":2234.6999999999534},{""stimulus"":""run_exp/static/images/task_images/rocket-04.jpg"",""time"":3346.5999999999767},{""stimulus"":""run_exp/static/images/task_images/rocket-05.jpg"",""time"":4455.099999999977},{""stimulus"":""run_exp/static/images/task_images/rocket-06.jpg"",""time"":5562.599999999977},{""stimulus"":""run_exp/static/images/task_images/rocket-07.jpg"",""time"":6674.5},{""stimulus"":""run_exp/static/images/task_images/rocket-08.jpg"",""time"":7783.099999999977},{""stimulus"":""run_exp/static/images/task_images/rocket-09.jpg"",""time"":8894}]",[],0,,,,,,,,,,,,,,
instruc_alien_greet,15,145166,0.0-7.0-6.0,"""event"",""trial"",""time""
""fullscreenenter"",""1"",""10858""
","
","
","""event"",""trial"",""time""
""fullscreenenter"",""1"",""10858""
","
",,null,run_exp/static/audio/clip_6_alien.m4a,null,"<p>When you arrive at a new planet, the alien who owns the treasure mine on that planet will greet you!</p><p>The better an alien takes care of their mine the easier it is to dig for gems. Some aliens take better care of their mine than others. So, you won’t get exactly the same amount of gems on each planet.</p><p>What the alien looks like does not tell you anything about how many gems there are on the planet.</p><br><p><img src=""run_exp/static/images/task_images/aliens/instructions_aliens/planet/alien_planet-1.jpg""  height=""600"" width=""auto""></p>",,,,,,,,,,,,,,,,,,,,,,,
instruc_alien_greet,16,152997,0.0-7.0-7.0,"""event"",""trial"",""time""
""fullscreenenter"",""1"",""10858""
","
","
","""event"",""trial"",""time""
""fullscreenenter"",""1"",""10858""
","
",,7828.3,"<p>When you arrive at a new planet, the alien who owns the treasure mine on that planet will greet you!</p><p>The better an alien takes care of their mine the easier it is to dig for gems. Some aliens take better care of their mine than others. So, you won’t get exactly the same amount of gems on each planet.</p><p>What the alien looks like does not tell you anything about how many gems there are on the planet.</p><br><p><img src=""run_exp/static/images/task_images/aliens/instructions_aliens/planet/alien_planet-1.jpg""  height=""600"" width=""auto""></p>",,,,,,,1,,,,,,,,,,,,,,,,,,
html-keyboard-response,17,153234,0.0-7.0-8.0,"""event"",""trial"",""time""
""fullscreenenter"",""1"",""10858""
","
","
","""event"",""trial"",""time""
""fullscreenenter"",""1"",""10858""
","
",,235,"<p>When you arrive at a new planet, the alien who owns the treasure mine on that planet will greet you!</p><p>The better an alien takes care of their mine the easier it is to dig for gems. Some aliens take better care of their mine than others. So, you won’t get exactly the same amount of gems on each planet.</p><p>What the alien looks like does not tell you anything about how many gems there are on the planet.</p><br><p><img src=""run_exp/static/images/task_images/aliens/instructions_aliens/planet/alien_planet-1.jpg""  height=""600"" width=""auto""></p><button class=""jspsych-html-btn-unchosen""><img src=""run_exp/static/images/task_images/planet-01.jpg"" height=""50""></button><button class=""jspsych-html-btn-chosen""><img src=""run_exp/static/images/task_images/planet-02.jpg"" height=""50""></button><p><b>[press the space bar to lock in your answer]<b><br></p>",32,,,,,,,,,,,,,,,,,,,,,,,,
time_out,18,164344,0.0-8.0-0.0,"""event"",""trial"",""time""
""fullscreenenter"",""1"",""10858""
","
","
","""event"",""trial"",""time""
""fullscreenenter"",""1"",""10858""
","
",,null,run_exp/static/audio/clip_7_timeout.m4a,null,"<p>If you don't make your choice fast enough, you’ll have to wait a few seconds before you can make another one.</p><p>You can’t dig for more gems or travel to new planets. You just have to sit and wait.</p><br><p><img src='run_exp/static/images/task_images/time_out.jpg'  height='600' width='auto'></p>",,,,,,,,,,,,,,,,,,,,,,,
time_out,19,168098,0.0-8.0-1.0,"""event"",""trial"",""time""
""fullscreenenter"",""1"",""10858""
","
","
","""event"",""trial"",""time""
""fullscreenenter"",""1"",""10858""
","
",,3750.3,"<p>If you don't make your choice fast enough, you’ll have to wait a few seconds before you can make another one.</p><p>You can’t dig for more gems or travel to new planets. You just have to sit and wait.</p><br><p><img src='run_exp/static/images/task_images/time_out.jpg'  height='600' width='auto'></p>",,,,,,,1,,,,,,,,,,,,,,,,,,
html-keyboard-response,20,169078,0.0-8.0-2.0,"""event"",""trial"",""time""
""fullscreenenter"",""1"",""10858""
","
","
","""event"",""trial"",""time""
""fullscreenenter"",""1"",""10858""
","
",,978.1,"<p>If you don't make your choice fast enough, you’ll have to wait a few seconds before you can make another one.</p><p>You can’t dig for more gems or travel to new planets. You just have to sit and wait.</p><br><p><img src='run_exp/static/images/task_images/time_out.jpg'  height='600' width='auto'></p><button class=""jspsych-html-btn-unchosen""><img src=""run_exp/static/images/task_images/planet-01.jpg"" height=""50""></button><button class=""jspsych-html-btn-chosen""><img src=""run_exp/static/images/task_images/planet-02.jpg"" height=""50""></button><p><b>[press the space bar to lock in your answer]<b><br></p>",32,,,,,,,,,,,,,,,,,,,,,,,,
instruc_break,21,184760,0.0-9.0-0.0,"""event"",""trial"",""time""
""fullscreenenter"",""1"",""10858""
","
","
","""event"",""trial"",""time""
""fullscreenenter"",""1"",""10858""
","
",,null,run_exp/static/audio/clip_8_break.m4a,null,"<p> After digging and traveling for a while, you’ll be able to take a break at home base. </p><p>The game will last 20 minutes no matter what.</p><p>You will visit home base every 5 minutes, so, you will visit home base three times during the game.</p><br><p><img src='run_exp/static/images/task_images/home_base.jpg' height='600' width='auto'></p>",,,,,,,,,,,,,,,,,,,,,,,
instruc_break,22,186247,0.0-9.0-1.0,"""event"",""trial"",""time""
""fullscreenenter"",""1"",""10858""
","
","
","""event"",""trial"",""time""
""fullscreenenter"",""1"",""10858""
","
",,1484.1,"<p> After digging and traveling for a while, you’ll be able to take a break at home base. </p><p>The game will last 20 minutes no matter what.</p><p>You will visit home base every 5 minutes, so, you will visit home base three times during the game.</p><br><p><img src='run_exp/static/images/task_images/home_base.jpg' height='600' width='auto'></p>",,,,,,,1,,,,,,,,,,,,,,,,,,
html-keyboard-response,23,186813,0.0-9.0-2.0,"""event"",""trial"",""time""
""fullscreenenter"",""1"",""10858""
","
","
","""event"",""trial"",""time""
""fullscreenenter"",""1"",""10858""
","
",,563.3,"<p> After digging and traveling for a while, you’ll be able to take a break at home base. </p><p>The game will last 20 minutes no matter what.</p><p>You will visit home base every 5 minutes, so, you will visit home base three times during the game.</p><br><p><img src='run_exp/static/images/task_images/home_base.jpg' height='600' width='auto'></p><button class=""jspsych-html-btn-unchosen""><img src=""run_exp/static/images/task_images/planet-01.jpg"" height=""50""></button><button class=""jspsych-html-btn-chosen""><img src=""run_exp/static/images/task_images/planet-02.jpg"" height=""50""></button><p><b>[press the space bar to lock in your answer]<b><br></p>",32,,,,,,,,,,,,,,,,,,,,,,,,
instruc_prac_game,24,196964,0.0-10.0-0.0,"""event"",""trial"",""time""
""fullscreenenter"",""1"",""10858""
","
","
","""event"",""trial"",""time""
""fullscreenenter"",""1"",""10858""
","
",,null,run_exp/static/audio/clip_9_practice.m4a,null,"<p> Are you ready to play a practice game? </p> <p>In this practice game, you'll be digging up barrels of gems. But, in the real game, you'll be digging up the gems themselves. </p>",,,,,,,,,,,,,,,,,,,,,,,
html-button-response,25,199914,0.0-10.0-1.0,"""event"",""trial"",""time""
""fullscreenenter"",""1"",""10858""
","
","
","""event"",""trial"",""time""
""fullscreenenter"",""1"",""10858""
","
",,2948.5,"<p> Are you ready to play a practice game? </p> <p>In this practice game, you'll be digging up barrels of gems. But, in the real game, you'll be digging up the gems themselves. </p>",,,,,,,0,,,,,,,,,,,,,,,,,,
alien_welcome_prac,26,204925,0.0-11.0-0.0,"""event"",""trial"",""time""
""fullscreenenter"",""1"",""10858""
","
","
","""event"",""trial"",""time""
""fullscreenenter"",""1"",""10858""
","
",,null,run_exp/static/images/task_images/aliens/practice_aliens/planet/alien_planet-5.jpg,null,,,,,,,,,,,,,,,,,,,,,,,,
land_prac,27,205433,0.0-11.0-1.0,"""event"",""trial"",""time""
""fullscreenenter"",""1"",""10858""
","
","
","""event"",""trial"",""time""
""fullscreenenter"",""1"",""10858""
","
",,null,run_exp/static/images/task_images/land.jpg,null,,,,,,,105,,,0,,,,,,,,,,,,,,
dig_prac,28,207449,0.0-11.0-2.0,"""event"",""trial"",""time""
""fullscreenenter"",""1"",""10858""
","
","
","""event"",""trial"",""time""
""fullscreenenter"",""1"",""10858""
","
",,,,,,,,,,,,"[{""stimulus"":""run_exp/static/images/task_images/dig.jpg"",""time"":0.5999999999767169},{""stimulus"":""run_exp/static/images/task_images/land.jpg"",""time"":673.5999999999767},{""stimulus"":""run_exp/static/images/task_images/dig.jpg"",""time"":1337.3999999999069}]",[],,,,,,,,,,,,,,,
harvest_prac,29,208453,0.0-11.0-3.0,"""event"",""trial"",""time""
""fullscreenenter"",""1"",""10858""
","
","
","""event"",""trial"",""time""
""fullscreenenter"",""1"",""10858""
","
",,null,run_exp/static/images/task_images/barrel_text.jpg,null,,,,,,,,,,,,,,,,,,,,,,,,
decision_prac,30,210079,0.0-11.0-4.0,"""event"",""trial"",""time""
""fullscreenenter"",""1"",""10858""
","
","
","""event"",""trial"",""time""
""fullscreenenter"",""1"",""10858""
","
",,1624.2,run_exp/static/images/task_images/land.jpg,65,,,,,,,,,,,1,,,,,,,,,,,,,
dig_prac,31,212097,0.0-12.0-0.0,"""event"",""trial"",""time""
""fullscreenenter"",""1"",""10858""
","
","
","""event"",""trial"",""time""
""fullscreenenter"",""1"",""10858""
","
",,,,,,,,,,,,"[{""stimulus"":""run_exp/static/images/task_images/dig.jpg"",""time"":0.30000000004656613},{""stimulus"":""run_exp/static/images/task_images/land.jpg"",""time"":678},{""stimulus"":""run_exp/static/images/task_images/dig.jpg"",""time"":1339.5999999999767}]",[],,,,,,,,,,,,,,,
harvest_prac,32,213105,0.0-12.0-1.0,"""event"",""trial"",""time""
""fullscreenenter"",""1"",""10858""
","
","
","""event"",""trial"",""time""
""fullscreenenter"",""1"",""10858""
","
",,null,run_exp/static/images/task_images/barrel_text.jpg,null,,,,,,,,,,,,,,,,,,,,,,,,
decision_prac,33,213930,0.0-12.0-2.0,"""event"",""trial"",""time""
""fullscreenenter"",""1"",""10858""
","
","
","""event"",""trial"",""time""
""fullscreenenter"",""1"",""10858""
","
",,822.9,run_exp/static/images/task_images/land.jpg,65,,,,,,,,,,,2,,,,,,,,,,,,,
dig_prac,34,215943,0.0-13.0-0.0,"""event"",""trial"",""time""
""fullscreenenter"",""1"",""10858""
","
","
","""event"",""trial"",""time""
""fullscreenenter"",""1"",""10858""
","
",,,,,,,,,,,,"[{""stimulus"":""run_exp/static/images/task_images/dig.jpg"",""time"":0.19999999995343387},{""stimulus"":""run_exp/static/images/task_images/land.jpg"",""time"":675},{""stimulus"":""run_exp/static/images/task_images/dig.jpg"",""time"":1335.1999999999534}]",[],,,,,,,,,,,,,,,
harvest_prac,35,216949,0.0-13.0-1.0,"""event"",""trial"",""time""
""fullscreenenter"",""1"",""10858""
","
","
","""event"",""trial"",""time""
""fullscreenenter"",""1"",""10858""
","
",,null,run_exp/static/images/task_images/barrel_text.jpg,null,,,,,,,,,,,,,,,,,,,,,,,,
decision_prac,36,217849,0.0-13.0-2.0,"""event"",""trial"",""time""
""fullscreenenter"",""1"",""10858""
","
","
","""event"",""trial"",""time""
""fullscreenenter"",""1"",""10858""
","
",,898.2,run_exp/static/images/task_images/land.jpg,76,,,,,,,,,,,3,,,,,,,,,,,,,
travel,37,226960,0.0-14.0-0.0,"""event"",""trial"",""time""
""fullscreenenter"",""1"",""10858""
","
","
","""event"",""trial"",""time""
""fullscreenenter"",""1"",""10858""
","
",,,,,,,,,,,,"[{""stimulus"":""run_exp/static/images/task_images/rocket-01.jpg"",""time"":0.19999999995343387},{""stimulus"":""run_exp/static/images/task_images/rocket-02.jpg"",""time"":1012.5},{""stimulus"":""run_exp/static/images/task_images/rocket-03.jpg"",""time"":2033.6999999999534},{""stimulus"":""run_exp/static/images/task_images/rocket-04.jpg"",""time"":3040},{""stimulus"":""run_exp/static/images/task_images/rocket-05.jpg"",""time"":4051.79999999993},{""stimulus"":""run_exp/static/images/task_images/rocket-06.jpg"",""time"":5060},{""stimulus"":""run_exp/static/images/task_images/rocket-07.jpg"",""time"":6073.79999999993},{""stimulus"":""run_exp/static/images/task_images/rocket-08.jpg"",""time"":7084.099999999977},{""stimulus"":""run_exp/static/images/task_images/rocket-09.jpg"",""time"":8100}]",[],0,,,,,,,,,,,,,,
alien_welcome_prac,38,231968,0.0-14.0-1.0,"""event"",""trial"",""time""
""fullscreenenter"",""1"",""10858""
","
","
","""event"",""trial"",""time""
""fullscreenenter"",""1"",""10858""
","
",,null,run_exp/static/images/task_images/aliens/practice_aliens/planet/alien_planet-4.jpg,null,,,,,,,,,,,,,,,,,,,,,,,,
land_prac,39,232476,0.0-14.0-2.0,"""event"",""trial"",""time""
""fullscreenenter"",""1"",""10858""
","
","
","""event"",""trial"",""time""
""fullscreenenter"",""1"",""10858""
","
",,null,run_exp/static/images/task_images/land.jpg,null,,,,,,,100,,,0,,,,,,,,,,,,,,
dig_prac,40,234488,0.0-14.0-3.0,"""event"",""trial"",""time""
""fullscreenenter"",""1"",""10858""
","
","
","""event"",""trial"",""time""
""fullscreenenter"",""1"",""10858""
","
",,,,,,,,,,,,"[{""stimulus"":""run_exp/static/images/task_images/dig.jpg"",""time"":0.5},{""stimulus"":""run_exp/static/images/task_images/land.jpg"",""time"":674.1999999999534},{""stimulus"":""run_exp/static/images/task_images/dig.jpg"",""time"":1338.1999999999534}]",[],,,,,,,,,,,,,,,
harvest_prac,41,235496,0.0-14.0-4.0,"""event"",""trial"",""time""
""fullscreenenter"",""1"",""10858""
","
","
","""event"",""trial"",""time""
""fullscreenenter"",""1"",""10858""
","
",,null,run_exp/static/images/task_images/barrel_text.jpg,null,,,,,,,,,,,,,,,,,,,,,,,,
decision_prac,42,236437,0.0-14.0-5.0,"""event"",""trial"",""time""
""fullscreenenter"",""1"",""10858""
","
","
","""event"",""trial"",""time""
""fullscreenenter"",""1"",""10858""
","
",,939.1,run_exp/static/images/task_images/land.jpg,65,,,,,,,,,,,4,,,,,,,,,,,,,
dig_prac,43,238448,0.0-15.0-0.0,"""event"",""trial"",""time""
""fullscreenenter"",""1"",""10858""
","
","
","""event"",""trial"",""time""
""fullscreenenter"",""1"",""10858""
","
",,,,,,,,,,,,"[{""stimulus"":""run_exp/static/images/task_images/dig.jpg"",""time"":0.19999999995343387},{""stimulus"":""run_exp/static/images/task_images/land.jpg"",""time"":679.6999999999534},{""stimulus"":""run_exp/static/images/task_images/dig.jpg"",""time"":1341.3999999999069}]",[],,,,,,,,,,,,,,,
harvest_prac,44,239455,0.0-15.0-1.0,"""event"",""trial"",""time""
""fullscreenenter"",""1"",""10858""
","
","
","""event"",""trial"",""time""
""fullscreenenter"",""1"",""10858""
","
",,null,run_exp/static/images/task_images/barrel_text.jpg,null,,,,,,,,,,,,,,,,,,,,,,,,
decision_prac,45,240115,0.0-15.0-2.0,"""event"",""trial"",""time""
""fullscreenenter"",""1"",""10858""
","
","
","""event"",""trial"",""time""
""fullscreenenter"",""1"",""10858""
","
",,657.7,run_exp/static/images/task_images/land.jpg,65,,,,,,,,,,,,1,,,,,,,,,,,,
quiz_instruc,46,242247,0.0-16.0-0.0,"""event"",""trial"",""time""
""fullscreenenter"",""1"",""10858""
","
","
","""event"",""trial"",""time""
""fullscreenenter"",""1"",""10858""
","
",,2127.4,run_exp/static/audio/clip_10_quiz.m4a,,,,,,,0,,,,,,,,,,,,,,,,,,
instruc_repeat,47,285048,0.0-16.0-1.0,"""event"",""trial"",""time""
""fullscreenenter"",""1"",""10858""
","
","
","""event"",""trial"",""time""
""fullscreenenter"",""1"",""10858""
","
",,null,"<p> Are you ready to play a practice game? </p> <p>In this practice game, you'll be digging up barrels of gems. But, in the real game, you'll be digging up the gems themselves. </p>",null,"<p>In this game, your goal is to collect as many gems as you can. That’s how you will win bonus money. </p> <p>The entire game will last 20 minutes no matter how many gems you collect or how many planets you visit. </p><p>To stay on a planet and dig again, press the letter A on your keyboard. To leave for a new planet, press the letter L.</p><p>The more you dig on a planet, the fewer gems you’ll get with each dig which is why you might consider leaving for a new planet. </p><p>When you arrive at a new planet, you’ll be greeted by an alien. What the alien looks like does not tell you anything about how much treasure is on the planet. </p>",,,,,,,,,,,,,,,,,,,,,,,
instruc_repeat_continue,48,287898,0.0-16.0-2.0,"""event"",""trial"",""time""
""fullscreenenter"",""1"",""10858""
","
","
","""event"",""trial"",""time""
""fullscreenenter"",""1"",""10858""
","
",,2847.2,"<p> Are you ready to play a practice game? </p> <p>In this practice game, you'll be digging up barrels of gems. But, in the real game, you'll be digging up the gems themselves. </p>",,,,,,,0,,,,,,,,,,,,,,,,,,
quiz_q_1_ask,49,295431,0.0-16.0-3.0,"""event"",""trial"",""time""
""fullscreenenter"",""1"",""10858""
","
","
","""event"",""trial"",""time""
""fullscreenenter"",""1"",""10858""
","
",,7530.6,run_exp/static/audio/clip_11_q1_ask.m4a,,,,,,,2,,,,,,,,,,,,,,,,,,
quiz_q_1_fb_correct,50,299278,0.0-17.0-0.0,"""event"",""trial"",""time""
""fullscreenenter"",""1"",""10858""
","
","
","""event"",""trial"",""time""
""fullscreenenter"",""1"",""10858""
","
",,null,run_exp/static/audio/clip_12_q1_correct.m4a,null,<p>That’s correct. You win extra money by collecting more gems.</p>,,,,,,,,,,,,,,,,,,,,,,,
quiz_q_2_ask,51,304514,0.0-17.0-1.0,"""event"",""trial"",""time""
""fullscreenenter"",""1"",""10858""
","
","
","""event"",""trial"",""time""
""fullscreenenter"",""1"",""10858""
","
",,5233.8,run_exp/static/audio/clip_14_q2_ask.m4a,,,,,,,1,,,,,,,,,,,,,,,,,,
quiz_q_2_fb_correct,52,308536,0.0-18.0-0.0,"""event"",""trial"",""time""
""fullscreenenter"",""1"",""10858""
","
","
","""event"",""trial"",""time""
""fullscreenenter"",""1"",""10858""
","
",,null,run_exp/static/audio/clip_15_q2_correct.m4a,null,<p>That’s correct. The experiment is 20 minutes no matter what.</p>,,,,,,,,,,,,,,,,,,,,,,,
quiz_q_3_ask,53,313297,0.0-18.0-1.0,"""event"",""trial"",""time""
""fullscreenenter"",""1"",""10858""
","
","
","""event"",""trial"",""time""
""fullscreenenter"",""1"",""10858""
","
",,4758.6,run_exp/static/audio/clip_17_q3_ask.m4a,,,,,,,1,,,,,,,,,,,,,,,,,,
quiz_q_3_fb_correct,54,317262,0.0-19.0-0.0,"""event"",""trial"",""time""
""fullscreenenter"",""1"",""10858""
","
","
","""event"",""trial"",""time""
""fullscreenenter"",""1"",""10858""
","
",,null,run_exp/static/audio/clip_18_q3_correct.m4a,null,<p> That’s correct. You press the letter L to travel to a new planet.</p>,,,,,,,,,,,,,,,,,,,,,,,
quiz_q_4_ask,55,320565,0.0-19.0-1.0,"""event"",""trial"",""time""
""fullscreenenter"",""1"",""10858""
","
","
","""event"",""trial"",""time""
""fullscreenenter"",""1"",""10858""
","
",,3300.6,run_exp/static/audio/clip_20_q4_ask.m4a,,,,,,,0,,,,,,,,,,,,,,,,,,
quiz_q_4_fb_correct,56,325880,0.0-20.0-0.0,"""event"",""trial"",""time""
""fullscreenenter"",""1"",""10858""
","
","
","""event"",""trial"",""time""
""fullscreenenter"",""1"",""10858""
","
",,null,run_exp/static/audio/clip_21_q4_correct.m4a,null,<p> That’s correct. The more you dig on a planet the fewer gems you’ll get with each dig. </p>,,,,,,,,,,,,,,,,,,,,,,,
quiz_q_5_ask,57,329714,0.0-20.0-1.0,"""event"",""trial"",""time""
""fullscreenenter"",""1"",""10858""
","
","
","""event"",""trial"",""time""
""fullscreenenter"",""1"",""10858""
","
",,3831.8,run_exp/static/audio/clip_23_q5_ask.m4a,,,,,,,1,,,,,,,,,,,,,,,,,,
quiz_q_5_fb_correct,58,334712,0.0-21.0-0.0,"""event"",""trial"",""time""
""fullscreenenter"",""1"",""10858""
","
","
","""event"",""trial"",""time""
""fullscreenenter"",""1"",""10858""
","
",,null,run_exp/static/audio/clip_24_q5_correct.m4a,null,<p> That’s correct. The alien tells you nothing about how much treasure is on the planet.</p>,,,,,,,,,,,,,,,,,,,,,,,
quiz_correct,59,338168,0.0-22.0-0.0,"""event"",""trial"",""time""
""fullscreenenter"",""1"",""10858""
","
","
","""event"",""trial"",""time""
""fullscreenenter"",""1"",""10858""
","
",,null,run_exp/static/audio/clip_26_correct_quiz.m4a,null,,,,,,,,,,,,,,,,,,,,,,,,
quiz_correct_continue,60,339414,0.0-22.0-1.0,"""event"",""trial"",""time""
""fullscreenenter"",""1"",""10858""
","
","
","""event"",""trial"",""time""
""fullscreenenter"",""1"",""10858""
","
",,1244,<p>Good job! You're now ready to move on to the real game!</p>,,,,,,,0,,,,,,,,,,,,,,,,,,
audio-keyboard-response,61,349518,0.0-22.0-2.0,"""event"",""trial"",""time""
""fullscreenenter"",""1"",""10858""
","
","
","""event"",""trial"",""time""
""fullscreenenter"",""1"",""10858""
","
",,null,run_exp/static/audio/clip_28_real_game.m4a,null,,,,,,,,,,,,,,,,,,,,,,,,
instruc_begin_exp_contine,62,351331,0.0-22.0-3.0,"""event"",""trial"",""time""
""fullscreenenter"",""1"",""10858""
","
","
","""event"",""trial"",""time""
""fullscreenenter"",""1"",""10858""
","
",,1810.6,"<p>Now that you know how  to dig for space treasure and travel to new planets,you can start exploring! </p><p>Do you want to go over the instructions again or get started with the real game?</p>",,,,,,,1,,,,,,1,,,,,,,,,,,,
alien_welcome,63,356348,0.0-23.0-0.0,"""event"",""trial"",""time""
""fullscreenenter"",""1"",""10858""
","
","
","""event"",""trial"",""time""
""fullscreenenter"",""1"",""10858""
","
",,null,run_exp/static/images/task_images/aliens/old_aliens/planet/alien_planet-65.jpg,null,,,,,,,,,,,,,65,"65,1,5,7,15,76,24,50,37,32,13,55,73,19,17,43,10,45,48,3,22,62,78,68,63,23,38,53,2,69,14,60,56,66,4,54,41,57,44,40,30,77,25,70,74,6",,,,,,,,,,
land,64,356856,0.0-23.0-1.0,"""event"",""trial"",""time""
""fullscreenenter"",""1"",""10858""
","
","
","""event"",""trial"",""time""
""fullscreenenter"",""1"",""10858""
","
",,null,run_exp/static/images/task_images/land.jpg,null,,,,,,,92,,,1,,,,,,,,,,,,,,
dig,65,358865,0.0-23.0-2.0,"""event"",""trial"",""time""
""fullscreenenter"",""1"",""10858""
","
","
","""event"",""trial"",""time""
""fullscreenenter"",""1"",""10858""
","
",,,,,,,,,,,,"[{""stimulus"":""run_exp/static/images/task_images/dig.jpg"",""time"":0.40000000002328306},{""stimulus"":""run_exp/static/images/task_images/land.jpg"",""time"":669.8000000000466},{""stimulus"":""run_exp/static/images/task_images/dig.jpg"",""time"":1341.5}]",[],1,,,,,,,,,,,,,,
harvest,66,359872,0.0-23.0-3.0,"""event"",""trial"",""time""
""fullscreenenter"",""1"",""10858""
","
","
","""event"",""trial"",""time""
""fullscreenenter"",""1"",""10858""
","
",,null,run_exp/static/images/task_images/gems/92.jpg,null,,,,,,,14,,,1,,,,,92,0.149327535,0.152173913,,,,,,,
decision,67,360379,0.0-23.0-4.0,"""event"",""trial"",""time""
""fullscreenenter"",""1"",""10858""
","
","
","""event"",""trial"",""time""
""fullscreenenter"",""1"",""10858""
","
",,504.7,run_exp/static/images/task_images/land.jpg,65,,,,,,,14,,,1,,,,,,,,9046,1,0,FALSE,,,
dig,68,362880,0.0-24.0-0.0,"""event"",""trial"",""time""
""fullscreenenter"",""1"",""10858""
","
","
","""event"",""trial"",""time""
""fullscreenenter"",""1"",""10858""
","
",,,,,,,,,,,,"[{""stimulus"":""run_exp/static/images/task_images/dig.jpg"",""time"":0.40000000002328306},{""stimulus"":""run_exp/static/images/task_images/land.jpg"",""time"":840.3000000000466},{""stimulus"":""run_exp/static/images/task_images/dig.jpg"",""time"":1676.3000000000466}]",[],1,,,,,,,,,,,,,,
harvest,69,363890,0.0-24.0-1.0,"""event"",""trial"",""time""
""fullscreenenter"",""1"",""10858""
","
","
","""event"",""trial"",""time""
""fullscreenenter"",""1"",""10858""
","
",,null,run_exp/static/images/task_images/gems/14.jpg,null,,,,,,,2,,,1,,,,,14,0.158985233,0.142857143,,,,,,,
decision,70,364137,0.0-24.0-2.0,"""event"",""trial"",""time""
""fullscreenenter"",""1"",""10858""
","
","
","""event"",""trial"",""time""
""fullscreenenter"",""1"",""10858""
","
",,245,run_exp/static/images/task_images/land.jpg,65,,,,,,,2,,,1,,,,,,,,12803,1,1,FALSE,,,
dig,71,366895,0.0-25.0-0.0,"""event"",""trial"",""time""
""fullscreenenter"",""1"",""10858""
","
","
","""event"",""trial"",""time""
""fullscreenenter"",""1"",""10858""
","
",,,,,,,,,,,,"[{""stimulus"":""run_exp/static/images/task_images/dig.jpg"",""time"":0.2000000000698492},{""stimulus"":""run_exp/static/images/task_images/land.jpg"",""time"":926.5},{""stimulus"":""run_exp/static/images/task_images/dig.jpg"",""time"":1844.3000000000466}]",[],1,,,,,,,,,,,,,,
harvest,72,367900,0.0-25.0-1.0,"""event"",""trial"",""time""
""fullscreenenter"",""1"",""10858""
","
","
","""event"",""trial"",""time""
""fullscreenenter"",""1"",""10858""
","
",,null,run_exp/static/images/task_images/gems/2.jpg,null,,,,,,,0,,,1,,,,,2,0.109312471,0,,,,,,,
decision,73,370013,0.0-25.0-2.0,"""event"",""trial"",""time""
""fullscreenenter"",""1"",""10858""
","
","
","""event"",""trial"",""time""
""fullscreenenter"",""1"",""10858""
","
",,2111.8,run_exp/static/images/task_images/land.jpg,76,,,,,,,0,,,1,,,,,,,,18679,1,2,TRUE,,,
travel,74,377907,0.0-26.0-0.0,"""event"",""trial"",""time""
""fullscreenenter"",""1"",""10858""
","
","
","""event"",""trial"",""time""
""fullscreenenter"",""1"",""10858""
","
",,,,,,,,,,,,"[{""stimulus"":""run_exp/static/images/task_images/rocket-01.jpg"",""time"":0.09999999997671694},{""stimulus"":""run_exp/static/images/task_images/rocket-02.jpg"",""time"":882.4000000000233},{""stimulus"":""run_exp/static/images/task_images/rocket-03.jpg"",""time"":1762.3000000000466},{""stimulus"":""run_exp/static/images/task_images/rocket-04.jpg"",""time"":2634.4000000000233},{""stimulus"":""run_exp/static/images/task_images/rocket-05.jpg"",""time"":3514.0999999999767},{""stimulus"":""run_exp/static/images/task_images/rocket-06.jpg"",""time"":4386.300000000047},{""stimulus"":""run_exp/static/images/task_images/rocket-07.jpg"",""time"":5266.300000000047},{""stimulus"":""run_exp/static/images/task_images/rocket-08.jpg"",""time"":6136},{""stimulus"":""run_exp/static/images/task_images/rocket-09.jpg"",""time"":7014.5}]",[],1,,,,,,,,,,,,,,
alien_welcome,75,382914,0.0-26.0-1.0,"""event"",""trial"",""time""
""fullscreenenter"",""1"",""10858""
","
","
","""event"",""trial"",""time""
""fullscreenenter"",""1"",""10858""
","
",,null,run_exp/static/images/task_images/aliens/old_aliens/planet/alien_planet-1.jpg,null,,,,,,,,,,,,,1,"65,1,5,7,15,76,24,50,37,32,13,55,73,19,17,43,10,45,48,3,22,62,78,68,63,23,38,53,2,69,14,60,56,66,4,54,41,57,44,40,30,77,25,70,74,6",,,,,,,,,,
land,76,383427,0.0-26.0-2.0,"""event"",""trial"",""time""
""fullscreenenter"",""1"",""10858""
","
","
","""event"",""trial"",""time""
""fullscreenenter"",""1"",""10858""
","
",,null,run_exp/static/images/task_images/land.jpg,null,,,,,,,105,,,2,,,,,,,,,,,,,,
dig,77,385442,0.0-26.0-3.0,"""event"",""trial"",""time""
""fullscreenenter"",""1"",""10858""
","
","
","""event"",""trial"",""time""
""fullscreenenter"",""1"",""10858""
","
",,,,,,,,,,,,"[{""stimulus"":""run_exp/static/images/task_images/dig.jpg"",""time"":0.5999999999767169},{""stimulus"":""run_exp/static/images/task_images/land.jpg"",""time"":674.3000000000466},{""stimulus"":""run_exp/static/images/task_images/dig.jpg"",""time"":1338.5}]",[],2,,,,,,,,,,,,,,
harvest,78,386451,0.0-26.0-4.0,"""event"",""trial"",""time""
""fullscreenenter"",""1"",""10858""
","
","
","""event"",""trial"",""time""
""fullscreenenter"",""1"",""10858""
","
",,null,run_exp/static/images/task_images/gems/105.jpg,null,,,,,,,24,,,2,,,,,105,0.224166625,0.228571429,,,,,,,
decision,79,386893,0.0-26.0-5.0,"""event"",""trial"",""time""
""fullscreenenter"",""1"",""10858""
","
","
","""event"",""trial"",""time""
""fullscreenenter"",""1"",""10858""
","
",,440.3,run_exp/static/images/task_images/land.jpg,65,,,,,,,24,,,2,,,,,,,,35559,1,0,FALSE,,,
dig,80,389463,0.0-27.0-0.0,"""event"",""trial"",""time""
""fullscreenenter"",""1"",""10858""
","
","
","""event"",""trial"",""time""
""fullscreenenter"",""1"",""10858""
","
",,,,,,,,,,,,"[{""stimulus"":""run_exp/static/images/task_images/dig.jpg"",""time"":0.19999999995343387},{""stimulus"":""run_exp/static/images/task_images/land.jpg"",""time"":866.9000000000233},{""stimulus"":""run_exp/static/images/task_images/dig.jpg"",""time"":1714.9000000000233}]",[],2,,,,,,,,,,,,,,
harvest,81,390475,0.0-27.0-1.0,"""event"",""trial"",""time""
""fullscreenenter"",""1"",""10858""
","
","
","""event"",""trial"",""time""
""fullscreenenter"",""1"",""10858""
","
",,null,run_exp/static/images/task_images/gems/24.jpg,null,,,,,,,6,,,2,,,,,24,0.240886789,0.25,,,,,,,
decision,82,391283,0.0-27.0-2.0,"""event"",""trial"",""time""
""fullscreenenter"",""1"",""10858""
","
","
","""event"",""trial"",""time""
""fullscreenenter"",""1"",""10858""
","
",,805.8,run_exp/static/images/task_images/land.jpg,76,,,,,,,6,,,2,,,,,,,,39949,1,1,TRUE,,,
travel,83,400481,0.0-28.0-0.0,"""event"",""trial"",""time""
""fullscreenenter"",""1"",""10858""
","
","
","""event"",""trial"",""time""
""fullscreenenter"",""1"",""10858""
","
",,,,,,,,,,,,"[{""stimulus"":""run_exp/static/images/task_images/rocket-01.jpg"",""time"":0.2999999999301508},{""stimulus"":""run_exp/static/images/task_images/rocket-02.jpg"",""time"":1025.5},{""stimulus"":""run_exp/static/images/task_images/rocket-03.jpg"",""time"":2052},{""stimulus"":""run_exp/static/images/task_images/rocket-04.jpg"",""time"":3076},{""stimulus"":""run_exp/static/images/task_images/rocket-05.jpg"",""time"":4092},{""stimulus"":""run_exp/static/images/task_images/rocket-06.jpg"",""time"":5116.099999999977},{""stimulus"":""run_exp/static/images/task_images/rocket-07.jpg"",""time"":6139.599999999977},{""stimulus"":""run_exp/static/images/task_images/rocket-08.jpg"",""time"":7156.099999999977},{""stimulus"":""run_exp/static/images/task_images/rocket-09.jpg"",""time"":8179}]",[],2,,,,,,,,,,,,,,
alien_welcome,84,405490,0.0-28.0-1.0,"""event"",""trial"",""time""
""fullscreenenter"",""1"",""10858""
","
","
","""event"",""trial"",""time""
""fullscreenenter"",""1"",""10858""
","
",,null,run_exp/static/images/task_images/aliens/old_aliens/planet/alien_planet-5.jpg,null,,,,,,,,,,,,,5,"65,1,5,7,15,76,24,50,37,32,13,55,73,19,17,43,10,45,48,3,22,62,78,68,63,23,38,53,2,69,14,60,56,66,4,54,41,57,44,40,30,77,25,70,74,6",,,,,,,,,,
land,85,406002,0.0-28.0-2.0,"""event"",""trial"",""time""
""fullscreenenter"",""1"",""10858""
","
","
","""event"",""trial"",""time""
""fullscreenenter"",""1"",""10858""
","
",,null,run_exp/static/images/task_images/land.jpg,null,,,,,,,84,,,3,,,,,,,,,,,,,,
dig,86,408018,0.0-28.0-3.0,"""event"",""trial"",""time""
""fullscreenenter"",""1"",""10858""
","
","
","""event"",""trial"",""time""
""fullscreenenter"",""1"",""10858""
","
",,,,,,,,,,,,"[{""stimulus"":""run_exp/static/images/task_images/dig.jpg"",""time"":0.5},{""stimulus"":""run_exp/static/images/task_images/land.jpg"",""time"":678.2000000000698},{""stimulus"":""run_exp/static/images/task_images/dig.jpg"",""time"":1337.8000000000466}]",[],3,,,,,,,,,,,,,,
harvest,87,409026,0.0-28.0-4.0,"""event"",""trial"",""time""
""fullscreenenter"",""1"",""10858""
","
","
","""event"",""trial"",""time""
""fullscreenenter"",""1"",""10858""
","
",,null,run_exp/static/images/task_images/gems/84.jpg,null,,,,,,,38,,,3,,,,,84,0.457055026,0.452380952,,,,,,,
decision,88,409919,0.0-28.0-5.0,"""event"",""trial"",""time""
""fullscreenenter"",""1"",""10858""
","
","
","""event"",""trial"",""time""
""fullscreenenter"",""1"",""10858""
","
",,890.8,run_exp/static/images/task_images/land.jpg,65,,,,,,,38,,,3,,,,,,,,58585,1,0,FALSE,,,
dig,89,412042,0.0-29.0-0.0,"""event"",""trial"",""time""
""fullscreenenter"",""1"",""10858""
","
","
","""event"",""trial"",""time""
""fullscreenenter"",""1"",""10858""
","
",,,,,,,,,,,,"[{""stimulus"":""run_exp/static/images/task_images/dig.jpg"",""time"":0.09999999997671694},{""stimulus"":""run_exp/static/images/task_images/land.jpg"",""time"":712.5},{""stimulus"":""run_exp/static/images/task_images/dig.jpg"",""time"":1416.5}]",[],3,,,,,,,,,,,,,,
harvest,90,413045,0.0-29.0-1.0,"""event"",""trial"",""time""
""fullscreenenter"",""1"",""10858""
","
","
","""event"",""trial"",""time""
""fullscreenenter"",""1"",""10858""
","
",,null,run_exp/static/images/task_images/gems/38.jpg,null,,,,,,,21,,,3,,,,,38,0.555617604,0.552631579,,,,,,,
decision,91,414307,0.0-29.0-2.0,"""event"",""trial"",""time""
""fullscreenenter"",""1"",""10858""
","
","
","""event"",""trial"",""time""
""fullscreenenter"",""1"",""10858""
","
",,1259.9,run_exp/static/images/task_images/land.jpg,76,,,,,,,21,,,3,,,,,,,,62973,1,1,TRUE,,,
travel,92,423058,0.0-30.0-0.0,"""event"",""trial"",""time""
""fullscreenenter"",""1"",""10858""
","
","
","""event"",""trial"",""time""
""fullscreenenter"",""1"",""10858""
","
",,,,,,,,,,,,"[{""stimulus"":""run_exp/static/images/task_images/rocket-01.jpg"",""time"":0.2000000000698492},{""stimulus"":""run_exp/static/images/task_images/rocket-02.jpg"",""time"":979.8000000000466},{""stimulus"":""run_exp/static/images/task_images/rocket-03.jpg"",""time"":1951.4000000000233},{""stimulus"":""run_exp/static/images/task_images/rocket-04.jpg"",""time"":2923.70000000007},{""stimulus"":""run_exp/static/images/task_images/rocket-05.jpg"",""time"":3887.100000000093},{""stimulus"":""run_exp/static/images/task_images/rocket-06.jpg"",""time"":4867.70000000007},{""stimulus"":""run_exp/static/images/task_images/rocket-07.jpg"",""time"":5832.20000000007},{""stimulus"":""run_exp/static/images/task_images/rocket-08.jpg"",""time"":6799},{""stimulus"":""run_exp/static/images/task_images/rocket-09.jpg"",""time"":7779.70000000007}]",[],3,,,,,,,,,,,,,,
alien_welcome,93,428066,0.0-30.0-1.0,"""event"",""trial"",""time""
""fullscreenenter"",""1"",""10858""
","
","
","""event"",""trial"",""time""
""fullscreenenter"",""1"",""10858""
","
",,null,run_exp/static/images/task_images/aliens/old_aliens/planet/alien_planet-7.jpg,null,,,,,,,,,,,,,7,"65,1,5,7,15,76,24,50,37,32,13,55,73,19,17,43,10,45,48,3,22,62,78,68,63,23,38,53,2,69,14,60,56,66,4,54,41,57,44,40,30,77,25,70,74,6",,,,,,,,,,
land,94,428577,0.0-30.0-2.0,"""event"",""trial"",""time""
""fullscreenenter"",""1"",""10858""
","
","
","""event"",""trial"",""time""
""fullscreenenter"",""1"",""10858""
","
",,null,run_exp/static/images/task_images/land.jpg,null,,,,,,,109,,,4,,,,,,,,,,,,,,
dig,95,430592,0.0-30.0-3.0,"""event"",""trial"",""time""
""fullscreenenter"",""1"",""10858""
","
","
","""event"",""trial"",""time""
""fullscreenenter"",""1"",""10858""
","
",,,,,,,,,,,,"[{""stimulus"":""run_exp/static/images/task_images/dig.jpg"",""time"":0.5},{""stimulus"":""run_exp/static/images/task_images/land.jpg"",""time"":679.0999999999767},{""stimulus"":""run_exp/static/images/task_images/dig.jpg"",""time"":1343.3999999999069}]",[],4,,,,,,,,,,,,,,
harvest,96,431597,0.0-30.0-4.0,"""event"",""trial"",""time""
""fullscreenenter"",""1"",""10858""
","
","
","""event"",""trial"",""time""
""fullscreenenter"",""1"",""10858""
","
",,null,run_exp/static/images/task_images/gems/109.jpg,null,,,,,,,49,,,4,,,,,109,0.447394406,0.449541284,,,,,,,
decision,97,431923,0.0-30.0-5.0,"""event"",""trial"",""time""
""fullscreenenter"",""1"",""10858""
","
","
","""event"",""trial"",""time""
""fullscreenenter"",""1"",""10858""
","
",,324.2,run_exp/static/images/task_images/land.jpg,65,,,,,,,49,,,4,,,,,,,,80590,1,0,FALSE,,,
dig,98,434609,0.0-31.0-0.0,"""event"",""trial"",""time""
""fullscreenenter"",""1"",""10858""
","
","
","""event"",""trial"",""time""
""fullscreenenter"",""1"",""10858""
","
",,,,,,,,,,,,"[{""stimulus"":""run_exp/static/images/task_images/dig.jpg"",""time"":0.09999999997671694},{""stimulus"":""run_exp/static/images/task_images/land.jpg"",""time"":897.0999999999767},{""stimulus"":""run_exp/static/images/task_images/dig.jpg"",""time"":1794.9000000000233}]",[],4,,,,,,,,,,,,,,
harvest,99,435617,0.0-31.0-1.0,"""event"",""trial"",""time""
""fullscreenenter"",""1"",""10858""
","
","
","""event"",""trial"",""time""
""fullscreenenter"",""1"",""10858""
","
",,null,run_exp/static/images/task_images/gems/49.jpg,null,,,,,,,26,,,4,,,,,49,0.530302841,0.530612245,,,,,,,
decision,100,435932,0.0-31.0-2.0,"""event"",""trial"",""time""
""fullscreenenter"",""1"",""10858""
","
","
","""event"",""trial"",""time""
""fullscreenenter"",""1"",""10858""
","
",,312.4,run_exp/static/images/task_images/land.jpg,65,,,,,,,26,,,4,,,,,,,,84598,1,1,FALSE,,,
dig,101,438633,0.0-32.0-0.0,"""event"",""trial"",""time""
""fullscreenenter"",""1"",""10858""
","
","
","""event"",""trial"",""time""
""fullscreenenter"",""1"",""10858""
","
",,,,,,,,,,,,"[{""stimulus"":""run_exp/static/images/task_images/dig.jpg"",""time"":0.40000000002328306},{""stimulus"":""run_exp/static/images/task_images/land.jpg"",""time"":905.8000000000466},{""stimulus"":""run_exp/static/images/task_images/dig.jpg"",""time"":1801.9000000000233}]",[],4,,,,,,,,,,,,,,
harvest,102,439638,0.0-32.0-1.0,"""event"",""trial"",""time""
""fullscreenenter"",""1"",""10858""
","
","
","""event"",""trial"",""time""
""fullscreenenter"",""1"",""10858""
","
",,null,run_exp/static/images/task_images/gems/26.jpg,null,,,,,,,13,,,4,,,,,26,0.508149367,0.5,,,,,,,
decision,103,440172,0.0-32.0-2.0,"""event"",""trial"",""time""
""fullscreenenter"",""1"",""10858""
","
","
","""event"",""trial"",""time""
""fullscreenenter"",""1"",""10858""
","
",,532.2,run_exp/static/images/task_images/land.jpg,76,,,,,,,13,,,4,,,,,,,,88838,1,2,TRUE,,,
travel,104,449641,0.0-33.0-0.0,"""event"",""trial"",""time""
""fullscreenenter"",""1"",""10858""
","
","
","""event"",""trial"",""time""
""fullscreenenter"",""1"",""10858""
","
",,,,,,,,,,,,"[{""stimulus"":""run_exp/static/images/task_images/rocket-01.jpg"",""time"":0.09999999997671694},{""stimulus"":""run_exp/static/images/task_images/rocket-02.jpg"",""time"":1053.8000000000466},{""stimulus"":""run_exp/static/images/task_images/rocket-03.jpg"",""time"":2113.8000000000466},{""stimulus"":""run_exp/static/images/task_images/rocket-04.jpg"",""time"":3160},{""stimulus"":""run_exp/static/images/task_images/rocket-05.jpg"",""time"":4215.599999999977},{""stimulus"":""run_exp/static/images/task_images/rocket-06.jpg"",""time"":5265.900000000023},{""stimulus"":""run_exp/static/images/task_images/rocket-07.jpg"",""time"":6313.900000000023},{""stimulus"":""run_exp/static/images/task_images/rocket-08.jpg"",""time"":7369.900000000023},{""stimulus"":""run_exp/static/images/task_images/rocket-09.jpg"",""time"":8417.900000000023}]",[],4,,,,,,,,,,,,,,
alien_welcome,105,454645,0.0-33.0-1.0,"""event"",""trial"",""time""
""fullscreenenter"",""1"",""10858""
","
","
","""event"",""trial"",""time""
""fullscreenenter"",""1"",""10858""
","
",,null,run_exp/static/images/task_images/aliens/old_aliens/planet/alien_planet-15.jpg,null,,,,,,,,,,,,,15,"65,1,5,7,15,76,24,50,37,32,13,55,73,19,17,43,10,45,48,3,22,62,78,68,63,23,38,53,2,69,14,60,56,66,4,54,41,57,44,40,30,77,25,70,74,6",,,,,,,,,,
land,106,455149,0.0-33.0-2.0,"""event"",""trial"",""time""
""fullscreenenter"",""1"",""10858""
","
","
","""event"",""trial"",""time""
""fullscreenenter"",""1"",""10858""
","
",,null,run_exp/static/images/task_images/land.jpg,null,,,,,,,103,,,5,,,,,,,,,,,,,,
dig,107,457161,0.0-33.0-3.0,"""event"",""trial"",""time""
""fullscreenenter"",""1"",""10858""
","
","
","""event"",""trial"",""time""
""fullscreenenter"",""1"",""10858""
","
",,,,,,,,,,,,"[{""stimulus"":""run_exp/static/images/task_images/dig.jpg"",""time"":0.5},{""stimulus"":""run_exp/static/images/task_images/land.jpg"",""time"":674.2000000000698},{""stimulus"":""run_exp/static/images/task_images/dig.jpg"",""time"":1342}]",[],5,,,,,,,,,,,,,,
harvest,108,458169,0.0-33.0-4.0,"""event"",""trial"",""time""
""fullscreenenter"",""1"",""10858""
","
","
","""event"",""trial"",""time""
""fullscreenenter"",""1"",""10858""
","
",,null,run_exp/static/images/task_images/gems/103.jpg,null,,,,,,,64,,,5,,,,,103,0.6233886,0.621359223,,,,,,,
decision,109,458696,0.0-33.0-5.0,"""event"",""trial"",""time""
""fullscreenenter"",""1"",""10858""
","
","
","""event"",""trial"",""time""
""fullscreenenter"",""1"",""10858""
","
",,525.6,run_exp/static/images/task_images/land.jpg,65,,,,,,,64,,,5,,,,,,,,107362,1,0,FALSE,,,
dig,110,461184,0.0-34.0-0.0,"""event"",""trial"",""time""
""fullscreenenter"",""1"",""10858""
","
","
","""event"",""trial"",""time""
""fullscreenenter"",""1"",""10858""
","
",,,,,,,,,,,,"[{""stimulus"":""run_exp/static/images/task_images/dig.jpg"",""time"":0.10000000009313226},{""stimulus"":""run_exp/static/images/task_images/land.jpg"",""time"":837.2000000000698},{""stimulus"":""run_exp/static/images/task_images/dig.jpg"",""time"":1659.3000000000466}]",[],5,,,,,,,,,,,,,,
harvest,111,462191,0.0-34.0-1.0,"""event"",""trial"",""time""
""fullscreenenter"",""1"",""10858""
","
","
","""event"",""trial"",""time""
""fullscreenenter"",""1"",""10858""
","
",,null,run_exp/static/images/task_images/gems/64.jpg,null,,,,,,,35,,,5,,,,,64,0.53915216,0.546875,,,,,,,
decision,112,462987,0.0-34.0-2.0,"""event"",""trial"",""time""
""fullscreenenter"",""1"",""10858""
","
","
","""event"",""trial"",""time""
""fullscreenenter"",""1"",""10858""
","
",,793.7,run_exp/static/images/task_images/land.jpg,76,,,,,,,35,,,5,,,,,,,,111653,1,1,TRUE,,,
travel,113,472200,0.0-35.0-0.0,"""event"",""trial"",""time""
""fullscreenenter"",""1"",""10858""
","
","
","""event"",""trial"",""time""
""fullscreenenter"",""1"",""10858""
","
",,,,,,,,,,,,"[{""stimulus"":""run_exp/static/images/task_images/rocket-01.jpg"",""time"":0.19999999995343387},{""stimulus"":""run_exp/static/images/task_images/rocket-02.jpg"",""time"":1033.6999999999534},{""stimulus"":""run_exp/static/images/task_images/rocket-03.jpg"",""time"":2058.0999999999767},{""stimulus"":""run_exp/static/images/task_images/rocket-04.jpg"",""time"":3070.5},{""stimulus"":""run_exp/static/images/task_images/rocket-05.jpg"",""time"":4098},{""stimulus"":""run_exp/static/images/task_images/rocket-06.jpg"",""time"":5118.099999999977},{""stimulus"":""run_exp/static/images/task_images/rocket-07.jpg"",""time"":6146.099999999977},{""stimulus"":""run_exp/static/images/task_images/rocket-08.jpg"",""time"":7162.099999999977},{""stimulus"":""run_exp/static/images/task_images/rocket-09.jpg"",""time"":8185.399999999907}]",[],5,,,,,,,,,,,,,,
alien_welcome,114,477207,0.0-35.0-1.0,"""event"",""trial"",""time""
""fullscreenenter"",""1"",""10858""
","
","
","""event"",""trial"",""time""
""fullscreenenter"",""1"",""10858""
","
",,null,run_exp/static/images/task_images/aliens/old_aliens/planet/alien_planet-76.jpg,null,,,,,,,,,,,,,76,"65,1,5,7,15,76,24,50,37,32,13,55,73,19,17,43,10,45,48,3,22,62,78,68,63,23,38,53,2,69,14,60,56,66,4,54,41,57,44,40,30,77,25,70,74,6",,,,,,,,,,
land,115,477720,0.0-35.0-2.0,"""event"",""trial"",""time""
""fullscreenenter"",""1"",""10858""
","
","
","""event"",""trial"",""time""
""fullscreenenter"",""1"",""10858""
","
",,null,run_exp/static/images/task_images/land.jpg,null,,,,,,,104,,,6,,,,,,,,,,,,,,
dig,116,479732,0.0-35.0-3.0,"""event"",""trial"",""time""
""fullscreenenter"",""1"",""10858""
","
","
","""event"",""trial"",""time""
""fullscreenenter"",""1"",""10858""
","
",,,,,,,,,,,,"[{""stimulus"":""run_exp/static/images/task_images/dig.jpg"",""time"":0.5},{""stimulus"":""run_exp/static/images/task_images/land.jpg"",""time"":678.3000000000466},{""stimulus"":""run_exp/static/images/task_images/dig.jpg"",""time"":1339}]",[],6,,,,,,,,,,,,,,
harvest,117,480744,0.0-35.0-4.0,"""event"",""trial"",""time""
""fullscreenenter"",""1"",""10858""
","
","
","""event"",""trial"",""time""
""fullscreenenter"",""1"",""10858""
","
",,null,run_exp/static/images/task_images/gems/104.jpg,null,,,,,,,89,,,6,,,,,104,0.851211606,0.855769231,,,,,,,
decision,118,481220,0.0-35.0-5.0,"""event"",""trial"",""time""
""fullscreenenter"",""1"",""10858""
","
","
","""event"",""trial"",""time""
""fullscreenenter"",""1"",""10858""
","
",,473.8,run_exp/static/images/task_images/land.jpg,65,,,,,,,89,,,6,,,,,,,,129886,1,0,FALSE,,,
dig,119,483760,0.0-36.0-0.0,"""event"",""trial"",""time""
""fullscreenenter"",""1"",""10858""
","
","
","""event"",""trial"",""time""
""fullscreenenter"",""1"",""10858""
","
",,,,,,,,,,,,"[{""stimulus"":""run_exp/static/images/task_images/dig.jpg"",""time"":0.19999999995343387},{""stimulus"":""run_exp/static/images/task_images/land.jpg"",""time"":848.4000000000233},{""stimulus"":""run_exp/static/images/task_images/dig.jpg"",""time"":1696.5999999999767}]",[],6,,,,,,,,,,,,,,
harvest,120,484768,0.0-36.0-1.0,"""event"",""trial"",""time""
""fullscreenenter"",""1"",""10858""
","
","
","""event"",""trial"",""time""
""fullscreenenter"",""1"",""10858""
","
",,null,run_exp/static/images/task_images/gems/89.jpg,null,,,,,,,66,,,6,,,,,89,0.736439803,0.741573034,,,,,,,
decision,121,485290,0.0-36.0-2.0,"""event"",""trial"",""time""
""fullscreenenter"",""1"",""10858""
","
","
","""event"",""trial"",""time""
""fullscreenenter"",""1"",""10858""
","
",,520.5,run_exp/static/images/task_images/land.jpg,65,,,,,,,66,,,6,,,,,,,,133957,1,1,FALSE,,,
dig,122,487784,0.0-37.0-0.0,"""event"",""trial"",""time""
""fullscreenenter"",""1"",""10858""
","
","
","""event"",""trial"",""time""
""fullscreenenter"",""1"",""10858""
","
",,,,,,,,,,,,"[{""stimulus"":""run_exp/static/images/task_images/dig.jpg"",""time"":0.30000000004656613},{""stimulus"":""run_exp/static/images/task_images/land.jpg"",""time"":832.6999999999534},{""stimulus"":""run_exp/static/images/task_images/dig.jpg"",""time"":1664.9000000000233}]",[],6,,,,,,,,,,,,,,
harvest,123,488789,0.0-37.0-1.0,"""event"",""trial"",""time""
""fullscreenenter"",""1"",""10858""
","
","
","""event"",""trial"",""time""
""fullscreenenter"",""1"",""10858""
","
",,null,run_exp/static/images/task_images/gems/66.jpg,null,,,,,,,57,,,6,,,,,66,0.86832677,0.863636364,,,,,,,
decision,124,489210,0.0-37.0-2.0,"""event"",""trial"",""time""
""fullscreenenter"",""1"",""10858""
","
","
","""event"",""trial"",""time""
""fullscreenenter"",""1"",""10858""
","
",,419.1,run_exp/static/images/task_images/land.jpg,76,,,,,,,57,,,6,,,,,,,,137877,1,2,TRUE,,,
travel,125,498799,0.0-38.0-0.0,"""event"",""trial"",""time""
""fullscreenenter"",""1"",""10858""
","
","
","""event"",""trial"",""time""
""fullscreenenter"",""1"",""10858""
","
",,,,,,,,,,,,"[{""stimulus"":""run_exp/static/images/task_images/rocket-01.jpg"",""time"":0.40000000002328306},{""stimulus"":""run_exp/static/images/task_images/rocket-02.jpg"",""time"":1069.6000000000931},{""stimulus"":""run_exp/static/images/task_images/rocket-03.jpg"",""time"":2133.600000000093},{""stimulus"":""run_exp/static/images/task_images/rocket-04.jpg"",""time"":3199.4000000000233},{""stimulus"":""run_exp/static/images/task_images/rocket-05.jpg"",""time"":4263.300000000047},{""stimulus"":""run_exp/static/images/task_images/rocket-06.jpg"",""time"":5327.300000000047},{""stimulus"":""run_exp/static/images/task_images/rocket-07.jpg"",""time"":6391.300000000047},{""stimulus"":""run_exp/static/images/task_images/rocket-08.jpg"",""time"":7456.300000000047},{""stimulus"":""run_exp/static/images/task_images/rocket-09.jpg"",""time"":8521.300000000047}]",[],6,,,,,,,,,,,,,,
alien_welcome,126,503807,0.0-38.0-1.0,"""event"",""trial"",""time""
""fullscreenenter"",""1"",""10858""
","
","
","""event"",""trial"",""time""
""fullscreenenter"",""1"",""10858""
","
",,null,run_exp/static/images/task_images/aliens/old_aliens/planet/alien_planet-24.jpg,null,,,,,,,,,,,,,24,"65,1,5,7,15,76,24,50,37,32,13,55,73,19,17,43,10,45,48,3,22,62,78,68,63,23,38,53,2,69,14,60,56,66,4,54,41,57,44,40,30,77,25,70,74,6",,,,,,,,,,
land,127,504319,0.0-38.0-2.0,"""event"",""trial"",""time""
""fullscreenenter"",""1"",""10858""
","
","
","""event"",""trial"",""time""
""fullscreenenter"",""1"",""10858""
","
",,null,run_exp/static/images/task_images/land.jpg,null,,,,,,,94,,,7,,,,,,,,,,,,,,
dig,128,506335,0.0-38.0-3.0,"""event"",""trial"",""time""
""fullscreenenter"",""1"",""10858""
","
","
","""event"",""trial"",""time""
""fullscreenenter"",""1"",""10858""
","
",,,,,,,,,,,,"[{""stimulus"":""run_exp/static/images/task_images/dig.jpg"",""time"":0.5},{""stimulus"":""run_exp/static/images/task_images/land.jpg"",""time"":678.2000000000698},{""stimulus"":""run_exp/static/images/task_images/dig.jpg"",""time"":1338}]",[],7,,,,,,,,,,,,,,
harvest,129,507343,0.0-38.0-4.0,"""event"",""trial"",""time""
""fullscreenenter"",""1"",""10858""
","
","
","""event"",""trial"",""time""
""fullscreenenter"",""1"",""10858""
","
",,null,run_exp/static/images/task_images/gems/94.jpg,null,,,,,,,80,,,7,,,,,94,0.846548718,0.85106383,,,,,,,
decision,130,507713,0.0-38.0-5.0,"""event"",""trial"",""time""
""fullscreenenter"",""1"",""10858""
","
","
","""event"",""trial"",""time""
""fullscreenenter"",""1"",""10858""
","
",,367.6,run_exp/static/images/task_images/land.jpg,65,,,,,,,80,,,7,,,,,,,,156379,1,0,FALSE,,,
dig,131,510354,0.0-39.0-0.0,"""event"",""trial"",""time""
""fullscreenenter"",""1"",""10858""
","
","
","""event"",""trial"",""time""
""fullscreenenter"",""1"",""10858""
","
",,,,,,,,,,,,"[{""stimulus"":""run_exp/static/images/task_images/dig.jpg"",""time"":0.19999999995343387},{""stimulus"":""run_exp/static/images/task_images/land.jpg"",""time"":883.5},{""stimulus"":""run_exp/static/images/task_images/dig.jpg"",""time"":1763.5}]",[],7,,,,,,,,,,,,,,
harvest,132,511364,0.0-39.0-1.0,"""event"",""trial"",""time""
""fullscreenenter"",""1"",""10858""
","
","
","""event"",""trial"",""time""
""fullscreenenter"",""1"",""10858""
","
",,null,run_exp/static/images/task_images/gems/80.jpg,null,,,,,,,65,,,7,,,,,80,0.814292958,0.8125,,,,,,,
decision,133,511368,0.0-39.0-2.0,"""event"",""trial"",""time""
""fullscreenenter"",""1"",""10858""
","
","
","""event"",""trial"",""time""
""fullscreenenter"",""1"",""10858""
","
",,1.7,run_exp/static/images/task_images/land.jpg,65,,,,,,,65,,,7,,,,,,,,160034,1,1,FALSE,,,
dig,134,514371,0.0-40.0-0.0,"""event"",""trial"",""time""
""fullscreenenter"",""1"",""10858""
","
","
","""event"",""trial"",""time""
""fullscreenenter"",""1"",""10858""
","
",,,,,,,,,,,,"[{""stimulus"":""run_exp/static/images/task_images/dig.jpg"",""time"":0},{""stimulus"":""run_exp/static/images/task_images/land.jpg"",""time"":1010.0999999999767},{""stimulus"":""run_exp/static/images/task_images/dig.jpg"",""time"":2004.5999999999767}]",[],7,,,,,,,,,,,,,,
harvest,135,515383,0.0-40.0-1.0,"""event"",""trial"",""time""
""fullscreenenter"",""1"",""10858""
","
","
","""event"",""trial"",""time""
""fullscreenenter"",""1"",""10858""
","
",,null,run_exp/static/images/task_images/gems/65.jpg,null,,,,,,,54,,,7,,,,,65,0.826508456,0.830769231,,,,,,,
decision,136,516006,0.0-40.0-2.0,"""event"",""trial"",""time""
""fullscreenenter"",""1"",""10858""
","
","
","""event"",""trial"",""time""
""fullscreenenter"",""1"",""10858""
","
",,621.2,run_exp/static/images/task_images/land.jpg,65,,,,,,,54,,,7,,,,,,,,164672,1,2,FALSE,,,
dig,137,518399,0.0-41.0-0.0,"""event"",""trial"",""time""
""fullscreenenter"",""1"",""10858""
","
","
","""event"",""trial"",""time""
""fullscreenenter"",""1"",""10858""
","
",,,,,,,,,,,,"[{""stimulus"":""run_exp/static/images/task_images/dig.jpg"",""time"":0.19999999995343387},{""stimulus"":""run_exp/static/images/task_images/land.jpg"",""time"":801.3999999999069},{""stimulus"":""run_exp/static/images/task_images/dig.jpg"",""time"":1594.5}]",[],7,,,,,,,,,,,,,,
harvest,138,519407,0.0-41.0-1.0,"""event"",""trial"",""time""
""fullscreenenter"",""1"",""10858""
","
","
","""event"",""trial"",""time""
""fullscreenenter"",""1"",""10858""
","
",,null,run_exp/static/images/task_images/gems/54.jpg,null,,,,,,,43,,,7,,,,,54,0.803906256,0.796296296,,,,,,,
decision,139,520011,0.0-41.0-2.0,"""event"",""trial"",""time""
""fullscreenenter"",""1"",""10858""
","
","
","""event"",""trial"",""time""
""fullscreenenter"",""1"",""10858""
","
",,602.6,run_exp/static/images/task_images/land.jpg,76,,,,,,,43,,,7,,,,,,,,168677,1,3,TRUE,,,
travel,140,529422,0.0-42.0-0.0,"""event"",""trial"",""time""
""fullscreenenter"",""1"",""10858""
","
","
","""event"",""trial"",""time""
""fullscreenenter"",""1"",""10858""
","
",,,,,,,,,,,,"[{""stimulus"":""run_exp/static/images/task_images/rocket-01.jpg"",""time"":0.19999999995343387},{""stimulus"":""run_exp/static/images/task_images/rocket-02.jpg"",""time"":1056},{""stimulus"":""run_exp/static/images/task_images/rocket-03.jpg"",""time"":2092.0999999999767},{""stimulus"":""run_exp/static/images/task_images/rocket-04.jpg"",""time"":3134.5},{""stimulus"":""run_exp/static/images/task_images/rocket-05.jpg"",""time"":4179.699999999953},{""stimulus"":""run_exp/static/images/task_images/rocket-06.jpg"",""time"":5232.199999999953},{""stimulus"":""run_exp/static/images/task_images/rocket-07.jpg"",""time"":6268.099999999977},{""stimulus"":""run_exp/static/images/task_images/rocket-08.jpg"",""time"":7320.099999999977},{""stimulus"":""run_exp/static/images/task_images/rocket-09.jpg"",""time"":8355.699999999953}]",[],7,,,,,,,,,,,,,,
alien_welcome,141,534430,0.0-42.0-1.0,"""event"",""trial"",""time""
""fullscreenenter"",""1"",""10858""
","
","
","""event"",""trial"",""time""
""fullscreenenter"",""1"",""10858""
","
",,null,run_exp/static/images/task_images/aliens/old_aliens/planet/alien_planet-50.jpg,null,,,,,,,,,,,,,50,"65,1,5,7,15,76,24,50,37,32,13,55,73,19,17,43,10,45,48,3,22,62,78,68,63,23,38,53,2,69,14,60,56,66,4,54,41,57,44,40,30,77,25,70,74,6",,,,,,,,,,
land,142,534942,0.0-42.0-2.0,"""event"",""trial"",""time""
""fullscreenenter"",""1"",""10858""
","
","
","""event"",""trial"",""time""
""fullscreenenter"",""1"",""10858""
","
",,null,run_exp/static/images/task_images/land.jpg,null,,,,,,,97,,,8,,,,,,,,,,,,,,
dig,143,536958,0.0-42.0-3.0,"""event"",""trial"",""time""
""fullscreenenter"",""1"",""10858""
","
","
","""event"",""trial"",""time""
""fullscreenenter"",""1"",""10858""
","
",,,,,,,,,,,,"[{""stimulus"":""run_exp/static/images/task_images/dig.jpg"",""time"":0.5},{""stimulus"":""run_exp/static/images/task_images/land.jpg"",""time"":675.7999999999302},{""stimulus"":""run_exp/static/images/task_images/dig.jpg"",""time"":1337.9000000000233}]",[],8,,,,,,,,,,,,,,
harvest,144,537966,0.0-42.0-4.0,"""event"",""trial"",""time""
""fullscreenenter"",""1"",""10858""
","
","
","""event"",""trial"",""time""
""fullscreenenter"",""1"",""10858""
","
",,null,run_exp/static/images/task_images/gems/97.jpg,null,,,,,,,84,,,8,,,,,97,0.864468491,0.865979381,,,,,,,
decision,145,538779,0.0-42.0-5.0,"""event"",""trial"",""time""
""fullscreenenter"",""1"",""10858""
","
","
","""event"",""trial"",""time""
""fullscreenenter"",""1"",""10858""
","
",,810.8,run_exp/static/images/task_images/land.jpg,65,,,,,,,84,,,8,,,,,,,,187445,1,0,FALSE,,,
dig,146,540982,0.0-43.0-0.0,"""event"",""trial"",""time""
""fullscreenenter"",""1"",""10858""
","
","
","""event"",""trial"",""time""
""fullscreenenter"",""1"",""10858""
","
",,,,,,,,,,,,"[{""stimulus"":""run_exp/static/images/task_images/dig.jpg"",""time"":0.19999999995343387},{""stimulus"":""run_exp/static/images/task_images/land.jpg"",""time"":735.9000000000233},{""stimulus"":""run_exp/static/images/task_images/dig.jpg"",""time"":1468}]",[],8,,,,,,,,,,,,,,
harvest,147,541986,0.0-43.0-1.0,"""event"",""trial"",""time""
""fullscreenenter"",""1"",""10858""
","
","
","""event"",""trial"",""time""
""fullscreenenter"",""1"",""10858""
","
",,null,run_exp/static/images/task_images/gems/84.jpg,null,,,,,,,69,,,8,,,,,84,0.818640547,0.821428571,,,,,,,
decision,148,542505,0.0-43.0-2.0,"""event"",""trial"",""time""
""fullscreenenter"",""1"",""10858""
","
","
","""event"",""trial"",""time""
""fullscreenenter"",""1"",""10858""
","
",,516.9,run_exp/static/images/task_images/land.jpg,65,,,,,,,69,,,8,,,,,,,,191171,1,1,FALSE,,,
dig,149,544998,0.0-44.0-0.0,"""event"",""trial"",""time""
""fullscreenenter"",""1"",""10858""
","
","
","""event"",""trial"",""time""
""fullscreenenter"",""1"",""10858""
","
",,,,,,,,,,,,"[{""stimulus"":""run_exp/static/images/task_images/dig.jpg"",""time"":0.30000000004656613},{""stimulus"":""run_exp/static/images/task_images/land.jpg"",""time"":836.3000000000466},{""stimulus"":""run_exp/static/images/task_images/dig.jpg"",""time"":1659.3000000000466}]",[],8,,,,,,,,,,,,,,
harvest,150,546001,0.0-44.0-1.0,"""event"",""trial"",""time""
""fullscreenenter"",""1"",""10858""
","
","
","""event"",""trial"",""time""
""fullscreenenter"",""1"",""10858""
","
",,null,run_exp/static/images/task_images/gems/69.jpg,null,,,,,,,47,,,8,,,,,69,0.682768724,0.68115942,,,,,,,
decision,151,546171,0.0-44.0-2.0,"""event"",""trial"",""time""
""fullscreenenter"",""1"",""10858""
","
","
","""event"",""trial"",""time""
""fullscreenenter"",""1"",""10858""
","
",,168,run_exp/static/images/task_images/land.jpg,65,,,,,,,47,,,8,,,,,,,,194837,1,2,FALSE,,,
dig,152,549014,0.0-45.0-0.0,"""event"",""trial"",""time""
""fullscreenenter"",""1"",""10858""
","
","
","""event"",""trial"",""time""
""fullscreenenter"",""1"",""10858""
","
",,,,,,,,,,,,"[{""stimulus"":""run_exp/static/images/task_images/dig.jpg"",""time"":0.19999999995343387},{""stimulus"":""run_exp/static/images/task_images/land.jpg"",""time"":952.0999999999767},{""stimulus"":""run_exp/static/images/task_images/dig.jpg"",""time"":1895.2999999999302}]",[],8,,,,,,,,,,,,,,
harvest,153,550022,0.0-45.0-1.0,"""event"",""trial"",""time""
""fullscreenenter"",""1"",""10858""
","
","
","""event"",""trial"",""time""
""fullscreenenter"",""1"",""10858""
","
",,null,run_exp/static/images/task_images/gems/47.jpg,null,,,,,,,36,,,8,,,,,47,0.768652291,0.765957447,,,,,,,
decision,154,550327,0.0-45.0-2.0,"""event"",""trial"",""time""
""fullscreenenter"",""1"",""10858""
","
","
","""event"",""trial"",""time""
""fullscreenenter"",""1"",""10858""
","
",,302.9,run_exp/static/images/task_images/land.jpg,65,,,,,,,36,,,8,,,,,,,,198993,1,3,FALSE,,,
dig,155,553035,0.0-46.0-0.0,"""event"",""trial"",""time""
""fullscreenenter"",""1"",""10858""
","
","
","""event"",""trial"",""time""
""fullscreenenter"",""1"",""10858""
","
",,,,,,,,,,,,"[{""stimulus"":""run_exp/static/images/task_images/dig.jpg"",""time"":0.2000000000698492},{""stimulus"":""run_exp/static/images/task_images/land.jpg"",""time"":904.5},{""stimulus"":""run_exp/static/images/task_images/dig.jpg"",""time"":1810.9000000000233}]",[],8,,,,,,,,,,,,,,
harvest,156,554039,0.0-46.0-1.0,"""event"",""trial"",""time""
""fullscreenenter"",""1"",""10858""
","
","
","""event"",""trial"",""time""
""fullscreenenter"",""1"",""10858""
","
",,null,run_exp/static/images/task_images/gems/36.jpg,null,,,,,,,31,,,8,,,,,36,0.857927627,0.861111111,,,,,,,
decision,157,554531,0.0-46.0-2.0,"""event"",""trial"",""time""
""fullscreenenter"",""1"",""10858""
","
","
","""event"",""trial"",""time""
""fullscreenenter"",""1"",""10858""
","
",,489.8,run_exp/static/images/task_images/land.jpg,65,,,,,,,31,,,8,,,,,,,,203197,1,4,FALSE,,,
dig,158,557053,0.0-47.0-0.0,"""event"",""trial"",""time""
""fullscreenenter"",""1"",""10858""
","
","
","""event"",""trial"",""time""
""fullscreenenter"",""1"",""10858""
","
",,,,,,,,,,,,"[{""stimulus"":""run_exp/static/images/task_images/dig.jpg"",""time"":0.20000000018626451},{""stimulus"":""run_exp/static/images/task_images/land.jpg"",""time"":846},{""stimulus"":""run_exp/static/images/task_images/dig.jpg"",""time"":1686}]",[],8,,,,,,,,,,,,,,
harvest,159,558059,0.0-47.0-1.0,"""event"",""trial"",""time""
""fullscreenenter"",""1"",""10858""
","
","
","""event"",""trial"",""time""
""fullscreenenter"",""1"",""10858""
","
",,null,run_exp/static/images/task_images/gems/31.jpg,null,,,,,,,22,,,8,,,,,31,0.703545903,0.709677419,,,,,,,
decision,160,558580,0.0-47.0-2.0,"""event"",""trial"",""time""
""fullscreenenter"",""1"",""10858""
","
","
","""event"",""trial"",""time""
""fullscreenenter"",""1"",""10858""
","
",,518.6,run_exp/static/images/task_images/land.jpg,76,,,,,,,22,,,8,,,,,,,,207246,1,5,TRUE,,,
travel,161,568065,0.0-48.0-0.0,"""event"",""trial"",""time""
""fullscreenenter"",""1"",""10858""
","
","
","""event"",""trial"",""time""
""fullscreenenter"",""1"",""10858""
","
",,,,,,,,,,,,"[{""stimulus"":""run_exp/static/images/task_images/rocket-01.jpg"",""time"":0.19999999995343387},{""stimulus"":""run_exp/static/images/task_images/rocket-02.jpg"",""time"":1057.5},{""stimulus"":""run_exp/static/images/task_images/rocket-03.jpg"",""time"":2113.5},{""stimulus"":""run_exp/static/images/task_images/rocket-04.jpg"",""time"":3161.8000000000466},{""stimulus"":""run_exp/static/images/task_images/rocket-05.jpg"",""time"":4221.399999999907},{""stimulus"":""run_exp/static/images/task_images/rocket-06.jpg"",""time"":5275.300000000047},{""stimulus"":""run_exp/static/images/task_images/rocket-07.jpg"",""time"":6321.300000000047},{""stimulus"":""run_exp/static/images/task_images/rocket-08.jpg"",""time"":7381.59999999986},{""stimulus"":""run_exp/static/images/task_images/rocket-09.jpg"",""time"":8437.699999999953}]",[],8,,,,,,,,,,,,,,
alien_welcome,162,573077,0.0-48.0-1.0,"""event"",""trial"",""time""
""fullscreenenter"",""1"",""10858""
","
","
","""event"",""trial"",""time""
""fullscreenenter"",""1"",""10858""
","
",,null,run_exp/static/images/task_images/aliens/old_aliens/planet/alien_planet-37.jpg,null,,,,,,,,,,,,,37,"65,1,5,7,15,76,24,50,37,32,13,55,73,19,17,43,10,45,48,3,22,62,78,68,63,23,38,53,2,69,14,60,56,66,4,54,41,57,44,40,30,77,25,70,74,6",,,,,,,,,,
land,163,573584,0.0-48.0-2.0,"""event"",""trial"",""time""
""fullscreenenter"",""1"",""10858""
","
","
","""event"",""trial"",""time""
""fullscreenenter"",""1"",""10858""
","
",,null,run_exp/static/images/task_images/land.jpg,null,,,,,,,88,,,9,,,,,,,,,,,,,,
dig,164,575596,0.0-48.0-3.0,"""event"",""trial"",""time""
""fullscreenenter"",""1"",""10858""
","
","
","""event"",""trial"",""time""
""fullscreenenter"",""1"",""10858""
","
",,,,,,,,,,,,"[{""stimulus"":""run_exp/static/images/task_images/dig.jpg"",""time"":0.5},{""stimulus"":""run_exp/static/images/task_images/land.jpg"",""time"":674.6999999999534},{""stimulus"":""run_exp/static/images/task_images/dig.jpg"",""time"":1345.3000000000466}]",[],9,,,,,,,,,,,,,,
harvest,165,576604,0.0-48.0-4.0,"""event"",""trial"",""time""
""fullscreenenter"",""1"",""10858""
","
","
","""event"",""trial"",""time""
""fullscreenenter"",""1"",""10858""
","
",,null,run_exp/static/images/task_images/gems/88.jpg,null,,,,,,,15,,,9,,,,,88,0.172229856,0.170454545,,,,,,,
decision,166,576691,0.0-48.0-5.0,"""event"",""trial"",""time""
""fullscreenenter"",""1"",""10858""
","
","
","""event"",""trial"",""time""
""fullscreenenter"",""1"",""10858""
","
",,84.7,run_exp/static/images/task_images/land.jpg,65,,,,,,,15,,,9,,,,,,,,225357,1,0,FALSE,,,
dig,167,579618,0.0-49.0-0.0,"""event"",""trial"",""time""
""fullscreenenter"",""1"",""10858""
","
","
","""event"",""trial"",""time""
""fullscreenenter"",""1"",""10858""
","
",,,,,,,,,,,,"[{""stimulus"":""run_exp/static/images/task_images/dig.jpg"",""time"":0.30000000004656613},{""stimulus"":""run_exp/static/images/task_images/land.jpg"",""time"":980},{""stimulus"":""run_exp/static/images/task_images/dig.jpg"",""time"":1949.0999999998603}]",[],9,,,,,,,,,,,,,,
harvest,168,580626,0.0-49.0-1.0,"""event"",""trial"",""time""
""fullscreenenter"",""1"",""10858""
","
","
","""event"",""trial"",""time""
""fullscreenenter"",""1"",""10858""
","
",,null,run_exp/static/images/task_images/gems/15.jpg,null,,,,,,,3,,,9,,,,,15,0.212310429,0.2,,,,,,,
decision,169,581075,0.0-49.0-2.0,"""event"",""trial"",""time""
""fullscreenenter"",""1"",""10858""
","
","
","""event"",""trial"",""time""
""fullscreenenter"",""1"",""10858""
","
",,446.9,run_exp/static/images/task_images/land.jpg,76,,,,,,,3,,,9,,,,,,,,229741,1,1,TRUE,,,
travel,170,590639,0.0-50.0-0.0,"""event"",""trial"",""time""
""fullscreenenter"",""1"",""10858""
","
","
","""event"",""trial"",""time""
""fullscreenenter"",""1"",""10858""
","
",,,,,,,,,,,,"[{""stimulus"":""run_exp/static/images/task_images/rocket-01.jpg"",""time"":0.39999999990686774},{""stimulus"":""run_exp/static/images/task_images/rocket-02.jpg"",""time"":1063.1999999999534},{""stimulus"":""run_exp/static/images/task_images/rocket-03.jpg"",""time"":2131.1999999999534},{""stimulus"":""run_exp/static/images/task_images/rocket-04.jpg"",""time"":3187.399999999907},{""stimulus"":""run_exp/static/images/task_images/rocket-05.jpg"",""time"":4251.09999999986},{""stimulus"":""run_exp/static/images/task_images/rocket-06.jpg"",""time"":5315.09999999986},{""stimulus"":""run_exp/static/images/task_images/rocket-07.jpg"",""time"":6379.199999999953},{""stimulus"":""run_exp/static/images/task_images/rocket-08.jpg"",""time"":7432.699999999953},{""stimulus"":""run_exp/static/images/task_images/rocket-09.jpg"",""time"":8499.199999999953}]",[],9,,,,,,,,,,,,,,
alien_welcome,171,595642,0.0-50.0-1.0,"""event"",""trial"",""time""
""fullscreenenter"",""1"",""10858""
","
","
","""event"",""trial"",""time""
""fullscreenenter"",""1"",""10858""
","
",,null,run_exp/static/images/task_images/aliens/old_aliens/planet/alien_planet-32.jpg,null,,,,,,,,,,,,,32,"65,1,5,7,15,76,24,50,37,32,13,55,73,19,17,43,10,45,48,3,22,62,78,68,63,23,38,53,2,69,14,60,56,66,4,54,41,57,44,40,30,77,25,70,74,6",,,,,,,,,,
land,172,596145,0.0-50.0-2.0,"""event"",""trial"",""time""
""fullscreenenter"",""1"",""10858""
","
","
","""event"",""trial"",""time""
""fullscreenenter"",""1"",""10858""
","
",,null,run_exp/static/images/task_images/land.jpg,null,,,,,,,90,,,10,,,,,,,,,,,,,,
dig,173,598158,0.0-50.0-3.0,"""event"",""trial"",""time""
""fullscreenenter"",""1"",""10858""
","
","
","""event"",""trial"",""time""
""fullscreenenter"",""1"",""10858""
","
",,,,,,,,,,,,"[{""stimulus"":""run_exp/static/images/task_images/dig.jpg"",""time"":0.39999999990686774},{""stimulus"":""run_exp/static/images/task_images/land.jpg"",""time"":673.3000000000466},{""stimulus"":""run_exp/static/images/task_images/dig.jpg"",""time"":1342.8000000000466}]",[],10,,,,,,,,,,,,,,
harvest,174,599166,0.0-50.0-4.0,"""event"",""trial"",""time""
""fullscreenenter"",""1"",""10858""
","
","
","""event"",""trial"",""time""
""fullscreenenter"",""1"",""10858""
","
",,null,run_exp/static/images/task_images/gems/90.jpg,null,,,,,,,17,,,10,,,,,90,0.18921597,0.188888889,,,,,,,
decision,175,599867,0.0-50.0-5.0,"""event"",""trial"",""time""
""fullscreenenter"",""1"",""10858""
","
","
","""event"",""trial"",""time""
""fullscreenenter"",""1"",""10858""
","
",,699.2,run_exp/static/images/task_images/land.jpg,65,,,,,,,17,,,10,,,,,,,,248533,1,0,FALSE,,,
dig,176,602181,0.0-51.0-0.0,"""event"",""trial"",""time""
""fullscreenenter"",""1"",""10858""
","
","
","""event"",""trial"",""time""
""fullscreenenter"",""1"",""10858""
","
",,,,,,,,,,,,"[{""stimulus"":""run_exp/static/images/task_images/dig.jpg"",""time"":0.09999999986030161},{""stimulus"":""run_exp/static/images/task_images/land.jpg"",""time"":770},{""stimulus"":""run_exp/static/images/task_images/dig.jpg"",""time"":1542.3999999999069}]",[],10,,,,,,,,,,,,,,
harvest,177,603189,0.0-51.0-1.0,"""event"",""trial"",""time""
""fullscreenenter"",""1"",""10858""
","
","
","""event"",""trial"",""time""
""fullscreenenter"",""1"",""10858""
","
",,null,run_exp/static/images/task_images/gems/17.jpg,null,,,,,,,3,,,10,,,,,17,0.175729819,0.176470588,,,,,,,
decision,178,603647,0.0-51.0-2.0,"""event"",""trial"",""time""
""fullscreenenter"",""1"",""10858""
","
","
","""event"",""trial"",""time""
""fullscreenenter"",""1"",""10858""
","
",,456.4,run_exp/static/images/task_images/land.jpg,76,,,,,,,3,,,10,,,,,,,,252314,1,1,TRUE,,,
travel,179,613204,0.0-52.0-0.0,"""event"",""trial"",""time""
""fullscreenenter"",""1"",""10858""
","
","
","""event"",""trial"",""time""
""fullscreenenter"",""1"",""10858""
","
",,,,,,,,,,,,"[{""stimulus"":""run_exp/static/images/task_images/rocket-01.jpg"",""time"":0.19999999995343387},{""stimulus"":""run_exp/static/images/task_images/rocket-02.jpg"",""time"":1066.8000000000466},{""stimulus"":""run_exp/static/images/task_images/rocket-03.jpg"",""time"":2129},{""stimulus"":""run_exp/static/images/task_images/rocket-04.jpg"",""time"":3188.899999999907},{""stimulus"":""run_exp/static/images/task_images/rocket-05.jpg"",""time"":4247.199999999953},{""stimulus"":""run_exp/static/images/task_images/rocket-06.jpg"",""time"":5312.800000000047},{""stimulus"":""run_exp/static/images/task_images/rocket-07.jpg"",""time"":6368.800000000047},{""stimulus"":""run_exp/static/images/task_images/rocket-08.jpg"",""time"":7432.899999999907},{""stimulus"":""run_exp/static/images/task_images/rocket-09.jpg"",""time"":8488.899999999907}]",[],10,,,,,,,,,,,,,,
alien_welcome,180,618212,0.0-52.0-1.0,"""event"",""trial"",""time""
""fullscreenenter"",""1"",""10858""
","
","
","""event"",""trial"",""time""
""fullscreenenter"",""1"",""10858""
","
",,null,run_exp/static/images/task_images/aliens/old_aliens/planet/alien_planet-13.jpg,null,,,,,,,,,,,,,13,"65,1,5,7,15,76,24,50,37,32,13,55,73,19,17,43,10,45,48,3,22,62,78,68,63,23,38,53,2,69,14,60,56,66,4,54,41,57,44,40,30,77,25,70,74,6",,,,,,,,,,
land,181,618719,0.0-52.0-2.0,"""event"",""trial"",""time""
""fullscreenenter"",""1"",""10858""
","
","
","""event"",""trial"",""time""
""fullscreenenter"",""1"",""10858""
","
",,null,run_exp/static/images/task_images/land.jpg,null,,,,,,,93,,,11,,,,,,,,,,,,,,
dig,182,620731,0.0-52.0-3.0,"""event"",""trial"",""time""
""fullscreenenter"",""1"",""10858""
","
","
","""event"",""trial"",""time""
""fullscreenenter"",""1"",""10858""
","
",,,,,,,,,,,,"[{""stimulus"":""run_exp/static/images/task_images/dig.jpg"",""time"":0.6000000000931323},{""stimulus"":""run_exp/static/images/task_images/land.jpg"",""time"":674.3000000000466},{""stimulus"":""run_exp/static/images/task_images/dig.jpg"",""time"":1338.3000000000466}]",[],11,,,,,,,,,,,,,,
harvest,183,621739,0.0-52.0-4.0,"""event"",""trial"",""time""
""fullscreenenter"",""1"",""10858""
","
","
","""event"",""trial"",""time""
""fullscreenenter"",""1"",""10858""
","
",,null,run_exp/static/images/task_images/gems/93.jpg,null,,,,,,,17,,,11,,,,,93,0.186916711,0.182795699,,,,,,,
decision,184,622141,0.0-52.0-5.0,"""event"",""trial"",""time""
""fullscreenenter"",""1"",""10858""
","
","
","""event"",""trial"",""time""
""fullscreenenter"",""1"",""10858""
","
",,400.6,run_exp/static/images/task_images/land.jpg,65,,,,,,,17,,,11,,,,,,,,270808,1,0,FALSE,,,
dig,185,624755,0.0-53.0-0.0,"""event"",""trial"",""time""
""fullscreenenter"",""1"",""10858""
","
","
","""event"",""trial"",""time""
""fullscreenenter"",""1"",""10858""
","
",,,,,,,,,,,,"[{""stimulus"":""run_exp/static/images/task_images/dig.jpg"",""time"":0.19999999995343387},{""stimulus"":""run_exp/static/images/task_images/land.jpg"",""time"":873.8000000000466},{""stimulus"":""run_exp/static/images/task_images/dig.jpg"",""time"":1738.3000000000466}]",[],11,,,,,,,,,,,,,,
harvest,186,625759,0.0-53.0-1.0,"""event"",""trial"",""time""
""fullscreenenter"",""1"",""10858""
","
","
","""event"",""trial"",""time""
""fullscreenenter"",""1"",""10858""
","
",,null,run_exp/static/images/task_images/gems/17.jpg,null,,,,,,,4,,,11,,,,,17,0.206205555,0.235294118,,,,,,,
decision,187,626171,0.0-53.0-2.0,"""event"",""trial"",""time""
""fullscreenenter"",""1"",""10858""
","
","
","""event"",""trial"",""time""
""fullscreenenter"",""1"",""10858""
","
",,410.1,run_exp/static/images/task_images/land.jpg,76,,,,,,,4,,,11,,,,,,,,274838,1,1,TRUE,,,
travel,188,635770,0.0-54.0-0.0,"""event"",""trial"",""time""
""fullscreenenter"",""1"",""10858""
","
","
","""event"",""trial"",""time""
""fullscreenenter"",""1"",""10858""
","
",,,,,,,,,,,,"[{""stimulus"":""run_exp/static/images/task_images/rocket-01.jpg"",""time"":0.30000000004656613},{""stimulus"":""run_exp/static/images/task_images/rocket-02.jpg"",""time"":1075.1999999999534},{""stimulus"":""run_exp/static/images/task_images/rocket-03.jpg"",""time"":2138.5},{""stimulus"":""run_exp/static/images/task_images/rocket-04.jpg"",""time"":3199.3000000000466},{""stimulus"":""run_exp/static/images/task_images/rocket-05.jpg"",""time"":4262.800000000047},{""stimulus"":""run_exp/static/images/task_images/rocket-06.jpg"",""time"":5337.699999999953},{""stimulus"":""run_exp/static/images/task_images/rocket-07.jpg"",""time"":6401.100000000093},{""stimulus"":""run_exp/static/images/task_images/rocket-08.jpg"",""time"":7464.600000000093},{""stimulus"":""run_exp/static/images/task_images/rocket-09.jpg"",""time"":8527.100000000093}]",[],11,,,,,,,,,,,,,,
alien_welcome,189,640778,0.0-54.0-1.0,"""event"",""trial"",""time""
""fullscreenenter"",""1"",""10858""
","
","
","""event"",""trial"",""time""
""fullscreenenter"",""1"",""10858""
","
",,null,run_exp/static/images/task_images/aliens/old_aliens/planet/alien_planet-55.jpg,null,,,,,,,,,,,,,55,"65,1,5,7,15,76,24,50,37,32,13,55,73,19,17,43,10,45,48,3,22,62,78,68,63,23,38,53,2,69,14,60,56,66,4,54,41,57,44,40,30,77,25,70,74,6",,,,,,,,,,
land,190,641287,0.0-54.0-2.0,"""event"",""trial"",""time""
""fullscreenenter"",""1"",""10858""
","
","
","""event"",""trial"",""time""
""fullscreenenter"",""1"",""10858""
","
",,null,run_exp/static/images/task_images/land.jpg,null,,,,,,,97,,,12,,,,,,,,,,,,,,
dig,191,643298,0.0-54.0-3.0,"""event"",""trial"",""time""
""fullscreenenter"",""1"",""10858""
","
","
","""event"",""trial"",""time""
""fullscreenenter"",""1"",""10858""
","
",,,,,,,,,,,,"[{""stimulus"":""run_exp/static/images/task_images/dig.jpg"",""time"":0.5999999998603016},{""stimulus"":""run_exp/static/images/task_images/land.jpg"",""time"":677.2999999998137},{""stimulus"":""run_exp/static/images/task_images/dig.jpg"",""time"":1342.0999999998603}]",[],12,,,,,,,,,,,,,,
harvest,192,644304,0.0-54.0-4.0,"""event"",""trial"",""time""
""fullscreenenter"",""1"",""10858""
","
","
","""event"",""trial"",""time""
""fullscreenenter"",""1"",""10858""
","
",,null,run_exp/static/images/task_images/gems/97.jpg,null,,,,,,,18,,,12,,,,,97,0.185271234,0.18556701,,,,,,,
decision,193,645306,0.0-54.0-5.0,"""event"",""trial"",""time""
""fullscreenenter"",""1"",""10858""
","
","
","""event"",""trial"",""time""
""fullscreenenter"",""1"",""10858""
","
",,999.7,run_exp/static/images/task_images/land.jpg,65,,,,,,,18,,,12,,,,,,,,293972,1,0,FALSE,,,
dig,194,647320,0.0-55.0-0.0,"""event"",""trial"",""time""
""fullscreenenter"",""1"",""10858""
","
","
","""event"",""trial"",""time""
""fullscreenenter"",""1"",""10858""
","
",,,,,,,,,,,,"[{""stimulus"":""run_exp/static/images/task_images/dig.jpg"",""time"":0.20000000018626451},{""stimulus"":""run_exp/static/images/task_images/land.jpg"",""time"":675},{""stimulus"":""run_exp/static/images/task_images/dig.jpg"",""time"":1334.7000000001863}]",[],12,,,,,,,,,,,,,,
harvest,195,648330,0.0-55.0-1.0,"""event"",""trial"",""time""
""fullscreenenter"",""1"",""10858""
","
","
","""event"",""trial"",""time""
""fullscreenenter"",""1"",""10858""
","
",,null,run_exp/static/images/task_images/gems/18.jpg,null,,,,,,,3,,,12,,,,,18,0.143765489,0.166666667,,,,,,,
decision,196,648696,0.0-55.0-2.0,"""event"",""trial"",""time""
""fullscreenenter"",""1"",""10858""
","
","
","""event"",""trial"",""time""
""fullscreenenter"",""1"",""10858""
","
",,363.6,run_exp/static/images/task_images/land.jpg,76,,,,,,,3,,,12,,,,,,,,297362,1,1,TRUE,,,
travel,197,658337,0.0-56.0-0.0,"""event"",""trial"",""time""
""fullscreenenter"",""1"",""10858""
","
","
","""event"",""trial"",""time""
""fullscreenenter"",""1"",""10858""
","
",,,,,,,,,,,,"[{""stimulus"":""run_exp/static/images/task_images/rocket-01.jpg"",""time"":0.39999999990686774},{""stimulus"":""run_exp/static/images/task_images/rocket-02.jpg"",""time"":1075.3000000000466},{""stimulus"":""run_exp/static/images/task_images/rocket-03.jpg"",""time"":2149.5999999998603},{""stimulus"":""run_exp/static/images/task_images/rocket-04.jpg"",""time"":3221.5999999998603},{""stimulus"":""run_exp/static/images/task_images/rocket-05.jpg"",""time"":4289.59999999986},{""stimulus"":""run_exp/static/images/task_images/rocket-06.jpg"",""time"":5357.59999999986},{""stimulus"":""run_exp/static/images/task_images/rocket-07.jpg"",""time"":6429.59999999986},{""stimulus"":""run_exp/static/images/task_images/rocket-08.jpg"",""time"":7497.5},{""stimulus"":""run_exp/static/images/task_images/rocket-09.jpg"",""time"":8573.5}]",[],12,,,,,,,,,,,,,,
alien_welcome,198,663345,0.0-56.0-1.0,"""event"",""trial"",""time""
""fullscreenenter"",""1"",""10858""
","
","
","""event"",""trial"",""time""
""fullscreenenter"",""1"",""10858""
","
",,null,run_exp/static/images/task_images/aliens/old_aliens/planet/alien_planet-73.jpg,null,,,,,,,,,,,,,73,"65,1,5,7,15,76,24,50,37,32,13,55,73,19,17,43,10,45,48,3,22,62,78,68,63,23,38,53,2,69,14,60,56,66,4,54,41,57,44,40,30,77,25,70,74,6",,,,,,,,,,
land,199,663853,0.0-56.0-2.0,"""event"",""trial"",""time""
""fullscreenenter"",""1"",""10858""
","
","
","""event"",""trial"",""time""
""fullscreenenter"",""1"",""10858""
","
",,null,run_exp/static/images/task_images/land.jpg,null,,,,,,,105,,,13,,,,,,,,,,,,,,
dig,200,665861,0.0-56.0-3.0,"""event"",""trial"",""time""
""fullscreenenter"",""1"",""10858""
","
","
","""event"",""trial"",""time""
""fullscreenenter"",""1"",""10858""
","
",,,,,,,,,,,,"[{""stimulus"":""run_exp/static/images/task_images/dig.jpg"",""time"":0.39999999990686774},{""stimulus"":""run_exp/static/images/task_images/land.jpg"",""time"":674.8999999999069},{""stimulus"":""run_exp/static/images/task_images/dig.jpg"",""time"":1344.6000000000931}]",[],13,,,,,,,,,,,,,,
harvest,201,666870,0.0-56.0-4.0,"""event"",""trial"",""time""
""fullscreenenter"",""1"",""10858""
","
","
","""event"",""trial"",""time""
""fullscreenenter"",""1"",""10858""
","
",,null,run_exp/static/images/task_images/gems/105.jpg,null,,,,,,,25,,,13,,,,,105,0.233914461,0.238095238,,,,,,,
decision,202,667516,0.0-56.0-5.0,"""event"",""trial"",""time""
""fullscreenenter"",""1"",""10858""
","
","
","""event"",""trial"",""time""
""fullscreenenter"",""1"",""10858""
","
",,643.3,run_exp/static/images/task_images/land.jpg,65,,,,,,,25,,,13,,,,,,,,316182,1,0,TRUE,,,
end_of_block_continue,203,676378,0.0-57.0-0.0,"""event"",""trial"",""time""
""fullscreenenter"",""1"",""10858""
","
","
","""event"",""trial"",""time""
""fullscreenenter"",""1"",""10858""
","
",,null,run_exp/static/audio/clip_32_block_end.m4a,,,,,,,null,,,,,,,,,,,,,,,,,,
alien_welcome,204,681398,0.0-58.0-0.0,"""event"",""trial"",""time""
""fullscreenenter"",""1"",""10858""
","
","
","""event"",""trial"",""time""
""fullscreenenter"",""1"",""10858""
","
",,null,run_exp/static/images/task_images/aliens/old_aliens/planet/alien_planet-19.jpg,null,,,,,,,,,,,,,19,"65,1,5,7,15,76,24,50,37,32,13,55,73,19,17,43,10,45,48,3,22,62,78,68,63,23,38,53,2,69,14,60,56,66,4,54,41,57,44,40,30,77,25,70,74,6",,,,,,,,,,
land,205,681912,0.0-58.0-1.0,"""event"",""trial"",""time""
""fullscreenenter"",""1"",""10858""
","
","
","""event"",""trial"",""time""
""fullscreenenter"",""1"",""10858""
","
",,null,run_exp/static/images/task_images/land.jpg,null,,,,,,,94,,,14,,,,,,,,,,,,,,
dig,206,683928,0.0-58.0-2.0,"""event"",""trial"",""time""
""fullscreenenter"",""1"",""10858""
","
","
","""event"",""trial"",""time""
""fullscreenenter"",""1"",""10858""
","
",,,,,,,,,,,,"[{""stimulus"":""run_exp/static/images/task_images/dig.jpg"",""time"":0.39999999990686774},{""stimulus"":""run_exp/static/images/task_images/land.jpg"",""time"":678.3999999999069},{""stimulus"":""run_exp/static/images/task_images/dig.jpg"",""time"":1338.1000000000931}]",[],14,,,,,,,,,,,,,,
harvest,207,684932,0.0-58.0-3.0,"""event"",""trial"",""time""
""fullscreenenter"",""1"",""10858""
","
","
","""event"",""trial"",""time""
""fullscreenenter"",""1"",""10858""
","
",,null,run_exp/static/images/task_images/gems/94.jpg,null,,,,,,,17,,,14,,,,,94,0.178747225,0.180851064,,,,,,,
decision,208,686145,0.0-58.0-4.0,"""event"",""trial"",""time""
""fullscreenenter"",""1"",""10858""
","
","
","""event"",""trial"",""time""
""fullscreenenter"",""1"",""10858""
","
",,1211.3,run_exp/static/images/task_images/land.jpg,65,,,,,,,17,,,14,,,,,,,,9758,2,0,FALSE,,,
dig,209,687940,0.0-59.0-0.0,"""event"",""trial"",""time""
""fullscreenenter"",""1"",""10858""
","
","
","""event"",""trial"",""time""
""fullscreenenter"",""1"",""10858""
","
",,,,,,,,,,,,"[{""stimulus"":""run_exp/static/images/task_images/dig.jpg"",""time"":0.19999999995343387},{""stimulus"":""run_exp/static/images/task_images/land.jpg"",""time"":599.7999999998137},{""stimulus"":""run_exp/static/images/task_images/dig.jpg"",""time"":1198.7999999998137}]",[],14,,,,,,,,,,,,,,
harvest,210,688952,0.0-59.0-1.0,"""event"",""trial"",""time""
""fullscreenenter"",""1"",""10858""
","
","
","""event"",""trial"",""time""
""fullscreenenter"",""1"",""10858""
","
",,null,run_exp/static/images/task_images/gems/17.jpg,null,,,,,,,3,,,14,,,,,17,0.173741978,0.176470588,,,,,,,
decision,211,689114,0.0-59.0-2.0,"""event"",""trial"",""time""
""fullscreenenter"",""1"",""10858""
","
","
","""event"",""trial"",""time""
""fullscreenenter"",""1"",""10858""
","
",,159.8,run_exp/static/images/task_images/land.jpg,76,,,,,,,3,,,14,,,,,,,,12727,2,1,TRUE,,,
travel,212,698964,0.0-60.0-0.0,"""event"",""trial"",""time""
""fullscreenenter"",""1"",""10858""
","
","
","""event"",""trial"",""time""
""fullscreenenter"",""1"",""10858""
","
",,,,,,,,,,,,"[{""stimulus"":""run_exp/static/images/task_images/rocket-01.jpg"",""time"":0.20000000018626451},{""stimulus"":""run_exp/static/images/task_images/rocket-02.jpg"",""time"":1104.7000000001863},{""stimulus"":""run_exp/static/images/task_images/rocket-03.jpg"",""time"":2192},{""stimulus"":""run_exp/static/images/task_images/rocket-04.jpg"",""time"":3286.600000000093},{""stimulus"":""run_exp/static/images/task_images/rocket-05.jpg"",""time"":4379.800000000047},{""stimulus"":""run_exp/static/images/task_images/rocket-06.jpg"",""time"":5472.100000000093},{""stimulus"":""run_exp/static/images/task_images/rocket-07.jpg"",""time"":6566.600000000093},{""stimulus"":""run_exp/static/images/task_images/rocket-08.jpg"",""time"":7658.600000000093},{""stimulus"":""run_exp/static/images/task_images/rocket-09.jpg"",""time"":8754.600000000093}]",[],14,,,,,,,,,,,,,,
alien_welcome,213,703976,0.0-60.0-1.0,"""event"",""trial"",""time""
""fullscreenenter"",""1"",""10858""
","
","
","""event"",""trial"",""time""
""fullscreenenter"",""1"",""10858""
","
",,null,run_exp/static/images/task_images/aliens/old_aliens/planet/alien_planet-17.jpg,null,,,,,,,,,,,,,17,"65,1,5,7,15,76,24,50,37,32,13,55,73,19,17,43,10,45,48,3,22,62,78,68,63,23,38,53,2,69,14,60,56,66,4,54,41,57,44,40,30,77,25,70,74,6",,,,,,,,,,
land,214,704483,0.0-60.0-2.0,"""event"",""trial"",""time""
""fullscreenenter"",""1"",""10858""
","
","
","""event"",""trial"",""time""
""fullscreenenter"",""1"",""10858""
","
",,null,run_exp/static/images/task_images/land.jpg,null,,,,,,,107,,,15,,,,,,,,,,,,,,
dig,215,706495,0.0-60.0-3.0,"""event"",""trial"",""time""
""fullscreenenter"",""1"",""10858""
","
","
","""event"",""trial"",""time""
""fullscreenenter"",""1"",""10858""
","
",,,,,,,,,,,,"[{""stimulus"":""run_exp/static/images/task_images/dig.jpg"",""time"":0.6000000000931323},{""stimulus"":""run_exp/static/images/task_images/land.jpg"",""time"":678.3000000000466},{""stimulus"":""run_exp/static/images/task_images/dig.jpg"",""time"":1336.8000000000466}]",[],15,,,,,,,,,,,,,,
harvest,216,707499,0.0-60.0-4.0,"""event"",""trial"",""time""
""fullscreenenter"",""1"",""10858""
","
","
","""event"",""trial"",""time""
""fullscreenenter"",""1"",""10858""
","
",,null,run_exp/static/images/task_images/gems/107.jpg,null,,,,,,,23,,,15,,,,,107,0.212371113,0.214953271,,,,,,,
decision,217,707705,0.0-60.0-5.0,"""event"",""trial"",""time""
""fullscreenenter"",""1"",""10858""
","
","
","""event"",""trial"",""time""
""fullscreenenter"",""1"",""10858""
","
",,203.9,run_exp/static/images/task_images/land.jpg,65,,,,,,,23,,,15,,,,,,,,31318,2,0,FALSE,,,
dig,218,710510,0.0-61.0-0.0,"""event"",""trial"",""time""
""fullscreenenter"",""1"",""10858""
","
","
","""event"",""trial"",""time""
""fullscreenenter"",""1"",""10858""
","
",,,,,,,,,,,,"[{""stimulus"":""run_exp/static/images/task_images/dig.jpg"",""time"":0.10000000009313226},{""stimulus"":""run_exp/static/images/task_images/land.jpg"",""time"":938.3999999999069},{""stimulus"":""run_exp/static/images/task_images/dig.jpg"",""time"":1874.6000000000931}]",[],15,,,,,,,,,,,,,,
harvest,219,711515,0.0-61.0-1.0,"""event"",""trial"",""time""
""fullscreenenter"",""1"",""10858""
","
","
","""event"",""trial"",""time""
""fullscreenenter"",""1"",""10858""
","
",,null,run_exp/static/images/task_images/gems/23.jpg,null,,,,,,,4,,,15,,,,,23,0.192001974,0.173913043,,,,,,,
decision,220,711664,0.0-61.0-2.0,"""event"",""trial"",""time""
""fullscreenenter"",""1"",""10858""
","
","
","""event"",""trial"",""time""
""fullscreenenter"",""1"",""10858""
","
",,147,run_exp/static/images/task_images/land.jpg,76,,,,,,,4,,,15,,,,,,,,35278,2,1,TRUE,,,
travel,221,721527,0.0-62.0-0.0,"""event"",""trial"",""time""
""fullscreenenter"",""1"",""10858""
","
","
","""event"",""trial"",""time""
""fullscreenenter"",""1"",""10858""
","
",,,,,,,,,,,,"[{""stimulus"":""run_exp/static/images/task_images/rocket-01.jpg"",""time"":0.09999999986030161},{""stimulus"":""run_exp/static/images/task_images/rocket-02.jpg"",""time"":1107.0999999998603},{""stimulus"":""run_exp/static/images/task_images/rocket-03.jpg"",""time"":2190.8000000000466},{""stimulus"":""run_exp/static/images/task_images/rocket-04.jpg"",""time"":3291.0999999998603},{""stimulus"":""run_exp/static/images/task_images/rocket-05.jpg"",""time"":4389.199999999953},{""stimulus"":""run_exp/static/images/task_images/rocket-06.jpg"",""time"":5483.199999999953},{""stimulus"":""run_exp/static/images/task_images/rocket-07.jpg"",""time"":6567.199999999953},{""stimulus"":""run_exp/static/images/task_images/rocket-08.jpg"",""time"":7662},{""stimulus"":""run_exp/static/images/task_images/rocket-09.jpg"",""time"":8762.399999999907}]",[],15,,,,,,,,,,,,,,
alien_welcome,222,726530,0.0-62.0-1.0,"""event"",""trial"",""time""
""fullscreenenter"",""1"",""10858""
","
","
","""event"",""trial"",""time""
""fullscreenenter"",""1"",""10858""
","
",,null,run_exp/static/images/task_images/aliens/old_aliens/planet/alien_planet-43.jpg,null,,,,,,,,,,,,,43,"65,1,5,7,15,76,24,50,37,32,13,55,73,19,17,43,10,45,48,3,22,62,78,68,63,23,38,53,2,69,14,60,56,66,4,54,41,57,44,40,30,77,25,70,74,6",,,,,,,,,,
land,223,727039,0.0-62.0-2.0,"""event"",""trial"",""time""
""fullscreenenter"",""1"",""10858""
","
","
","""event"",""trial"",""time""
""fullscreenenter"",""1"",""10858""
","
",,null,run_exp/static/images/task_images/land.jpg,null,,,,,,,99,,,16,,,,,,,,,,,,,,
dig,224,729051,0.0-62.0-3.0,"""event"",""trial"",""time""
""fullscreenenter"",""1"",""10858""
","
","
","""event"",""trial"",""time""
""fullscreenenter"",""1"",""10858""
","
",,,,,,,,,,,,"[{""stimulus"":""run_exp/static/images/task_images/dig.jpg"",""time"":0.5},{""stimulus"":""run_exp/static/images/task_images/land.jpg"",""time"":677.8999999999069},{""stimulus"":""run_exp/static/images/task_images/dig.jpg"",""time"":1337.8000000000466}]",[],16,,,,,,,,,,,,,,
harvest,225,730062,0.0-62.0-4.0,"""event"",""trial"",""time""
""fullscreenenter"",""1"",""10858""
","
","
","""event"",""trial"",""time""
""fullscreenenter"",""1"",""10858""
","
",,null,run_exp/static/images/task_images/gems/99.jpg,null,,,,,,,14,,,16,,,,,99,0.143307498,0.141414141,,,,,,,
decision,226,730632,0.0-62.0-5.0,"""event"",""trial"",""time""
""fullscreenenter"",""1"",""10858""
","
","
","""event"",""trial"",""time""
""fullscreenenter"",""1"",""10858""
","
",,567.1,run_exp/static/images/task_images/land.jpg,65,,,,,,,14,,,16,,,,,,,,54245,2,0,FALSE,,,
dig,227,733078,0.0-63.0-0.0,"""event"",""trial"",""time""
""fullscreenenter"",""1"",""10858""
","
","
","""event"",""trial"",""time""
""fullscreenenter"",""1"",""10858""
","
",,,,,,,,,,,,"[{""stimulus"":""run_exp/static/images/task_images/dig.jpg"",""time"":0.39999999990686774},{""stimulus"":""run_exp/static/images/task_images/land.jpg"",""time"":818.3999999999069},{""stimulus"":""run_exp/static/images/task_images/dig.jpg"",""time"":1626.8999999999069}]",[],16,,,,,,,,,,,,,,
harvest,228,734086,0.0-63.0-1.0,"""event"",""trial"",""time""
""fullscreenenter"",""1"",""10858""
","
","
","""event"",""trial"",""time""
""fullscreenenter"",""1"",""10858""
","
",,null,run_exp/static/images/task_images/gems/14.jpg,null,,,,,,,2,,,16,,,,,14,0.172591012,0.142857143,,,,,,,
decision,229,734698,0.0-63.0-2.0,"""event"",""trial"",""time""
""fullscreenenter"",""1"",""10858""
","
","
","""event"",""trial"",""time""
""fullscreenenter"",""1"",""10858""
","
",,609.2,run_exp/static/images/task_images/land.jpg,76,,,,,,,2,,,16,,,,,,,,58311,2,1,TRUE,,,
travel,230,744102,0.0-64.0-0.0,"""event"",""trial"",""time""
""fullscreenenter"",""1"",""10858""
","
","
","""event"",""trial"",""time""
""fullscreenenter"",""1"",""10858""
","
",,,,,,,,,,,,"[{""stimulus"":""run_exp/static/images/task_images/rocket-01.jpg"",""time"":0.19999999995343387},{""stimulus"":""run_exp/static/images/task_images/rocket-02.jpg"",""time"":1052},{""stimulus"":""run_exp/static/images/task_images/rocket-03.jpg"",""time"":2094.3000000000466},{""stimulus"":""run_exp/static/images/task_images/rocket-04.jpg"",""time"":3136},{""stimulus"":""run_exp/static/images/task_images/rocket-05.jpg"",""time"":4181.300000000047},{""stimulus"":""run_exp/static/images/task_images/rocket-06.jpg"",""time"":5223.899999999907},{""stimulus"":""run_exp/static/images/task_images/rocket-07.jpg"",""time"":6271.899999999907},{""stimulus"":""run_exp/static/images/task_images/rocket-08.jpg"",""time"":7312},{""stimulus"":""run_exp/static/images/task_images/rocket-09.jpg"",""time"":8349.600000000093}]",[],16,,,,,,,,,,,,,,
alien_welcome,231,749110,0.0-64.0-1.0,"""event"",""trial"",""time""
""fullscreenenter"",""1"",""10858""
","
","
","""event"",""trial"",""time""
""fullscreenenter"",""1"",""10858""
","
",,null,run_exp/static/images/task_images/aliens/old_aliens/planet/alien_planet-10.jpg,null,,,,,,,,,,,,,10,"65,1,5,7,15,76,24,50,37,32,13,55,73,19,17,43,10,45,48,3,22,62,78,68,63,23,38,53,2,69,14,60,56,66,4,54,41,57,44,40,30,77,25,70,74,6",,,,,,,,,,
land,232,749621,0.0-64.0-2.0,"""event"",""trial"",""time""
""fullscreenenter"",""1"",""10858""
","
","
","""event"",""trial"",""time""
""fullscreenenter"",""1"",""10858""
","
",,null,run_exp/static/images/task_images/land.jpg,null,,,,,,,106,,,17,,,,,,,,,,,,,,
dig,233,751638,0.0-64.0-3.0,"""event"",""trial"",""time""
""fullscreenenter"",""1"",""10858""
","
","
","""event"",""trial"",""time""
""fullscreenenter"",""1"",""10858""
","
