trial_type,trial_index,time_elapsed,internal_node_id,interactions,blur_events,focus_events,fullscreenenter_events,fullscreenexit_events,success,rt,stimulus,key_press,prompt,subject_id,participant_id,age,gender,button_pressed,next_reward,animation_sequence,responses,planet,curr_prac_trial,n_prac_rounds,alien,aliens,reward_received,decay_rate_actual,decay_rate_exp,time_in_block,block_num,prt,last_trial_on_planet,button_html,bonus,num_failures
pavlovia,0,9,0.0-0.0,"""event"",""trial"",""time""
""blur"",""0"",""0""
""focus"",""0"",""0""
""blur"",""0"",""0""
""focus"",""0"",""0""
""blur"",""0"",""0""
""focus"",""0"",""0""
""blur"",""0"",""0""
""focus"",""1"",""964750""
""blur"",""1"",""966637""
""focus"",""1"",""975905""
""blur"",""1"",""977935""
""focus"",""1"",""978751""
""blur"",""1"",""980659""
""focus"",""1"",""1134253""
""fullscreenenter"",""1"",""1136978""
","""event"",""trial"",""time""
""blur"",""0"",""0""
""blur"",""0"",""0""
""blur"",""0"",""0""
""blur"",""0"",""0""
""blur"",""1"",""966637""
""blur"",""1"",""977935""
""blur"",""1"",""980659""
","""event"",""trial"",""time""
""focus"",""0"",""0""
""focus"",""0"",""0""
""focus"",""0"",""0""
""focus"",""1"",""964750""
""focus"",""1"",""975905""
""focus"",""1"",""978751""
""focus"",""1"",""1134253""
","""event"",""trial"",""time""
""fullscreenenter"",""1"",""1136978""
","
",,,,,,,,,,,,,,,,,,,,,,,,,,,,
fullscreen,1,1137941,0.0-1.0,"""event"",""trial"",""time""
""blur"",""0"",""0""
""focus"",""0"",""0""
""blur"",""0"",""0""
""focus"",""0"",""0""
""blur"",""0"",""0""
""focus"",""0"",""0""
""blur"",""0"",""0""
""focus"",""1"",""964750""
""blur"",""1"",""966637""
""focus"",""1"",""975905""
""blur"",""1"",""977935""
""focus"",""1"",""978751""
""blur"",""1"",""980659""
""focus"",""1"",""1134253""
""fullscreenenter"",""1"",""1136978""
""fullscreenexit"",""2"",""1138455""
","""event"",""trial"",""time""
""blur"",""0"",""0""
""blur"",""0"",""0""
""blur"",""0"",""0""
""blur"",""0"",""0""
""blur"",""1"",""966637""
""blur"",""1"",""977935""
""blur"",""1"",""980659""
","""event"",""trial"",""time""
""focus"",""0"",""0""
""focus"",""0"",""0""
""focus"",""0"",""0""
""focus"",""1"",""964750""
""focus"",""1"",""975905""
""focus"",""1"",""978751""
""focus"",""1"",""1134253""
","""event"",""trial"",""time""
""fullscreenenter"",""1"",""1136978""
","""event"",""trial"",""time""
""fullscreenexit"",""2"",""1138455""
",TRUE,,,,,,,,,,,,,,,,,,,,,,,,,,,
instruc_welcome,2,1147670,0.0-2.0,"""event"",""trial"",""time""
""blur"",""0"",""0""
""focus"",""0"",""0""
""blur"",""0"",""0""
""focus"",""0"",""0""
""blur"",""0"",""0""
""focus"",""0"",""0""
""blur"",""0"",""0""
""focus"",""1"",""964750""
""blur"",""1"",""966637""
""focus"",""1"",""975905""
""blur"",""1"",""977935""
""focus"",""1"",""978751""
""blur"",""1"",""980659""
""focus"",""1"",""1134253""
""fullscreenenter"",""1"",""1136978""
""fullscreenexit"",""2"",""1138455""
","""event"",""trial"",""time""
""blur"",""0"",""0""
""blur"",""0"",""0""
""blur"",""0"",""0""
""blur"",""0"",""0""
""blur"",""1"",""966637""
""blur"",""1"",""977935""
""blur"",""1"",""980659""
","""event"",""trial"",""time""
""focus"",""0"",""0""
""focus"",""0"",""0""
""focus"",""0"",""0""
""focus"",""1"",""964750""
""focus"",""1"",""975905""
""focus"",""1"",""978751""
""focus"",""1"",""1134253""
","""event"",""trial"",""time""
""fullscreenenter"",""1"",""1136978""
","""event"",""trial"",""time""
""fullscreenexit"",""2"",""1138455""
",,null,run_exp/static/audio/clip_1_welcome.m4a,null,"<p>Howdy! In this experiment, you’ll be an explorer traveling through space to collect space treasure.</p><p>Your mission is to collect as much treasure as possible.</p><br><br><p><img src='run_exp/static/images/task_images/opening_img-01.jpg' height='300' width='auto'></p>",8020,3387,17.19,Female,,,,,,,,,,,,,,,,,,,
audio-keyboard-response,3,1164249,0.0-3.0,"""event"",""trial"",""time""
""blur"",""0"",""0""
""focus"",""0"",""0""
""blur"",""0"",""0""
""focus"",""0"",""0""
""blur"",""0"",""0""
""focus"",""0"",""0""
""blur"",""0"",""0""
""focus"",""1"",""964750""
""blur"",""1"",""966637""
""focus"",""1"",""975905""
""blur"",""1"",""977935""
""focus"",""1"",""978751""
""blur"",""1"",""980659""
""focus"",""1"",""1134253""
""fullscreenenter"",""1"",""1136978""
""fullscreenexit"",""2"",""1138455""
","""event"",""trial"",""time""
""blur"",""0"",""0""
""blur"",""0"",""0""
""blur"",""0"",""0""
""blur"",""0"",""0""
""blur"",""1"",""966637""
""blur"",""1"",""977935""
""blur"",""1"",""980659""
","""event"",""trial"",""time""
""focus"",""0"",""0""
""focus"",""0"",""0""
""focus"",""0"",""0""
""focus"",""1"",""964750""
""focus"",""1"",""975905""
""focus"",""1"",""978751""
""focus"",""1"",""1134253""
","""event"",""trial"",""time""
""fullscreenenter"",""1"",""1136978""
","""event"",""trial"",""time""
""fullscreenexit"",""2"",""1138455""
",,null,run_exp/static/audio/clip_2_move.m4a,null,,,,,,,,,,,,,,,,,,,,,,,,
welcome_dec,4,1165270,0.0-4.0,"""event"",""trial"",""time""
""blur"",""0"",""0""
""focus"",""0"",""0""
""blur"",""0"",""0""
""focus"",""0"",""0""
""blur"",""0"",""0""
""focus"",""0"",""0""
""blur"",""0"",""0""
""focus"",""1"",""964750""
""blur"",""1"",""966637""
""focus"",""1"",""975905""
""blur"",""1"",""977935""
""focus"",""1"",""978751""
""blur"",""1"",""980659""
""focus"",""1"",""1134253""
""fullscreenenter"",""1"",""1136978""
""fullscreenexit"",""2"",""1138455""
","""event"",""trial"",""time""
""blur"",""0"",""0""
""blur"",""0"",""0""
""blur"",""0"",""0""
""blur"",""0"",""0""
""blur"",""1"",""966637""
""blur"",""1"",""977935""
""blur"",""1"",""980659""
","""event"",""trial"",""time""
""focus"",""0"",""0""
""focus"",""0"",""0""
""focus"",""0"",""0""
""focus"",""1"",""964750""
""focus"",""1"",""975905""
""focus"",""1"",""978751""
""focus"",""1"",""1134253""
","""event"",""trial"",""time""
""fullscreenenter"",""1"",""1136978""
","""event"",""trial"",""time""
""fullscreenexit"",""2"",""1138455""
",,1014.2,"<p>Howdy! In this experiment, you’ll be an explorer traveling through space to collect space treasure.</p><p>Your mission is to collect as much treasure as possible.</p><br><br><p><img src='run_exp/static/images/task_images/opening_img-01.jpg' height='300' width='auto'></p>",,,,,,,1,,,,,,,,,,,,,,,,,,
html-keyboard-response,5,1165370,0.0-5.0,"""event"",""trial"",""time""
""blur"",""0"",""0""
""focus"",""0"",""0""
""blur"",""0"",""0""
""focus"",""0"",""0""
""blur"",""0"",""0""
""focus"",""0"",""0""
""blur"",""0"",""0""
""focus"",""1"",""964750""
""blur"",""1"",""966637""
""focus"",""1"",""975905""
""blur"",""1"",""977935""
""focus"",""1"",""978751""
""blur"",""1"",""980659""
""focus"",""1"",""1134253""
""fullscreenenter"",""1"",""1136978""
""fullscreenexit"",""2"",""1138455""
""blur"",""6"",""1173113""
","""event"",""trial"",""time""
""blur"",""0"",""0""
""blur"",""0"",""0""
""blur"",""0"",""0""
""blur"",""0"",""0""
""blur"",""1"",""966637""
""blur"",""1"",""977935""
""blur"",""1"",""980659""
""blur"",""6"",""1173113""
","""event"",""trial"",""time""
""focus"",""0"",""0""
""focus"",""0"",""0""
""focus"",""0"",""0""
""focus"",""1"",""964750""
""focus"",""1"",""975905""
""focus"",""1"",""978751""
""focus"",""1"",""1134253""
","""event"",""trial"",""time""
""fullscreenenter"",""1"",""1136978""
","""event"",""trial"",""time""
""fullscreenexit"",""2"",""1138455""
",,98,"<p>Howdy! In this experiment, you’ll be an explorer traveling through space to collect space treasure.</p><p>Your mission is to collect as much treasure as possible.</p><br><br><p><img src='run_exp/static/images/task_images/opening_img-01.jpg' height='300' width='auto'></p><button class=""jspsych-html-btn-unchosen""><img src=""run_exp/static/images/task_images/planet-01.jpg"" height=""50""></button><button class=""jspsych-html-btn-chosen""><img src=""run_exp/static/images/task_images/planet-02.jpg"" height=""50""></button><p><b>[press the space bar to lock in your answer]<b><br></p>",32,,,,,,,,,,,,,,,,,,,,,,,,
instruc_goal,6,1175417,0.0-6.0-0.0,"""event"",""trial"",""time""
""blur"",""0"",""0""
""focus"",""0"",""0""
""blur"",""0"",""0""
""focus"",""0"",""0""
""blur"",""0"",""0""
""focus"",""0"",""0""
""blur"",""0"",""0""
""focus"",""1"",""964750""
""blur"",""1"",""966637""
""focus"",""1"",""975905""
""blur"",""1"",""977935""
""focus"",""1"",""978751""
""blur"",""1"",""980659""
""focus"",""1"",""1134253""
""fullscreenenter"",""1"",""1136978""
""fullscreenexit"",""2"",""1138455""
""blur"",""6"",""1173113""
""focus"",""7"",""1182546""
""blur"",""7"",""1183440""
""focus"",""7"",""1233143""
","""event"",""trial"",""time""
""blur"",""0"",""0""
""blur"",""0"",""0""
""blur"",""0"",""0""
""blur"",""0"",""0""
""blur"",""1"",""966637""
""blur"",""1"",""977935""
""blur"",""1"",""980659""
""blur"",""6"",""1173113""
""blur"",""7"",""1183440""
","""event"",""trial"",""time""
""focus"",""0"",""0""
""focus"",""0"",""0""
""focus"",""0"",""0""
""focus"",""1"",""964750""
""focus"",""1"",""975905""
""focus"",""1"",""978751""
""focus"",""1"",""1134253""
""focus"",""7"",""1182546""
""focus"",""7"",""1233143""
","""event"",""trial"",""time""
""fullscreenenter"",""1"",""1136978""
","""event"",""trial"",""time""
""fullscreenexit"",""2"",""1138455""
",,null,run_exp/static/audio/clip_3_goal.m4a,null,"<p> As a space explorer, you’ll visit different planets to dig for space treasure, these pink gems.</p> <p> The more treasure you dig up, the more bonus money you’ll win! </p><br><br><p><img src='run_exp/static/images/task_images/pink_gem.jpg' height='300' width='auto'></p>",,,,,,,,,,,,,,,,,,,,,,,
instruc_goal,7,1234819,0.0-6.0-1.0,"""event"",""trial"",""time""
""blur"",""0"",""0""
""focus"",""0"",""0""
""blur"",""0"",""0""
""focus"",""0"",""0""
""blur"",""0"",""0""
""focus"",""0"",""0""
""blur"",""0"",""0""
""focus"",""1"",""964750""
""blur"",""1"",""966637""
""focus"",""1"",""975905""
""blur"",""1"",""977935""
""focus"",""1"",""978751""
""blur"",""1"",""980659""
""focus"",""1"",""1134253""
""fullscreenenter"",""1"",""1136978""
""fullscreenexit"",""2"",""1138455""
""blur"",""6"",""1173113""
""focus"",""7"",""1182546""
""blur"",""7"",""1183440""
""focus"",""7"",""1233143""
","""event"",""trial"",""time""
""blur"",""0"",""0""
""blur"",""0"",""0""
""blur"",""0"",""0""
""blur"",""0"",""0""
""blur"",""1"",""966637""
""blur"",""1"",""977935""
""blur"",""1"",""980659""
""blur"",""6"",""1173113""
""blur"",""7"",""1183440""
","""event"",""trial"",""time""
""focus"",""0"",""0""
""focus"",""0"",""0""
""focus"",""0"",""0""
""focus"",""1"",""964750""
""focus"",""1"",""975905""
""focus"",""1"",""978751""
""focus"",""1"",""1134253""
""focus"",""7"",""1182546""
""focus"",""7"",""1233143""
","""event"",""trial"",""time""
""fullscreenenter"",""1"",""1136978""
","""event"",""trial"",""time""
""fullscreenexit"",""2"",""1138455""
",,59401.3,"<p> As a space explorer, you’ll visit different planets to dig for space treasure, these pink gems.</p> <p> The more treasure you dig up, the more bonus money you’ll win! </p><br><br><p><img src='run_exp/static/images/task_images/pink_gem.jpg' height='300' width='auto'></p>",,,,,,,1,,,,,,,,,,,,,,,,,,
html-keyboard-response,8,1235048,0.0-6.0-2.0,"""event"",""trial"",""time""
""blur"",""0"",""0""
""focus"",""0"",""0""
""blur"",""0"",""0""
""focus"",""0"",""0""
""blur"",""0"",""0""
""focus"",""0"",""0""
""blur"",""0"",""0""
""focus"",""1"",""964750""
""blur"",""1"",""966637""
""focus"",""1"",""975905""
""blur"",""1"",""977935""
""focus"",""1"",""978751""
""blur"",""1"",""980659""
""focus"",""1"",""1134253""
""fullscreenenter"",""1"",""1136978""
""fullscreenexit"",""2"",""1138455""
""blur"",""6"",""1173113""
""focus"",""7"",""1182546""
""blur"",""7"",""1183440""
""focus"",""7"",""1233143""
","""event"",""trial"",""time""
""blur"",""0"",""0""
""blur"",""0"",""0""
""blur"",""0"",""0""
""blur"",""0"",""0""
""blur"",""1"",""966637""
""blur"",""1"",""977935""
""blur"",""1"",""980659""
""blur"",""6"",""1173113""
""blur"",""7"",""1183440""
","""event"",""trial"",""time""
""focus"",""0"",""0""
""focus"",""0"",""0""
""focus"",""0"",""0""
""focus"",""1"",""964750""
""focus"",""1"",""975905""
""focus"",""1"",""978751""
""focus"",""1"",""1134253""
""focus"",""7"",""1182546""
""focus"",""7"",""1233143""
","""event"",""trial"",""time""
""fullscreenenter"",""1"",""1136978""
","""event"",""trial"",""time""
""fullscreenexit"",""2"",""1138455""
",,226.1,"<p> As a space explorer, you’ll visit different planets to dig for space treasure, these pink gems.</p> <p> The more treasure you dig up, the more bonus money you’ll win! </p><br><br><p><img src='run_exp/static/images/task_images/pink_gem.jpg' height='300' width='auto'></p><button class=""jspsych-html-btn-unchosen""><img src=""run_exp/static/images/task_images/planet-01.jpg"" height=""50""></button><button class=""jspsych-html-btn-chosen""><img src=""run_exp/static/images/task_images/planet-02.jpg"" height=""50""></button><p><b>[press the space bar to lock in your answer]<b><br></p>",32,,,,,,,,,,,,,,,,,,,,,,,,
instruc_dig,9,1251019,0.0-7.0-0.0,"""event"",""trial"",""time""
""blur"",""0"",""0""
""focus"",""0"",""0""
""blur"",""0"",""0""
""focus"",""0"",""0""
""blur"",""0"",""0""
""focus"",""0"",""0""
""blur"",""0"",""0""
""focus"",""1"",""964750""
""blur"",""1"",""966637""
""focus"",""1"",""975905""
""blur"",""1"",""977935""
""focus"",""1"",""978751""
""blur"",""1"",""980659""
""focus"",""1"",""1134253""
""fullscreenenter"",""1"",""1136978""
""fullscreenexit"",""2"",""1138455""
""blur"",""6"",""1173113""
""focus"",""7"",""1182546""
""blur"",""7"",""1183440""
""focus"",""7"",""1233143""
","""event"",""trial"",""time""
""blur"",""0"",""0""
""blur"",""0"",""0""
""blur"",""0"",""0""
""blur"",""0"",""0""
""blur"",""1"",""966637""
""blur"",""1"",""977935""
""blur"",""1"",""980659""
""blur"",""6"",""1173113""
""blur"",""7"",""1183440""
","""event"",""trial"",""time""
""focus"",""0"",""0""
""focus"",""0"",""0""
""focus"",""0"",""0""
""focus"",""1"",""964750""
""focus"",""1"",""975905""
""focus"",""1"",""978751""
""focus"",""1"",""1134253""
""focus"",""7"",""1182546""
""focus"",""7"",""1233143""
","""event"",""trial"",""time""
""fullscreenenter"",""1"",""1136978""
","""event"",""trial"",""time""
""fullscreenexit"",""2"",""1138455""
",,null,run_exp/static/audio/clip_4_dig.m4a,null,,,,,,,100,,,,,,,,,,,,,,,,,
instruc_dig_try,10,1255532,0.0-7.0-1.0,"""event"",""trial"",""time""
""blur"",""0"",""0""
""focus"",""0"",""0""
""blur"",""0"",""0""
""focus"",""0"",""0""
""blur"",""0"",""0""
""focus"",""0"",""0""
""blur"",""0"",""0""
""focus"",""1"",""964750""
""blur"",""1"",""966637""
""focus"",""1"",""975905""
""blur"",""1"",""977935""
""focus"",""1"",""978751""
""blur"",""1"",""980659""
""focus"",""1"",""1134253""
""fullscreenenter"",""1"",""1136978""
""fullscreenexit"",""2"",""1138455""
""blur"",""6"",""1173113""
""focus"",""7"",""1182546""
""blur"",""7"",""1183440""
""focus"",""7"",""1233143""
","""event"",""trial"",""time""
""blur"",""0"",""0""
""blur"",""0"",""0""
""blur"",""0"",""0""
""blur"",""0"",""0""
""blur"",""1"",""966637""
""blur"",""1"",""977935""
""blur"",""1"",""980659""
""blur"",""6"",""1173113""
""blur"",""7"",""1183440""
","""event"",""trial"",""time""
""focus"",""0"",""0""
""focus"",""0"",""0""
""focus"",""0"",""0""
""focus"",""1"",""964750""
""focus"",""1"",""975905""
""focus"",""1"",""978751""
""focus"",""1"",""1134253""
""focus"",""7"",""1182546""
""focus"",""7"",""1233143""
","""event"",""trial"",""time""
""fullscreenenter"",""1"",""1136978""
","""event"",""trial"",""time""
""fullscreenexit"",""2"",""1138455""
",,4510.8,"<p> When you’ve arrived at a new planet, you will dig once. </p> <p>Then, you get to decide if you want to stay on the planet and dig again or travel to a new planet and dig there.</p> <p> To stay and dig, press the letter <strong>‘A’</strong> on your keyboard. Try pressing it now! </p><p><img src='run_exp/static/images/task_images/land.jpg'  height='700' width='auto'></p>",65,"<p> When you’ve arrived at a new planet, you will dig once. </p> <p>Then, you get to decide if you want to stay on the planet and dig again or travel to a new planet and dig there.</p> <p> To stay and dig, press the letter <strong>‘A’</strong> on your keyboard. Try pressing it now! </p><p><img src='run_exp/static/images/task_images/land.jpg'  height='700' width='auto'></p>",,,,,,100,,,,,,,,,,,,,,,,,
dig_prac,11,1257547,0.0-7.0-2.0,"""event"",""trial"",""time""
""blur"",""0"",""0""
""focus"",""0"",""0""
""blur"",""0"",""0""
""focus"",""0"",""0""
""blur"",""0"",""0""
""focus"",""0"",""0""
""blur"",""0"",""0""
""focus"",""1"",""964750""
""blur"",""1"",""966637""
""focus"",""1"",""975905""
""blur"",""1"",""977935""
""focus"",""1"",""978751""
""blur"",""1"",""980659""
""focus"",""1"",""1134253""
""fullscreenenter"",""1"",""1136978""
""fullscreenexit"",""2"",""1138455""
""blur"",""6"",""1173113""
""focus"",""7"",""1182546""
""blur"",""7"",""1183440""
""focus"",""7"",""1233143""
","""event"",""trial"",""time""
""blur"",""0"",""0""
""blur"",""0"",""0""
""blur"",""0"",""0""
""blur"",""0"",""0""
""blur"",""1"",""966637""
""blur"",""1"",""977935""
""blur"",""1"",""980659""
""blur"",""6"",""1173113""
""blur"",""7"",""1183440""
","""event"",""trial"",""time""
""focus"",""0"",""0""
""focus"",""0"",""0""
""focus"",""0"",""0""
""focus"",""1"",""964750""
""focus"",""1"",""975905""
""focus"",""1"",""978751""
""focus"",""1"",""1134253""
""focus"",""7"",""1182546""
""focus"",""7"",""1233143""
","""event"",""trial"",""time""
""fullscreenenter"",""1"",""1136978""
","""event"",""trial"",""time""
""fullscreenexit"",""2"",""1138455""
",,,,,,,,,,,,"[{""stimulus"":""run_exp/static/images/task_images/dig.jpg"",""time"":0.19999998807907104},{""stimulus"":""run_exp/static/images/task_images/land.jpg"",""time"":667.8000000119209},{""stimulus"":""run_exp/static/images/task_images/dig.jpg"",""time"":1335.3999999761581}]",[],,,,,,,,,,,,,,,
instruc_travel,12,1293758,0.0-7.0-3.0,"""event"",""trial"",""time""
""blur"",""0"",""0""
""focus"",""0"",""0""
""blur"",""0"",""0""
""focus"",""0"",""0""
""blur"",""0"",""0""
""focus"",""0"",""0""
""blur"",""0"",""0""
""focus"",""1"",""964750""
""blur"",""1"",""966637""
""focus"",""1"",""975905""
""blur"",""1"",""977935""
""focus"",""1"",""978751""
""blur"",""1"",""980659""
""focus"",""1"",""1134253""
""fullscreenenter"",""1"",""1136978""
""fullscreenexit"",""2"",""1138455""
""blur"",""6"",""1173113""
""focus"",""7"",""1182546""
""blur"",""7"",""1183440""
""focus"",""7"",""1233143""
","""event"",""trial"",""time""
""blur"",""0"",""0""
""blur"",""0"",""0""
""blur"",""0"",""0""
""blur"",""0"",""0""
""blur"",""1"",""966637""
""blur"",""1"",""977935""
""blur"",""1"",""980659""
""blur"",""6"",""1173113""
""blur"",""7"",""1183440""
","""event"",""trial"",""time""
""focus"",""0"",""0""
""focus"",""0"",""0""
""focus"",""0"",""0""
""focus"",""1"",""964750""
""focus"",""1"",""975905""
""focus"",""1"",""978751""
""focus"",""1"",""1134253""
""focus"",""7"",""1182546""
""focus"",""7"",""1233143""
","""event"",""trial"",""time""
""fullscreenenter"",""1"",""1136978""
","""event"",""trial"",""time""
""fullscreenexit"",""2"",""1138455""
",,null,run_exp/static/audio/clip_5_travel.m4a,null,"<p>Every time you dig up gems, there are less gems on the planet, so the more you dig on a planet the fewer gems you’ll get with each dig.</p><p>When gems are running low, you may want to travel to a new planet. </p> <p>  Planets are very far apart in this galaxy, so it will take some time to travel between them. </p> <br><p>There are lots and lots of planets for you to visit, so you won’t be able to return to any planets you’ve seen before. </p><br><p>To leave this planet and travel to a new one, press the letter <strong>‘L’</strong> on your keyboard. Try pressing it now! </p><p><img src='run_exp/static/images/task_images/rocket-01.jpg'  height='600' width='auto'></p>",,,,,,,,,,,,,,,,,,,,,,,
instruc_travel_try,13,1295169,0.0-7.0-4.0,"""event"",""trial"",""time""
""blur"",""0"",""0""
""focus"",""0"",""0""
""blur"",""0"",""0""
""focus"",""0"",""0""
""blur"",""0"",""0""
""focus"",""0"",""0""
""blur"",""0"",""0""
""focus"",""1"",""964750""
""blur"",""1"",""966637""
""focus"",""1"",""975905""
""blur"",""1"",""977935""
""focus"",""1"",""978751""
""blur"",""1"",""980659""
""focus"",""1"",""1134253""
""fullscreenenter"",""1"",""1136978""
""fullscreenexit"",""2"",""1138455""
""blur"",""6"",""1173113""
""focus"",""7"",""1182546""
""blur"",""7"",""1183440""
""focus"",""7"",""1233143""
""blur"",""14"",""1299123""
""focus"",""14"",""1302543""
","""event"",""trial"",""time""
""blur"",""0"",""0""
""blur"",""0"",""0""
""blur"",""0"",""0""
""blur"",""0"",""0""
""blur"",""1"",""966637""
""blur"",""1"",""977935""
""blur"",""1"",""980659""
""blur"",""6"",""1173113""
""blur"",""7"",""1183440""
""blur"",""14"",""1299123""
","""event"",""trial"",""time""
""focus"",""0"",""0""
""focus"",""0"",""0""
""focus"",""0"",""0""
""focus"",""1"",""964750""
""focus"",""1"",""975905""
""focus"",""1"",""978751""
""focus"",""1"",""1134253""
""focus"",""7"",""1182546""
""focus"",""7"",""1233143""
""focus"",""14"",""1302543""
","""event"",""trial"",""time""
""fullscreenenter"",""1"",""1136978""
","""event"",""trial"",""time""
""fullscreenexit"",""2"",""1138455""
",,1406.6,"<p>Every time you dig up gems, there are less gems on the planet, so the more you dig on a planet the fewer gems you’ll get with each dig.</p><p>When gems are running low, you may want to travel to a new planet. </p> <p>  Planets are very far apart in this galaxy, so it will take some time to travel between them. </p> <br><p>There are lots and lots of planets for you to visit, so you won’t be able to return to any planets you’ve seen before. </p><br><p>To leave this planet and travel to a new one, press the letter <strong>‘L’</strong> on your keyboard. Try pressing it now! </p><p><img src='run_exp/static/images/task_images/rocket-01.jpg'  height='600' width='auto'></p>",76,"<p>Every time you dig up gems, there are less gems on the planet, so the more you dig on a planet the fewer gems you’ll get with each dig.</p><p>When gems are running low, you may want to travel to a new planet. </p> <p>  Planets are very far apart in this galaxy, so it will take some time to travel between them. </p> <br><p>There are lots and lots of planets for you to visit, so you won’t be able to return to any planets you’ve seen before. </p><br><p>To leave this planet and travel to a new one, press the letter <strong>‘L’</strong> on your keyboard. Try pressing it now! </p><p><img src='run_exp/static/images/task_images/rocket-01.jpg'  height='600' width='auto'></p>",,,,,,,,,,,,,,,,,,,,,,,
travel_prac,14,1305171,0.0-7.0-5.0,"""event"",""trial"",""time""
""blur"",""0"",""0""
""focus"",""0"",""0""
""blur"",""0"",""0""
""focus"",""0"",""0""
""blur"",""0"",""0""
""focus"",""0"",""0""
""blur"",""0"",""0""
""focus"",""1"",""964750""
""blur"",""1"",""966637""
""focus"",""1"",""975905""
""blur"",""1"",""977935""
""focus"",""1"",""978751""
""blur"",""1"",""980659""
""focus"",""1"",""1134253""
""fullscreenenter"",""1"",""1136978""
""fullscreenexit"",""2"",""1138455""
""blur"",""6"",""1173113""
""focus"",""7"",""1182546""
""blur"",""7"",""1183440""
""focus"",""7"",""1233143""
""blur"",""14"",""1299123""
""focus"",""14"",""1302543""
""blur"",""15"",""1307967""
""focus"",""15"",""1320097""
""blur"",""15"",""1328207""
","""event"",""trial"",""time""
""blur"",""0"",""0""
""blur"",""0"",""0""
""blur"",""0"",""0""
""blur"",""0"",""0""
""blur"",""1"",""966637""
""blur"",""1"",""977935""
""blur"",""1"",""980659""
""blur"",""6"",""1173113""
""blur"",""7"",""1183440""
""blur"",""14"",""1299123""
""blur"",""15"",""1307967""
""blur"",""15"",""1328207""
","""event"",""trial"",""time""
""focus"",""0"",""0""
""focus"",""0"",""0""
""focus"",""0"",""0""
""focus"",""1"",""964750""
""focus"",""1"",""975905""
""focus"",""1"",""978751""
""focus"",""1"",""1134253""
""focus"",""7"",""1182546""
""focus"",""7"",""1233143""
""focus"",""14"",""1302543""
""focus"",""15"",""1320097""
","""event"",""trial"",""time""
""fullscreenenter"",""1"",""1136978""
","""event"",""trial"",""time""
""fullscreenexit"",""2"",""1138455""
",,,,,,,,,,,,"[{""stimulus"":""run_exp/static/images/task_images/rocket-01.jpg"",""time"":0.30000001192092896},{""stimulus"":""run_exp/static/images/task_images/rocket-02.jpg"",""time"":1112.699999988079},{""stimulus"":""run_exp/static/images/task_images/rocket-03.jpg"",""time"":2223.5},{""stimulus"":""run_exp/static/images/task_images/rocket-04.jpg"",""time"":3334.899999976158},{""stimulus"":""run_exp/static/images/task_images/rocket-05.jpg"",""time"":4445.199999988079},{""stimulus"":""run_exp/static/images/task_images/rocket-06.jpg"",""time"":5557.300000011921},{""stimulus"":""run_exp/static/images/task_images/rocket-07.jpg"",""time"":6668.300000011921},{""stimulus"":""run_exp/static/images/task_images/rocket-08.jpg"",""time"":7778.099999964237},{""stimulus"":""run_exp/static/images/task_images/rocket-09.jpg"",""time"":8889.599999964237}]",[],0,,,,,,,,,,,,,,
instruc_alien_greet,15,1332343,0.0-7.0-6.0,"""event"",""trial"",""time""
""blur"",""0"",""0""
""focus"",""0"",""0""
""blur"",""0"",""0""
""focus"",""0"",""0""
""blur"",""0"",""0""
""focus"",""0"",""0""
""blur"",""0"",""0""
""focus"",""1"",""964750""
""blur"",""1"",""966637""
""focus"",""1"",""975905""
""blur"",""1"",""977935""
""focus"",""1"",""978751""
""blur"",""1"",""980659""
""focus"",""1"",""1134253""
""fullscreenenter"",""1"",""1136978""
""fullscreenexit"",""2"",""1138455""
""blur"",""6"",""1173113""
""focus"",""7"",""1182546""
""blur"",""7"",""1183440""
""focus"",""7"",""1233143""
""blur"",""14"",""1299123""
""focus"",""14"",""1302543""
""blur"",""15"",""1307967""
""focus"",""15"",""1320097""
""blur"",""15"",""1328207""
""focus"",""16"",""1391067""
","""event"",""trial"",""time""
""blur"",""0"",""0""
""blur"",""0"",""0""
""blur"",""0"",""0""
""blur"",""0"",""0""
""blur"",""1"",""966637""
""blur"",""1"",""977935""
""blur"",""1"",""980659""
""blur"",""6"",""1173113""
""blur"",""7"",""1183440""
""blur"",""14"",""1299123""
""blur"",""15"",""1307967""
""blur"",""15"",""1328207""
","""event"",""trial"",""time""
""focus"",""0"",""0""
""focus"",""0"",""0""
""focus"",""0"",""0""
""focus"",""1"",""964750""
""focus"",""1"",""975905""
""focus"",""1"",""978751""
""focus"",""1"",""1134253""
""focus"",""7"",""1182546""
""focus"",""7"",""1233143""
""focus"",""14"",""1302543""
""focus"",""15"",""1320097""
""focus"",""16"",""1391067""
","""event"",""trial"",""time""
""fullscreenenter"",""1"",""1136978""
","""event"",""trial"",""time""
""fullscreenexit"",""2"",""1138455""
",,null,run_exp/static/audio/clip_6_alien.m4a,null,"<p>When you arrive at a new planet, the alien who owns the treasure mine on that planet will greet you!</p><p>The better an alien takes care of their mine the easier it is to dig for gems. Some aliens take better care of their mine than others. So, you won’t get exactly the same amount of gems on each planet.</p><p>What the alien looks like does not tell you anything about how many gems there are on the planet.</p><br><p><img src=""run_exp/static/images/task_images/aliens/instructions_aliens/planet/alien_planet-1.jpg""  height=""600"" width=""auto""></p>",,,,,,,,,,,,,,,,,,,,,,,
instruc_alien_greet,16,1397407,0.0-7.0-7.0,"""event"",""trial"",""time""
""blur"",""0"",""0""
""focus"",""0"",""0""
""blur"",""0"",""0""
""focus"",""0"",""0""
""blur"",""0"",""0""
""focus"",""0"",""0""
""blur"",""0"",""0""
""focus"",""1"",""964750""
""blur"",""1"",""966637""
""focus"",""1"",""975905""
""blur"",""1"",""977935""
""focus"",""1"",""978751""
""blur"",""1"",""980659""
""focus"",""1"",""1134253""
""fullscreenenter"",""1"",""1136978""
""fullscreenexit"",""2"",""1138455""
""blur"",""6"",""1173113""
""focus"",""7"",""1182546""
""blur"",""7"",""1183440""
""focus"",""7"",""1233143""
""blur"",""14"",""1299123""
""focus"",""14"",""1302543""
""blur"",""15"",""1307967""
""focus"",""15"",""1320097""
""blur"",""15"",""1328207""
""focus"",""16"",""1391067""
","""event"",""trial"",""time""
""blur"",""0"",""0""
""blur"",""0"",""0""
""blur"",""0"",""0""
""blur"",""0"",""0""
""blur"",""1"",""966637""
""blur"",""1"",""977935""
""blur"",""1"",""980659""
""blur"",""6"",""1173113""
""blur"",""7"",""1183440""
""blur"",""14"",""1299123""
""blur"",""15"",""1307967""
""blur"",""15"",""1328207""
","""event"",""trial"",""time""
""focus"",""0"",""0""
""focus"",""0"",""0""
""focus"",""0"",""0""
""focus"",""1"",""964750""
""focus"",""1"",""975905""
""focus"",""1"",""978751""
""focus"",""1"",""1134253""
""focus"",""7"",""1182546""
""focus"",""7"",""1233143""
""focus"",""14"",""1302543""
""focus"",""15"",""1320097""
""focus"",""16"",""1391067""
","""event"",""trial"",""time""
""fullscreenenter"",""1"",""1136978""
","""event"",""trial"",""time""
""fullscreenexit"",""2"",""1138455""
",,65061.3,"<p>When you arrive at a new planet, the alien who owns the treasure mine on that planet will greet you!</p><p>The better an alien takes care of their mine the easier it is to dig for gems. Some aliens take better care of their mine than others. So, you won’t get exactly the same amount of gems on each planet.</p><p>What the alien looks like does not tell you anything about how many gems there are on the planet.</p><br><p><img src=""run_exp/static/images/task_images/aliens/instructions_aliens/planet/alien_planet-1.jpg""  height=""600"" width=""auto""></p>",,,,,,,1,,,,,,,,,,,,,,,,,,
html-keyboard-response,17,1397507,0.0-7.0-8.0,"""event"",""trial"",""time""
""blur"",""0"",""0""
""focus"",""0"",""0""
""blur"",""0"",""0""
""focus"",""0"",""0""
""blur"",""0"",""0""
""focus"",""0"",""0""
""blur"",""0"",""0""
""focus"",""1"",""964750""
""blur"",""1"",""966637""
""focus"",""1"",""975905""
""blur"",""1"",""977935""
""focus"",""1"",""978751""
""blur"",""1"",""980659""
""focus"",""1"",""1134253""
""fullscreenenter"",""1"",""1136978""
""fullscreenexit"",""2"",""1138455""
""blur"",""6"",""1173113""
""focus"",""7"",""1182546""
""blur"",""7"",""1183440""
""focus"",""7"",""1233143""
""blur"",""14"",""1299123""
""focus"",""14"",""1302543""
""blur"",""15"",""1307967""
""focus"",""15"",""1320097""
""blur"",""15"",""1328207""
""focus"",""16"",""1391067""
","""event"",""trial"",""time""
""blur"",""0"",""0""
""blur"",""0"",""0""
""blur"",""0"",""0""
""blur"",""0"",""0""
""blur"",""1"",""966637""
""blur"",""1"",""977935""
""blur"",""1"",""980659""
""blur"",""6"",""1173113""
""blur"",""7"",""1183440""
""blur"",""14"",""1299123""
""blur"",""15"",""1307967""
""blur"",""15"",""1328207""
","""event"",""trial"",""time""
""focus"",""0"",""0""
""focus"",""0"",""0""
""focus"",""0"",""0""
""focus"",""1"",""964750""
""focus"",""1"",""975905""
""focus"",""1"",""978751""
""focus"",""1"",""1134253""
""focus"",""7"",""1182546""
""focus"",""7"",""1233143""
""focus"",""14"",""1302543""
""focus"",""15"",""1320097""
""focus"",""16"",""1391067""
","""event"",""trial"",""time""
""fullscreenenter"",""1"",""1136978""
","""event"",""trial"",""time""
""fullscreenexit"",""2"",""1138455""
",,97.5,"<p>When you arrive at a new planet, the alien who owns the treasure mine on that planet will greet you!</p><p>The better an alien takes care of their mine the easier it is to dig for gems. Some aliens take better care of their mine than others. So, you won’t get exactly the same amount of gems on each planet.</p><p>What the alien looks like does not tell you anything about how many gems there are on the planet.</p><br><p><img src=""run_exp/static/images/task_images/aliens/instructions_aliens/planet/alien_planet-1.jpg""  height=""600"" width=""auto""></p><button class=""jspsych-html-btn-unchosen""><img src=""run_exp/static/images/task_images/planet-01.jpg"" height=""50""></button><button class=""jspsych-html-btn-chosen""><img src=""run_exp/static/images/task_images/planet-02.jpg"" height=""50""></button><p><b>[press the space bar to lock in your answer]<b><br></p>",32,,,,,,,,,,,,,,,,,,,,,,,,
time_out,18,1408559,0.0-8.0-0.0,"""event"",""trial"",""time""
""blur"",""0"",""0""
""focus"",""0"",""0""
""blur"",""0"",""0""
""focus"",""0"",""0""
""blur"",""0"",""0""
""focus"",""0"",""0""
""blur"",""0"",""0""
""focus"",""1"",""964750""
""blur"",""1"",""966637""
""focus"",""1"",""975905""
""blur"",""1"",""977935""
""focus"",""1"",""978751""
""blur"",""1"",""980659""
""focus"",""1"",""1134253""
""fullscreenenter"",""1"",""1136978""
""fullscreenexit"",""2"",""1138455""
""blur"",""6"",""1173113""
""focus"",""7"",""1182546""
""blur"",""7"",""1183440""
""focus"",""7"",""1233143""
""blur"",""14"",""1299123""
""focus"",""14"",""1302543""
""blur"",""15"",""1307967""
""focus"",""15"",""1320097""
""blur"",""15"",""1328207""
""focus"",""16"",""1391067""
","""event"",""trial"",""time""
""blur"",""0"",""0""
""blur"",""0"",""0""
""blur"",""0"",""0""
""blur"",""0"",""0""
""blur"",""1"",""966637""
""blur"",""1"",""977935""
""blur"",""1"",""980659""
""blur"",""6"",""1173113""
""blur"",""7"",""1183440""
""blur"",""14"",""1299123""
""blur"",""15"",""1307967""
""blur"",""15"",""1328207""
","""event"",""trial"",""time""
""focus"",""0"",""0""
""focus"",""0"",""0""
""focus"",""0"",""0""
""focus"",""1"",""964750""
""focus"",""1"",""975905""
""focus"",""1"",""978751""
""focus"",""1"",""1134253""
""focus"",""7"",""1182546""
""focus"",""7"",""1233143""
""focus"",""14"",""1302543""
""focus"",""15"",""1320097""
""focus"",""16"",""1391067""
","""event"",""trial"",""time""
""fullscreenenter"",""1"",""1136978""
","""event"",""trial"",""time""
""fullscreenexit"",""2"",""1138455""
",,null,run_exp/static/audio/clip_7_timeout.m4a,null,"<p>If you don't make your choice fast enough, you’ll have to wait a few seconds before you can make another one.</p><p>You can’t dig for more gems or travel to new planets. You just have to sit and wait.</p><br><p><img src='run_exp/static/images/task_images/time_out.jpg'  height='600' width='auto'></p>",,,,,,,,,,,,,,,,,,,,,,,
time_out,19,1412510,0.0-8.0-1.0,"""event"",""trial"",""time""
""blur"",""0"",""0""
""focus"",""0"",""0""
""blur"",""0"",""0""
""focus"",""0"",""0""
""blur"",""0"",""0""
""focus"",""0"",""0""
""blur"",""0"",""0""
""focus"",""1"",""964750""
""blur"",""1"",""966637""
""focus"",""1"",""975905""
""blur"",""1"",""977935""
""focus"",""1"",""978751""
""blur"",""1"",""980659""
""focus"",""1"",""1134253""
""fullscreenenter"",""1"",""1136978""
""fullscreenexit"",""2"",""1138455""
""blur"",""6"",""1173113""
""focus"",""7"",""1182546""
""blur"",""7"",""1183440""
""focus"",""7"",""1233143""
""blur"",""14"",""1299123""
""focus"",""14"",""1302543""
""blur"",""15"",""1307967""
""focus"",""15"",""1320097""
""blur"",""15"",""1328207""
""focus"",""16"",""1391067""
","""event"",""trial"",""time""
""blur"",""0"",""0""
""blur"",""0"",""0""
""blur"",""0"",""0""
""blur"",""0"",""0""
""blur"",""1"",""966637""
""blur"",""1"",""977935""
""blur"",""1"",""980659""
""blur"",""6"",""1173113""
""blur"",""7"",""1183440""
""blur"",""14"",""1299123""
""blur"",""15"",""1307967""
""blur"",""15"",""1328207""
","""event"",""trial"",""time""
""focus"",""0"",""0""
""focus"",""0"",""0""
""focus"",""0"",""0""
""focus"",""1"",""964750""
""focus"",""1"",""975905""
""focus"",""1"",""978751""
""focus"",""1"",""1134253""
""focus"",""7"",""1182546""
""focus"",""7"",""1233143""
""focus"",""14"",""1302543""
""focus"",""15"",""1320097""
""focus"",""16"",""1391067""
","""event"",""trial"",""time""
""fullscreenenter"",""1"",""1136978""
","""event"",""trial"",""time""
""fullscreenexit"",""2"",""1138455""
",,3948.2,"<p>If you don't make your choice fast enough, you’ll have to wait a few seconds before you can make another one.</p><p>You can’t dig for more gems or travel to new planets. You just have to sit and wait.</p><br><p><img src='run_exp/static/images/task_images/time_out.jpg'  height='600' width='auto'></p>",,,,,,,1,,,,,,,,,,,,,,,,,,
html-keyboard-response,20,1412930,0.0-8.0-2.0,"""event"",""trial"",""time""
""blur"",""0"",""0""
""focus"",""0"",""0""
""blur"",""0"",""0""
""focus"",""0"",""0""
""blur"",""0"",""0""
""focus"",""0"",""0""
""blur"",""0"",""0""
""focus"",""1"",""964750""
""blur"",""1"",""966637""
""focus"",""1"",""975905""
""blur"",""1"",""977935""
""focus"",""1"",""978751""
""blur"",""1"",""980659""
""focus"",""1"",""1134253""
""fullscreenenter"",""1"",""1136978""
""fullscreenexit"",""2"",""1138455""
""blur"",""6"",""1173113""
""focus"",""7"",""1182546""
""blur"",""7"",""1183440""
""focus"",""7"",""1233143""
""blur"",""14"",""1299123""
""focus"",""14"",""1302543""
""blur"",""15"",""1307967""
""focus"",""15"",""1320097""
""blur"",""15"",""1328207""
""focus"",""16"",""1391067""
","""event"",""trial"",""time""
""blur"",""0"",""0""
""blur"",""0"",""0""
""blur"",""0"",""0""
""blur"",""0"",""0""
""blur"",""1"",""966637""
""blur"",""1"",""977935""
""blur"",""1"",""980659""
""blur"",""6"",""1173113""
""blur"",""7"",""1183440""
""blur"",""14"",""1299123""
""blur"",""15"",""1307967""
""blur"",""15"",""1328207""
","""event"",""trial"",""time""
""focus"",""0"",""0""
""focus"",""0"",""0""
""focus"",""0"",""0""
""focus"",""1"",""964750""
""focus"",""1"",""975905""
""focus"",""1"",""978751""
""focus"",""1"",""1134253""
""focus"",""7"",""1182546""
""focus"",""7"",""1233143""
""focus"",""14"",""1302543""
""focus"",""15"",""1320097""
""focus"",""16"",""1391067""
","""event"",""trial"",""time""
""fullscreenenter"",""1"",""1136978""
","""event"",""trial"",""time""
""fullscreenexit"",""2"",""1138455""
",,418.7,"<p>If you don't make your choice fast enough, you’ll have to wait a few seconds before you can make another one.</p><p>You can’t dig for more gems or travel to new planets. You just have to sit and wait.</p><br><p><img src='run_exp/static/images/task_images/time_out.jpg'  height='600' width='auto'></p><button class=""jspsych-html-btn-unchosen""><img src=""run_exp/static/images/task_images/planet-01.jpg"" height=""50""></button><button class=""jspsych-html-btn-chosen""><img src=""run_exp/static/images/task_images/planet-02.jpg"" height=""50""></button><p><b>[press the space bar to lock in your answer]<b><br></p>",32,,,,,,,,,,,,,,,,,,,,,,,,
instruc_break,21,1428619,0.0-9.0-0.0,"""event"",""trial"",""time""
""blur"",""0"",""0""
""focus"",""0"",""0""
""blur"",""0"",""0""
""focus"",""0"",""0""
""blur"",""0"",""0""
""focus"",""0"",""0""
""blur"",""0"",""0""
""focus"",""1"",""964750""
""blur"",""1"",""966637""
""focus"",""1"",""975905""
""blur"",""1"",""977935""
""focus"",""1"",""978751""
""blur"",""1"",""980659""
""focus"",""1"",""1134253""
""fullscreenenter"",""1"",""1136978""
""fullscreenexit"",""2"",""1138455""
""blur"",""6"",""1173113""
""focus"",""7"",""1182546""
""blur"",""7"",""1183440""
""focus"",""7"",""1233143""
""blur"",""14"",""1299123""
""focus"",""14"",""1302543""
""blur"",""15"",""1307967""
""focus"",""15"",""1320097""
""blur"",""15"",""1328207""
""focus"",""16"",""1391067""
","""event"",""trial"",""time""
""blur"",""0"",""0""
""blur"",""0"",""0""
""blur"",""0"",""0""
""blur"",""0"",""0""
""blur"",""1"",""966637""
""blur"",""1"",""977935""
""blur"",""1"",""980659""
""blur"",""6"",""1173113""
""blur"",""7"",""1183440""
""blur"",""14"",""1299123""
""blur"",""15"",""1307967""
""blur"",""15"",""1328207""
","""event"",""trial"",""time""
""focus"",""0"",""0""
""focus"",""0"",""0""
""focus"",""0"",""0""
""focus"",""1"",""964750""
""focus"",""1"",""975905""
""focus"",""1"",""978751""
""focus"",""1"",""1134253""
""focus"",""7"",""1182546""
""focus"",""7"",""1233143""
""focus"",""14"",""1302543""
""focus"",""15"",""1320097""
""focus"",""16"",""1391067""
","""event"",""trial"",""time""
""fullscreenenter"",""1"",""1136978""
","""event"",""trial"",""time""
""fullscreenexit"",""2"",""1138455""
",,null,run_exp/static/audio/clip_8_break.m4a,null,"<p> After digging and traveling for a while, you’ll be able to take a break at home base. </p><p>The game will last 20 minutes no matter what.</p><p>You will visit home base every 5 minutes, so, you will visit home base three times during the game.</p><br><p><img src='run_exp/static/images/task_images/home_base.jpg' height='600' width='auto'></p>",,,,,,,,,,,,,,,,,,,,,,,
instruc_break,22,1442582,0.0-9.0-1.0,"""event"",""trial"",""time""
""blur"",""0"",""0""
""focus"",""0"",""0""
""blur"",""0"",""0""
""focus"",""0"",""0""
""blur"",""0"",""0""
""focus"",""0"",""0""
""blur"",""0"",""0""
""focus"",""1"",""964750""
""blur"",""1"",""966637""
""focus"",""1"",""975905""
""blur"",""1"",""977935""
""focus"",""1"",""978751""
""blur"",""1"",""980659""
""focus"",""1"",""1134253""
""fullscreenenter"",""1"",""1136978""
""fullscreenexit"",""2"",""1138455""
""blur"",""6"",""1173113""
""focus"",""7"",""1182546""
""blur"",""7"",""1183440""
""focus"",""7"",""1233143""
""blur"",""14"",""1299123""
""focus"",""14"",""1302543""
""blur"",""15"",""1307967""
""focus"",""15"",""1320097""
""blur"",""15"",""1328207""
""focus"",""16"",""1391067""
","""event"",""trial"",""time""
""blur"",""0"",""0""
""blur"",""0"",""0""
""blur"",""0"",""0""
""blur"",""0"",""0""
""blur"",""1"",""966637""
""blur"",""1"",""977935""
""blur"",""1"",""980659""
""blur"",""6"",""1173113""
""blur"",""7"",""1183440""
""blur"",""14"",""1299123""
""blur"",""15"",""1307967""
""blur"",""15"",""1328207""
","""event"",""trial"",""time""
""focus"",""0"",""0""
""focus"",""0"",""0""
""focus"",""0"",""0""
""focus"",""1"",""964750""
""focus"",""1"",""975905""
""focus"",""1"",""978751""
""focus"",""1"",""1134253""
""focus"",""7"",""1182546""
""focus"",""7"",""1233143""
""focus"",""14"",""1302543""
""focus"",""15"",""1320097""
""focus"",""16"",""1391067""
","""event"",""trial"",""time""
""fullscreenenter"",""1"",""1136978""
","""event"",""trial"",""time""
""fullscreenexit"",""2"",""1138455""
",,13959.2,"<p> After digging and traveling for a while, you’ll be able to take a break at home base. </p><p>The game will last 20 minutes no matter what.</p><p>You will visit home base every 5 minutes, so, you will visit home base three times during the game.</p><br><p><img src='run_exp/static/images/task_images/home_base.jpg' height='600' width='auto'></p>",,,,,,,1,,,,,,,,,,,,,,,,,,
html-keyboard-response,23,1442666,0.0-9.0-2.0,"""event"",""trial"",""time""
""blur"",""0"",""0""
""focus"",""0"",""0""
""blur"",""0"",""0""
""focus"",""0"",""0""
""blur"",""0"",""0""
""focus"",""0"",""0""
""blur"",""0"",""0""
""focus"",""1"",""964750""
""blur"",""1"",""966637""
""focus"",""1"",""975905""
""blur"",""1"",""977935""
""focus"",""1"",""978751""
""blur"",""1"",""980659""
""focus"",""1"",""1134253""
""fullscreenenter"",""1"",""1136978""
""fullscreenexit"",""2"",""1138455""
""blur"",""6"",""1173113""
""focus"",""7"",""1182546""
""blur"",""7"",""1183440""
""focus"",""7"",""1233143""
""blur"",""14"",""1299123""
""focus"",""14"",""1302543""
""blur"",""15"",""1307967""
""focus"",""15"",""1320097""
""blur"",""15"",""1328207""
""focus"",""16"",""1391067""
","""event"",""trial"",""time""
""blur"",""0"",""0""
""blur"",""0"",""0""
""blur"",""0"",""0""
""blur"",""0"",""0""
""blur"",""1"",""966637""
""blur"",""1"",""977935""
""blur"",""1"",""980659""
""blur"",""6"",""1173113""
""blur"",""7"",""1183440""
""blur"",""14"",""1299123""
""blur"",""15"",""1307967""
""blur"",""15"",""1328207""
","""event"",""trial"",""time""
""focus"",""0"",""0""
""focus"",""0"",""0""
""focus"",""0"",""0""
""focus"",""1"",""964750""
""focus"",""1"",""975905""
""focus"",""1"",""978751""
""focus"",""1"",""1134253""
""focus"",""7"",""1182546""
""focus"",""7"",""1233143""
""focus"",""14"",""1302543""
""focus"",""15"",""1320097""
""focus"",""16"",""1391067""
","""event"",""trial"",""time""
""fullscreenenter"",""1"",""1136978""
","""event"",""trial"",""time""
""fullscreenexit"",""2"",""1138455""
",,81.79999995,"<p> After digging and traveling for a while, you’ll be able to take a break at home base. </p><p>The game will last 20 minutes no matter what.</p><p>You will visit home base every 5 minutes, so, you will visit home base three times during the game.</p><br><p><img src='run_exp/static/images/task_images/home_base.jpg' height='600' width='auto'></p><button class=""jspsych-html-btn-unchosen""><img src=""run_exp/static/images/task_images/planet-01.jpg"" height=""50""></button><button class=""jspsych-html-btn-chosen""><img src=""run_exp/static/images/task_images/planet-02.jpg"" height=""50""></button><p><b>[press the space bar to lock in your answer]<b><br></p>",32,,,,,,,,,,,,,,,,,,,,,,,,
instruc_prac_game,24,1452762,0.0-10.0-0.0,"""event"",""trial"",""time""
""blur"",""0"",""0""
""focus"",""0"",""0""
""blur"",""0"",""0""
""focus"",""0"",""0""
""blur"",""0"",""0""
""focus"",""0"",""0""
""blur"",""0"",""0""
""focus"",""1"",""964750""
""blur"",""1"",""966637""
""focus"",""1"",""975905""
""blur"",""1"",""977935""
""focus"",""1"",""978751""
""blur"",""1"",""980659""
""focus"",""1"",""1134253""
""fullscreenenter"",""1"",""1136978""
""fullscreenexit"",""2"",""1138455""
""blur"",""6"",""1173113""
""focus"",""7"",""1182546""
""blur"",""7"",""1183440""
""focus"",""7"",""1233143""
""blur"",""14"",""1299123""
""focus"",""14"",""1302543""
""blur"",""15"",""1307967""
""focus"",""15"",""1320097""
""blur"",""15"",""1328207""
""focus"",""16"",""1391067""
","""event"",""trial"",""time""
""blur"",""0"",""0""
""blur"",""0"",""0""
""blur"",""0"",""0""
""blur"",""0"",""0""
""blur"",""1"",""966637""
""blur"",""1"",""977935""
""blur"",""1"",""980659""
""blur"",""6"",""1173113""
""blur"",""7"",""1183440""
""blur"",""14"",""1299123""
""blur"",""15"",""1307967""
""blur"",""15"",""1328207""
","""event"",""trial"",""time""
""focus"",""0"",""0""
""focus"",""0"",""0""
""focus"",""0"",""0""
""focus"",""1"",""964750""
""focus"",""1"",""975905""
""focus"",""1"",""978751""
""focus"",""1"",""1134253""
""focus"",""7"",""1182546""
""focus"",""7"",""1233143""
""focus"",""14"",""1302543""
""focus"",""15"",""1320097""
""focus"",""16"",""1391067""
","""event"",""trial"",""time""
""fullscreenenter"",""1"",""1136978""
","""event"",""trial"",""time""
""fullscreenexit"",""2"",""1138455""
",,null,run_exp/static/audio/clip_9_practice.m4a,null,"<p> Are you ready to play a practice game? </p> <p>In this practice game, you'll be digging up barrels of gems. But, in the real game, you'll be digging up the gems themselves. </p>",,,,,,,,,,,,,,,,,,,,,,,
html-button-response,25,1454519,0.0-10.0-1.0,"""event"",""trial"",""time""
""blur"",""0"",""0""
""focus"",""0"",""0""
""blur"",""0"",""0""
""focus"",""0"",""0""
""blur"",""0"",""0""
""focus"",""0"",""0""
""blur"",""0"",""0""
""focus"",""1"",""964750""
""blur"",""1"",""966637""
""focus"",""1"",""975905""
""blur"",""1"",""977935""
""focus"",""1"",""978751""
""blur"",""1"",""980659""
""focus"",""1"",""1134253""
""fullscreenenter"",""1"",""1136978""
""fullscreenexit"",""2"",""1138455""
""blur"",""6"",""1173113""
""focus"",""7"",""1182546""
""blur"",""7"",""1183440""
""focus"",""7"",""1233143""
""blur"",""14"",""1299123""
""focus"",""14"",""1302543""
""blur"",""15"",""1307967""
""focus"",""15"",""1320097""
""blur"",""15"",""1328207""
""focus"",""16"",""1391067""
","""event"",""trial"",""time""
""blur"",""0"",""0""
""blur"",""0"",""0""
""blur"",""0"",""0""
""blur"",""0"",""0""
""blur"",""1"",""966637""
""blur"",""1"",""977935""
""blur"",""1"",""980659""
""blur"",""6"",""1173113""
""blur"",""7"",""1183440""
""blur"",""14"",""1299123""
""blur"",""15"",""1307967""
""blur"",""15"",""1328207""
","""event"",""trial"",""time""
""focus"",""0"",""0""
""focus"",""0"",""0""
""focus"",""0"",""0""
""focus"",""1"",""964750""
""focus"",""1"",""975905""
""focus"",""1"",""978751""
""focus"",""1"",""1134253""
""focus"",""7"",""1182546""
""focus"",""7"",""1233143""
""focus"",""14"",""1302543""
""focus"",""15"",""1320097""
""focus"",""16"",""1391067""
","""event"",""trial"",""time""
""fullscreenenter"",""1"",""1136978""
","""event"",""trial"",""time""
""fullscreenexit"",""2"",""1138455""
",,1754,"<p> Are you ready to play a practice game? </p> <p>In this practice game, you'll be digging up barrels of gems. But, in the real game, you'll be digging up the gems themselves. </p>",,,,,,,0,,,,,,,,,,,,,,,,,,
alien_welcome_prac,26,1459524,0.0-11.0-0.0,"""event"",""trial"",""time""
""blur"",""0"",""0""
""focus"",""0"",""0""
""blur"",""0"",""0""
""focus"",""0"",""0""
""blur"",""0"",""0""
""focus"",""0"",""0""
""blur"",""0"",""0""
""focus"",""1"",""964750""
""blur"",""1"",""966637""
""focus"",""1"",""975905""
""blur"",""1"",""977935""
""focus"",""1"",""978751""
""blur"",""1"",""980659""
""focus"",""1"",""1134253""
""fullscreenenter"",""1"",""1136978""
""fullscreenexit"",""2"",""1138455""
""blur"",""6"",""1173113""
""focus"",""7"",""1182546""
""blur"",""7"",""1183440""
""focus"",""7"",""1233143""
""blur"",""14"",""1299123""
""focus"",""14"",""1302543""
""blur"",""15"",""1307967""
""focus"",""15"",""1320097""
""blur"",""15"",""1328207""
""focus"",""16"",""1391067""
","""event"",""trial"",""time""
""blur"",""0"",""0""
""blur"",""0"",""0""
""blur"",""0"",""0""
""blur"",""0"",""0""
""blur"",""1"",""966637""
""blur"",""1"",""977935""
""blur"",""1"",""980659""
""blur"",""6"",""1173113""
""blur"",""7"",""1183440""
""blur"",""14"",""1299123""
""blur"",""15"",""1307967""
""blur"",""15"",""1328207""
","""event"",""trial"",""time""
""focus"",""0"",""0""
""focus"",""0"",""0""
""focus"",""0"",""0""
""focus"",""1"",""964750""
""focus"",""1"",""975905""
""focus"",""1"",""978751""
""focus"",""1"",""1134253""
""focus"",""7"",""1182546""
""focus"",""7"",""1233143""
""focus"",""14"",""1302543""
""focus"",""15"",""1320097""
""focus"",""16"",""1391067""
","""event"",""trial"",""time""
""fullscreenenter"",""1"",""1136978""
","""event"",""trial"",""time""
""fullscreenexit"",""2"",""1138455""
",,null,run_exp/static/images/task_images/aliens/practice_aliens/planet/alien_planet-5.jpg,null,,,,,,,,,,,,,,,,,,,,,,,,
land_prac,27,1460029,0.0-11.0-1.0,"""event"",""trial"",""time""
""blur"",""0"",""0""
""focus"",""0"",""0""
""blur"",""0"",""0""
""focus"",""0"",""0""
""blur"",""0"",""0""
""focus"",""0"",""0""
""blur"",""0"",""0""
""focus"",""1"",""964750""
""blur"",""1"",""966637""
""focus"",""1"",""975905""
""blur"",""1"",""977935""
""focus"",""1"",""978751""
""blur"",""1"",""980659""
""focus"",""1"",""1134253""
""fullscreenenter"",""1"",""1136978""
""fullscreenexit"",""2"",""1138455""
""blur"",""6"",""1173113""
""focus"",""7"",""1182546""
""blur"",""7"",""1183440""
""focus"",""7"",""1233143""
""blur"",""14"",""1299123""
""focus"",""14"",""1302543""
""blur"",""15"",""1307967""
""focus"",""15"",""1320097""
""blur"",""15"",""1328207""
""focus"",""16"",""1391067""
","""event"",""trial"",""time""
""blur"",""0"",""0""
""blur"",""0"",""0""
""blur"",""0"",""0""
""blur"",""0"",""0""
""blur"",""1"",""966637""
""blur"",""1"",""977935""
""blur"",""1"",""980659""
""blur"",""6"",""1173113""
""blur"",""7"",""1183440""
""blur"",""14"",""1299123""
""blur"",""15"",""1307967""
""blur"",""15"",""1328207""
","""event"",""trial"",""time""
""focus"",""0"",""0""
""focus"",""0"",""0""
""focus"",""0"",""0""
""focus"",""1"",""964750""
""focus"",""1"",""975905""
""focus"",""1"",""978751""
""focus"",""1"",""1134253""
""focus"",""7"",""1182546""
""focus"",""7"",""1233143""
""focus"",""14"",""1302543""
""focus"",""15"",""1320097""
""focus"",""16"",""1391067""
","""event"",""trial"",""time""
""fullscreenenter"",""1"",""1136978""
","""event"",""trial"",""time""
""fullscreenexit"",""2"",""1138455""
",,null,run_exp/static/images/task_images/land.jpg,null,,,,,,,109,,,0,,,,,,,,,,,,,,
dig_prac,28,1462034,0.0-11.0-2.0,"""event"",""trial"",""time""
""blur"",""0"",""0""
""focus"",""0"",""0""
""blur"",""0"",""0""
""focus"",""0"",""0""
""blur"",""0"",""0""
""focus"",""0"",""0""
""blur"",""0"",""0""
""focus"",""1"",""964750""
""blur"",""1"",""966637""
""focus"",""1"",""975905""
""blur"",""1"",""977935""
""focus"",""1"",""978751""
""blur"",""1"",""980659""
""focus"",""1"",""1134253""
""fullscreenenter"",""1"",""1136978""
""fullscreenexit"",""2"",""1138455""
""blur"",""6"",""1173113""
""focus"",""7"",""1182546""
""blur"",""7"",""1183440""
""focus"",""7"",""1233143""
""blur"",""14"",""1299123""
""focus"",""14"",""1302543""
""blur"",""15"",""1307967""
""focus"",""15"",""1320097""
""blur"",""15"",""1328207""
""focus"",""16"",""1391067""
","""event"",""trial"",""time""
""blur"",""0"",""0""
""blur"",""0"",""0""
""blur"",""0"",""0""
""blur"",""0"",""0""
""blur"",""1"",""966637""
""blur"",""1"",""977935""
""blur"",""1"",""980659""
""blur"",""6"",""1173113""
""blur"",""7"",""1183440""
""blur"",""14"",""1299123""
""blur"",""15"",""1307967""
""blur"",""15"",""1328207""
","""event"",""trial"",""time""
""focus"",""0"",""0""
""focus"",""0"",""0""
""focus"",""0"",""0""
""focus"",""1"",""964750""
""focus"",""1"",""975905""
""focus"",""1"",""978751""
""focus"",""1"",""1134253""
""focus"",""7"",""1182546""
""focus"",""7"",""1233143""
""focus"",""14"",""1302543""
""focus"",""15"",""1320097""
""focus"",""16"",""1391067""
","""event"",""trial"",""time""
""fullscreenenter"",""1"",""1136978""
","""event"",""trial"",""time""
""fullscreenexit"",""2"",""1138455""
",,,,,,,,,,,,"[{""stimulus"":""run_exp/static/images/task_images/dig.jpg"",""time"":0.20000004768371582},{""stimulus"":""run_exp/static/images/task_images/land.jpg"",""time"":668.8000000119209},{""stimulus"":""run_exp/static/images/task_images/dig.jpg"",""time"":1335.4000000357628}]",[],,,,,,,,,,,,,,,
harvest_prac,29,1463037,0.0-11.0-3.0,"""event"",""trial"",""time""
""blur"",""0"",""0""
""focus"",""0"",""0""
""blur"",""0"",""0""
""focus"",""0"",""0""
""blur"",""0"",""0""
""focus"",""0"",""0""
""blur"",""0"",""0""
""focus"",""1"",""964750""
""blur"",""1"",""966637""
""focus"",""1"",""975905""
""blur"",""1"",""977935""
""focus"",""1"",""978751""
""blur"",""1"",""980659""
""focus"",""1"",""1134253""
""fullscreenenter"",""1"",""1136978""
""fullscreenexit"",""2"",""1138455""
""blur"",""6"",""1173113""
""focus"",""7"",""1182546""
""blur"",""7"",""1183440""
""focus"",""7"",""1233143""
""blur"",""14"",""1299123""
""focus"",""14"",""1302543""
""blur"",""15"",""1307967""
""focus"",""15"",""1320097""
""blur"",""15"",""1328207""
""focus"",""16"",""1391067""
","""event"",""trial"",""time""
""blur"",""0"",""0""
""blur"",""0"",""0""
""blur"",""0"",""0""
""blur"",""0"",""0""
""blur"",""1"",""966637""
""blur"",""1"",""977935""
""blur"",""1"",""980659""
""blur"",""6"",""1173113""
""blur"",""7"",""1183440""
""blur"",""14"",""1299123""
""blur"",""15"",""1307967""
""blur"",""15"",""1328207""
","""event"",""trial"",""time""
""focus"",""0"",""0""
""focus"",""0"",""0""
""focus"",""0"",""0""
""focus"",""1"",""964750""
""focus"",""1"",""975905""
""focus"",""1"",""978751""
""focus"",""1"",""1134253""
""focus"",""7"",""1182546""
""focus"",""7"",""1233143""
""focus"",""14"",""1302543""
""focus"",""15"",""1320097""
""focus"",""16"",""1391067""
","""event"",""trial"",""time""
""fullscreenenter"",""1"",""1136978""
","""event"",""trial"",""time""
""fullscreenexit"",""2"",""1138455""
",,null,run_exp/static/images/task_images/barrel_text.jpg,null,,,,,,,,,,,,,,,,,,,,,,,,
decision_prac,30,1464097,0.0-11.0-4.0,"""event"",""trial"",""time""
""blur"",""0"",""0""
""focus"",""0"",""0""
""blur"",""0"",""0""
""focus"",""0"",""0""
""blur"",""0"",""0""
""focus"",""0"",""0""
""blur"",""0"",""0""
""focus"",""1"",""964750""
""blur"",""1"",""966637""
""focus"",""1"",""975905""
""blur"",""1"",""977935""
""focus"",""1"",""978751""
""blur"",""1"",""980659""
""focus"",""1"",""1134253""
""fullscreenenter"",""1"",""1136978""
""fullscreenexit"",""2"",""1138455""
""blur"",""6"",""1173113""
""focus"",""7"",""1182546""
""blur"",""7"",""1183440""
""focus"",""7"",""1233143""
""blur"",""14"",""1299123""
""focus"",""14"",""1302543""
""blur"",""15"",""1307967""
""focus"",""15"",""1320097""
""blur"",""15"",""1328207""
""focus"",""16"",""1391067""
","""event"",""trial"",""time""
""blur"",""0"",""0""
""blur"",""0"",""0""
""blur"",""0"",""0""
""blur"",""0"",""0""
""blur"",""1"",""966637""
""blur"",""1"",""977935""
""blur"",""1"",""980659""
""blur"",""6"",""1173113""
""blur"",""7"",""1183440""
""blur"",""14"",""1299123""
""blur"",""15"",""1307967""
""blur"",""15"",""1328207""
","""event"",""trial"",""time""
""focus"",""0"",""0""
""focus"",""0"",""0""
""focus"",""0"",""0""
""focus"",""1"",""964750""
""focus"",""1"",""975905""
""focus"",""1"",""978751""
""focus"",""1"",""1134253""
""focus"",""7"",""1182546""
""focus"",""7"",""1233143""
""focus"",""14"",""1302543""
""focus"",""15"",""1320097""
""focus"",""16"",""1391067""
","""event"",""trial"",""time""
""fullscreenenter"",""1"",""1136978""
","""event"",""trial"",""time""
""fullscreenexit"",""2"",""1138455""
",,1057.5,run_exp/static/images/task_images/land.jpg,65,,,,,,,,,,,1,,,,,,,,,,,,,
dig_prac,31,1466103,0.0-12.0-0.0,"""event"",""trial"",""time""
""blur"",""0"",""0""
""focus"",""0"",""0""
""blur"",""0"",""0""
""focus"",""0"",""0""
""blur"",""0"",""0""
""focus"",""0"",""0""
""blur"",""0"",""0""
""focus"",""1"",""964750""
""blur"",""1"",""966637""
""focus"",""1"",""975905""
""blur"",""1"",""977935""
""focus"",""1"",""978751""
""blur"",""1"",""980659""
""focus"",""1"",""1134253""
""fullscreenenter"",""1"",""1136978""
""fullscreenexit"",""2"",""1138455""
""blur"",""6"",""1173113""
""focus"",""7"",""1182546""
""blur"",""7"",""1183440""
""focus"",""7"",""1233143""
""blur"",""14"",""1299123""
""focus"",""14"",""1302543""
""blur"",""15"",""1307967""
""focus"",""15"",""1320097""
""blur"",""15"",""1328207""
""focus"",""16"",""1391067""
","""event"",""trial"",""time""
""blur"",""0"",""0""
""blur"",""0"",""0""
""blur"",""0"",""0""
""blur"",""0"",""0""
""blur"",""1"",""966637""
""blur"",""1"",""977935""
""blur"",""1"",""980659""
""blur"",""6"",""1173113""
""blur"",""7"",""1183440""
""blur"",""14"",""1299123""
""blur"",""15"",""1307967""
""blur"",""15"",""1328207""
","""event"",""trial"",""time""
""focus"",""0"",""0""
""focus"",""0"",""0""
""focus"",""0"",""0""
""focus"",""1"",""964750""
""focus"",""1"",""975905""
""focus"",""1"",""978751""
""focus"",""1"",""1134253""
""focus"",""7"",""1182546""
""focus"",""7"",""1233143""
""focus"",""14"",""1302543""
""focus"",""15"",""1320097""
""focus"",""16"",""1391067""
","""event"",""trial"",""time""
""fullscreenenter"",""1"",""1136978""
","""event"",""trial"",""time""
""fullscreenexit"",""2"",""1138455""
",,,,,,,,,,,,"[{""stimulus"":""run_exp/static/images/task_images/dig.jpg"",""time"":0.30000001192092896},{""stimulus"":""run_exp/static/images/task_images/land.jpg"",""time"":669.0999999642372},{""stimulus"":""run_exp/static/images/task_images/dig.jpg"",""time"":1336.3999999761581}]",[],,,,,,,,,,,,,,,
harvest_prac,32,1467106,0.0-12.0-1.0,"""event"",""trial"",""time""
""blur"",""0"",""0""
""focus"",""0"",""0""
""blur"",""0"",""0""
""focus"",""0"",""0""
""blur"",""0"",""0""
""focus"",""0"",""0""
""blur"",""0"",""0""
""focus"",""1"",""964750""
""blur"",""1"",""966637""
""focus"",""1"",""975905""
""blur"",""1"",""977935""
""focus"",""1"",""978751""
""blur"",""1"",""980659""
""focus"",""1"",""1134253""
""fullscreenenter"",""1"",""1136978""
""fullscreenexit"",""2"",""1138455""
""blur"",""6"",""1173113""
""focus"",""7"",""1182546""
""blur"",""7"",""1183440""
""focus"",""7"",""1233143""
""blur"",""14"",""1299123""
""focus"",""14"",""1302543""
""blur"",""15"",""1307967""
""focus"",""15"",""1320097""
""blur"",""15"",""1328207""
""focus"",""16"",""1391067""
","""event"",""trial"",""time""
""blur"",""0"",""0""
""blur"",""0"",""0""
""blur"",""0"",""0""
""blur"",""0"",""0""
""blur"",""1"",""966637""
""blur"",""1"",""977935""
""blur"",""1"",""980659""
""blur"",""6"",""1173113""
""blur"",""7"",""1183440""
""blur"",""14"",""1299123""
""blur"",""15"",""1307967""
""blur"",""15"",""1328207""
","""event"",""trial"",""time""
""focus"",""0"",""0""
""focus"",""0"",""0""
""focus"",""0"",""0""
""focus"",""1"",""964750""
""focus"",""1"",""975905""
""focus"",""1"",""978751""
""focus"",""1"",""1134253""
""focus"",""7"",""1182546""
""focus"",""7"",""1233143""
""focus"",""14"",""1302543""
""focus"",""15"",""1320097""
""focus"",""16"",""1391067""
","""event"",""trial"",""time""
""fullscreenenter"",""1"",""1136978""
","""event"",""trial"",""time""
""fullscreenexit"",""2"",""1138455""
",,null,run_exp/static/images/task_images/barrel_text.jpg,null,,,,,,,,,,,,,,,,,,,,,,,,
decision_prac,33,1467501,0.0-12.0-2.0,"""event"",""trial"",""time""
""blur"",""0"",""0""
""focus"",""0"",""0""
""blur"",""0"",""0""
""focus"",""0"",""0""
""blur"",""0"",""0""
""focus"",""0"",""0""
""blur"",""0"",""0""
""focus"",""1"",""964750""
""blur"",""1"",""966637""
""focus"",""1"",""975905""
""blur"",""1"",""977935""
""focus"",""1"",""978751""
""blur"",""1"",""980659""
""focus"",""1"",""1134253""
""fullscreenenter"",""1"",""1136978""
""fullscreenexit"",""2"",""1138455""
""blur"",""6"",""1173113""
""focus"",""7"",""1182546""
""blur"",""7"",""1183440""
""focus"",""7"",""1233143""
""blur"",""14"",""1299123""
""focus"",""14"",""1302543""
""blur"",""15"",""1307967""
""focus"",""15"",""1320097""
""blur"",""15"",""1328207""
""focus"",""16"",""1391067""
","""event"",""trial"",""time""
""blur"",""0"",""0""
""blur"",""0"",""0""
""blur"",""0"",""0""
""blur"",""0"",""0""
""blur"",""1"",""966637""
""blur"",""1"",""977935""
""blur"",""1"",""980659""
""blur"",""6"",""1173113""
""blur"",""7"",""1183440""
""blur"",""14"",""1299123""
""blur"",""15"",""1307967""
""blur"",""15"",""1328207""
","""event"",""trial"",""time""
""focus"",""0"",""0""
""focus"",""0"",""0""
""focus"",""0"",""0""
""focus"",""1"",""964750""
""focus"",""1"",""975905""
""focus"",""1"",""978751""
""focus"",""1"",""1134253""
""focus"",""7"",""1182546""
""focus"",""7"",""1233143""
""focus"",""14"",""1302543""
""focus"",""15"",""1320097""
""focus"",""16"",""1391067""
","""event"",""trial"",""time""
""fullscreenenter"",""1"",""1136978""
","""event"",""trial"",""time""
""fullscreenexit"",""2"",""1138455""
",,394.5,run_exp/static/images/task_images/land.jpg,65,,,,,,,,,,,2,,,,,,,,,,,,,
dig_prac,34,1469508,0.0-13.0-0.0,"""event"",""trial"",""time""
""blur"",""0"",""0""
""focus"",""0"",""0""
""blur"",""0"",""0""
""focus"",""0"",""0""
""blur"",""0"",""0""
""focus"",""0"",""0""
""blur"",""0"",""0""
""focus"",""1"",""964750""
""blur"",""1"",""966637""
""focus"",""1"",""975905""
""blur"",""1"",""977935""
""focus"",""1"",""978751""
""blur"",""1"",""980659""
""focus"",""1"",""1134253""
""fullscreenenter"",""1"",""1136978""
""fullscreenexit"",""2"",""1138455""
""blur"",""6"",""1173113""
""focus"",""7"",""1182546""
""blur"",""7"",""1183440""
""focus"",""7"",""1233143""
""blur"",""14"",""1299123""
""focus"",""14"",""1302543""
""blur"",""15"",""1307967""
""focus"",""15"",""1320097""
""blur"",""15"",""1328207""
""focus"",""16"",""1391067""
","""event"",""trial"",""time""
""blur"",""0"",""0""
""blur"",""0"",""0""
""blur"",""0"",""0""
""blur"",""0"",""0""
""blur"",""1"",""966637""
""blur"",""1"",""977935""
""blur"",""1"",""980659""
""blur"",""6"",""1173113""
""blur"",""7"",""1183440""
""blur"",""14"",""1299123""
""blur"",""15"",""1307967""
""blur"",""15"",""1328207""
","""event"",""trial"",""time""
""focus"",""0"",""0""
""focus"",""0"",""0""
""focus"",""0"",""0""
""focus"",""1"",""964750""
""focus"",""1"",""975905""
""focus"",""1"",""978751""
""focus"",""1"",""1134253""
""focus"",""7"",""1182546""
""focus"",""7"",""1233143""
""focus"",""14"",""1302543""
""focus"",""15"",""1320097""
""focus"",""16"",""1391067""
","""event"",""trial"",""time""
""fullscreenenter"",""1"",""1136978""
","""event"",""trial"",""time""
""fullscreenexit"",""2"",""1138455""
",,,,,,,,,,,,"[{""stimulus"":""run_exp/static/images/task_images/dig.jpg"",""time"":0.30000001192092896},{""stimulus"":""run_exp/static/images/task_images/land.jpg"",""time"":668.5999999642372},{""stimulus"":""run_exp/static/images/task_images/dig.jpg"",""time"":1335.3999999761581}]",[],,,,,,,,,,,,,,,
harvest_prac,35,1470512,0.0-13.0-1.0,"""event"",""trial"",""time""
""blur"",""0"",""0""
""focus"",""0"",""0""
""blur"",""0"",""0""
""focus"",""0"",""0""
""blur"",""0"",""0""
""focus"",""0"",""0""
""blur"",""0"",""0""
""focus"",""1"",""964750""
""blur"",""1"",""966637""
""focus"",""1"",""975905""
""blur"",""1"",""977935""
""focus"",""1"",""978751""
""blur"",""1"",""980659""
""focus"",""1"",""1134253""
""fullscreenenter"",""1"",""1136978""
""fullscreenexit"",""2"",""1138455""
""blur"",""6"",""1173113""
""focus"",""7"",""1182546""
""blur"",""7"",""1183440""
""focus"",""7"",""1233143""
""blur"",""14"",""1299123""
""focus"",""14"",""1302543""
""blur"",""15"",""1307967""
""focus"",""15"",""1320097""
""blur"",""15"",""1328207""
""focus"",""16"",""1391067""
","""event"",""trial"",""time""
""blur"",""0"",""0""
""blur"",""0"",""0""
""blur"",""0"",""0""
""blur"",""0"",""0""
""blur"",""1"",""966637""
""blur"",""1"",""977935""
""blur"",""1"",""980659""
""blur"",""6"",""1173113""
""blur"",""7"",""1183440""
""blur"",""14"",""1299123""
""blur"",""15"",""1307967""
""blur"",""15"",""1328207""
","""event"",""trial"",""time""
""focus"",""0"",""0""
""focus"",""0"",""0""
""focus"",""0"",""0""
""focus"",""1"",""964750""
""focus"",""1"",""975905""
""focus"",""1"",""978751""
""focus"",""1"",""1134253""
""focus"",""7"",""1182546""
""focus"",""7"",""1233143""
""focus"",""14"",""1302543""
""focus"",""15"",""1320097""
""focus"",""16"",""1391067""
","""event"",""trial"",""time""
""fullscreenenter"",""1"",""1136978""
","""event"",""trial"",""time""
""fullscreenexit"",""2"",""1138455""
",,null,run_exp/static/images/task_images/barrel_text.jpg,null,,,,,,,,,,,,,,,,,,,,,,,,
decision_prac,36,1470950,0.0-13.0-2.0,"""event"",""trial"",""time""
""blur"",""0"",""0""
""focus"",""0"",""0""
""blur"",""0"",""0""
""focus"",""0"",""0""
""blur"",""0"",""0""
""focus"",""0"",""0""
""blur"",""0"",""0""
""focus"",""1"",""964750""
""blur"",""1"",""966637""
""focus"",""1"",""975905""
""blur"",""1"",""977935""
""focus"",""1"",""978751""
""blur"",""1"",""980659""
""focus"",""1"",""1134253""
""fullscreenenter"",""1"",""1136978""
""fullscreenexit"",""2"",""1138455""
""blur"",""6"",""1173113""
""focus"",""7"",""1182546""
""blur"",""7"",""1183440""
""focus"",""7"",""1233143""
""blur"",""14"",""1299123""
""focus"",""14"",""1302543""
""blur"",""15"",""1307967""
""focus"",""15"",""1320097""
""blur"",""15"",""1328207""
""focus"",""16"",""1391067""
","""event"",""trial"",""time""
""blur"",""0"",""0""
""blur"",""0"",""0""
""blur"",""0"",""0""
""blur"",""0"",""0""
""blur"",""1"",""966637""
""blur"",""1"",""977935""
""blur"",""1"",""980659""
""blur"",""6"",""1173113""
""blur"",""7"",""1183440""
""blur"",""14"",""1299123""
""blur"",""15"",""1307967""
""blur"",""15"",""1328207""
","""event"",""trial"",""time""
""focus"",""0"",""0""
""focus"",""0"",""0""
""focus"",""0"",""0""
""focus"",""1"",""964750""
""focus"",""1"",""975905""
""focus"",""1"",""978751""
""focus"",""1"",""1134253""
""focus"",""7"",""1182546""
""focus"",""7"",""1233143""
""focus"",""14"",""1302543""
""focus"",""15"",""1320097""
""focus"",""16"",""1391067""
","""event"",""trial"",""time""
""fullscreenenter"",""1"",""1136978""
","""event"",""trial"",""time""
""fullscreenexit"",""2"",""1138455""
",,434.9,run_exp/static/images/task_images/land.jpg,65,,,,,,,,,,,3,,,,,,,,,,,,,
dig_prac,37,1472957,0.0-14.0-0.0,"""event"",""trial"",""time""
""blur"",""0"",""0""
""focus"",""0"",""0""
""blur"",""0"",""0""
""focus"",""0"",""0""
""blur"",""0"",""0""
""focus"",""0"",""0""
""blur"",""0"",""0""
""focus"",""1"",""964750""
""blur"",""1"",""966637""
""focus"",""1"",""975905""
""blur"",""1"",""977935""
""focus"",""1"",""978751""
""blur"",""1"",""980659""
""focus"",""1"",""1134253""
""fullscreenenter"",""1"",""1136978""
""fullscreenexit"",""2"",""1138455""
""blur"",""6"",""1173113""
""focus"",""7"",""1182546""
""blur"",""7"",""1183440""
""focus"",""7"",""1233143""
""blur"",""14"",""1299123""
""focus"",""14"",""1302543""
""blur"",""15"",""1307967""
""focus"",""15"",""1320097""
""blur"",""15"",""1328207""
""focus"",""16"",""1391067""
","""event"",""trial"",""time""
""blur"",""0"",""0""
""blur"",""0"",""0""
""blur"",""0"",""0""
""blur"",""0"",""0""
""blur"",""1"",""966637""
""blur"",""1"",""977935""
""blur"",""1"",""980659""
""blur"",""6"",""1173113""
""blur"",""7"",""1183440""
""blur"",""14"",""1299123""
""blur"",""15"",""1307967""
""blur"",""15"",""1328207""
","""event"",""trial"",""time""
""focus"",""0"",""0""
""focus"",""0"",""0""
""focus"",""0"",""0""
""focus"",""1"",""964750""
""focus"",""1"",""975905""
""focus"",""1"",""978751""
""focus"",""1"",""1134253""
""focus"",""7"",""1182546""
""focus"",""7"",""1233143""
""focus"",""14"",""1302543""
""focus"",""15"",""1320097""
""focus"",""16"",""1391067""
","""event"",""trial"",""time""
""fullscreenenter"",""1"",""1136978""
","""event"",""trial"",""time""
""fullscreenexit"",""2"",""1138455""
",,,,,,,,,,,,"[{""stimulus"":""run_exp/static/images/task_images/dig.jpg"",""time"":0.2999999523162842},{""stimulus"":""run_exp/static/images/task_images/land.jpg"",""time"":668.5999999642372},{""stimulus"":""run_exp/static/images/task_images/dig.jpg"",""time"":1335.5}]",[],,,,,,,,,,,,,,,
harvest_prac,38,1473961,0.0-14.0-1.0,"""event"",""trial"",""time""
""blur"",""0"",""0""
""focus"",""0"",""0""
""blur"",""0"",""0""
""focus"",""0"",""0""
""blur"",""0"",""0""
""focus"",""0"",""0""
""blur"",""0"",""0""
""focus"",""1"",""964750""
""blur"",""1"",""966637""
""focus"",""1"",""975905""
""blur"",""1"",""977935""
""focus"",""1"",""978751""
""blur"",""1"",""980659""
""focus"",""1"",""1134253""
""fullscreenenter"",""1"",""1136978""
""fullscreenexit"",""2"",""1138455""
""blur"",""6"",""1173113""
""focus"",""7"",""1182546""
""blur"",""7"",""1183440""
""focus"",""7"",""1233143""
""blur"",""14"",""1299123""
""focus"",""14"",""1302543""
""blur"",""15"",""1307967""
""focus"",""15"",""1320097""
""blur"",""15"",""1328207""
""focus"",""16"",""1391067""
","""event"",""trial"",""time""
""blur"",""0"",""0""
""blur"",""0"",""0""
""blur"",""0"",""0""
""blur"",""0"",""0""
""blur"",""1"",""966637""
""blur"",""1"",""977935""
""blur"",""1"",""980659""
""blur"",""6"",""1173113""
""blur"",""7"",""1183440""
""blur"",""14"",""1299123""
""blur"",""15"",""1307967""
""blur"",""15"",""1328207""
","""event"",""trial"",""time""
""focus"",""0"",""0""
""focus"",""0"",""0""
""focus"",""0"",""0""
""focus"",""1"",""964750""
""focus"",""1"",""975905""
""focus"",""1"",""978751""
""focus"",""1"",""1134253""
""focus"",""7"",""1182546""
""focus"",""7"",""1233143""
""focus"",""14"",""1302543""
""focus"",""15"",""1320097""
""focus"",""16"",""1391067""
","""event"",""trial"",""time""
""fullscreenenter"",""1"",""1136978""
","""event"",""trial"",""time""
""fullscreenexit"",""2"",""1138455""
",,null,run_exp/static/images/task_images/barrel_text.jpg,null,,,,,,,,,,,,,,,,,,,,,,,,
decision_prac,39,1474752,0.0-14.0-2.0,"""event"",""trial"",""time""
""blur"",""0"",""0""
""focus"",""0"",""0""
""blur"",""0"",""0""
""focus"",""0"",""0""
""blur"",""0"",""0""
""focus"",""0"",""0""
""blur"",""0"",""0""
""focus"",""1"",""964750""
""blur"",""1"",""966637""
""focus"",""1"",""975905""
""blur"",""1"",""977935""
""focus"",""1"",""978751""
""blur"",""1"",""980659""
""focus"",""1"",""1134253""
""fullscreenenter"",""1"",""1136978""
""fullscreenexit"",""2"",""1138455""
""blur"",""6"",""1173113""
""focus"",""7"",""1182546""
""blur"",""7"",""1183440""
""focus"",""7"",""1233143""
""blur"",""14"",""1299123""
""focus"",""14"",""1302543""
""blur"",""15"",""1307967""
""focus"",""15"",""1320097""
""blur"",""15"",""1328207""
""focus"",""16"",""1391067""
","""event"",""trial"",""time""
""blur"",""0"",""0""
""blur"",""0"",""0""
""blur"",""0"",""0""
""blur"",""0"",""0""
""blur"",""1"",""966637""
""blur"",""1"",""977935""
""blur"",""1"",""980659""
""blur"",""6"",""1173113""
""blur"",""7"",""1183440""
""blur"",""14"",""1299123""
""blur"",""15"",""1307967""
""blur"",""15"",""1328207""
","""event"",""trial"",""time""
""focus"",""0"",""0""
""focus"",""0"",""0""
""focus"",""0"",""0""
""focus"",""1"",""964750""
""focus"",""1"",""975905""
""focus"",""1"",""978751""
""focus"",""1"",""1134253""
""focus"",""7"",""1182546""
""focus"",""7"",""1233143""
""focus"",""14"",""1302543""
""focus"",""15"",""1320097""
""focus"",""16"",""1391067""
","""event"",""trial"",""time""
""fullscreenenter"",""1"",""1136978""
","""event"",""trial"",""time""
""fullscreenexit"",""2"",""1138455""
",,789.4,run_exp/static/images/task_images/land.jpg,65,,,,,,,,,,,4,,,,,,,,,,,,,
dig_prac,40,1476755,0.0-15.0-0.0,"""event"",""trial"",""time""
""blur"",""0"",""0""
""focus"",""0"",""0""
""blur"",""0"",""0""
""focus"",""0"",""0""
""blur"",""0"",""0""
""focus"",""0"",""0""
""blur"",""0"",""0""
""focus"",""1"",""964750""
""blur"",""1"",""966637""
""focus"",""1"",""975905""
""blur"",""1"",""977935""
""focus"",""1"",""978751""
""blur"",""1"",""980659""
""focus"",""1"",""1134253""
""fullscreenenter"",""1"",""1136978""
""fullscreenexit"",""2"",""1138455""
""blur"",""6"",""1173113""
""focus"",""7"",""1182546""
""blur"",""7"",""1183440""
""focus"",""7"",""1233143""
""blur"",""14"",""1299123""
""focus"",""14"",""1302543""
""blur"",""15"",""1307967""
""focus"",""15"",""1320097""
""blur"",""15"",""1328207""
""focus"",""16"",""1391067""
","""event"",""trial"",""time""
""blur"",""0"",""0""
""blur"",""0"",""0""
""blur"",""0"",""0""
""blur"",""0"",""0""
""blur"",""1"",""966637""
""blur"",""1"",""977935""
""blur"",""1"",""980659""
""blur"",""6"",""1173113""
""blur"",""7"",""1183440""
""blur"",""14"",""1299123""
""blur"",""15"",""1307967""
""blur"",""15"",""1328207""
","""event"",""trial"",""time""
""focus"",""0"",""0""
""focus"",""0"",""0""
""focus"",""0"",""0""
""focus"",""1"",""964750""
""focus"",""1"",""975905""
""focus"",""1"",""978751""
""focus"",""1"",""1134253""
""focus"",""7"",""1182546""
""focus"",""7"",""1233143""
""focus"",""14"",""1302543""
""focus"",""15"",""1320097""
""focus"",""16"",""1391067""
","""event"",""trial"",""time""
""fullscreenenter"",""1"",""1136978""
","""event"",""trial"",""time""
""fullscreenexit"",""2"",""1138455""
",,,,,,,,,,,,"[{""stimulus"":""run_exp/static/images/task_images/dig.jpg"",""time"":0.10000002384185791},{""stimulus"":""run_exp/static/images/task_images/land.jpg"",""time"":668.3999999761581},{""stimulus"":""run_exp/static/images/task_images/dig.jpg"",""time"":1335.3999999761581}]",[],,,,,,,,,,,,,,,
harvest_prac,41,1477759,0.0-15.0-1.0,"""event"",""trial"",""time""
""blur"",""0"",""0""
""focus"",""0"",""0""
""blur"",""0"",""0""
""focus"",""0"",""0""
""blur"",""0"",""0""
""focus"",""0"",""0""
""blur"",""0"",""0""
""focus"",""1"",""964750""
""blur"",""1"",""966637""
""focus"",""1"",""975905""
""blur"",""1"",""977935""
""focus"",""1"",""978751""
""blur"",""1"",""980659""
""focus"",""1"",""1134253""
""fullscreenenter"",""1"",""1136978""
""fullscreenexit"",""2"",""1138455""
""blur"",""6"",""1173113""
""focus"",""7"",""1182546""
""blur"",""7"",""1183440""
""focus"",""7"",""1233143""
""blur"",""14"",""1299123""
""focus"",""14"",""1302543""
""blur"",""15"",""1307967""
""focus"",""15"",""1320097""
""blur"",""15"",""1328207""
""focus"",""16"",""1391067""
","""event"",""trial"",""time""
""blur"",""0"",""0""
""blur"",""0"",""0""
""blur"",""0"",""0""
""blur"",""0"",""0""
""blur"",""1"",""966637""
""blur"",""1"",""977935""
""blur"",""1"",""980659""
""blur"",""6"",""1173113""
""blur"",""7"",""1183440""
""blur"",""14"",""1299123""
""blur"",""15"",""1307967""
""blur"",""15"",""1328207""
","""event"",""trial"",""time""
""focus"",""0"",""0""
""focus"",""0"",""0""
""focus"",""0"",""0""
""focus"",""1"",""964750""
""focus"",""1"",""975905""
""focus"",""1"",""978751""
""focus"",""1"",""1134253""
""focus"",""7"",""1182546""
""focus"",""7"",""1233143""
""focus"",""14"",""1302543""
""focus"",""15"",""1320097""
""focus"",""16"",""1391067""
","""event"",""trial"",""time""
""fullscreenenter"",""1"",""1136978""
","""event"",""trial"",""time""
""fullscreenexit"",""2"",""1138455""
",,null,run_exp/static/images/task_images/barrel_text.jpg,null,,,,,,,,,,,,,,,,,,,,,,,,
decision_prac,42,1480762,0.0-15.0-2.0,"""event"",""trial"",""time""
""blur"",""0"",""0""
""focus"",""0"",""0""
""blur"",""0"",""0""
""focus"",""0"",""0""
""blur"",""0"",""0""
""focus"",""0"",""0""
""blur"",""0"",""0""
""focus"",""1"",""964750""
""blur"",""1"",""966637""
""focus"",""1"",""975905""
""blur"",""1"",""977935""
""focus"",""1"",""978751""
""blur"",""1"",""980659""
""focus"",""1"",""1134253""
""fullscreenenter"",""1"",""1136978""
""fullscreenexit"",""2"",""1138455""
""blur"",""6"",""1173113""
""focus"",""7"",""1182546""
""blur"",""7"",""1183440""
""focus"",""7"",""1233143""
""blur"",""14"",""1299123""
""focus"",""14"",""1302543""
""blur"",""15"",""1307967""
""focus"",""15"",""1320097""
""blur"",""15"",""1328207""
""focus"",""16"",""1391067""
","""event"",""trial"",""time""
""blur"",""0"",""0""
""blur"",""0"",""0""
""blur"",""0"",""0""
""blur"",""0"",""0""
""blur"",""1"",""966637""
""blur"",""1"",""977935""
""blur"",""1"",""980659""
""blur"",""6"",""1173113""
""blur"",""7"",""1183440""
""blur"",""14"",""1299123""
""blur"",""15"",""1307967""
""blur"",""15"",""1328207""
","""event"",""trial"",""time""
""focus"",""0"",""0""
""focus"",""0"",""0""
""focus"",""0"",""0""
""focus"",""1"",""964750""
""focus"",""1"",""975905""
""focus"",""1"",""978751""
""focus"",""1"",""1134253""
""focus"",""7"",""1182546""
""focus"",""7"",""1233143""
""focus"",""14"",""1302543""
""focus"",""15"",""1320097""
""focus"",""16"",""1391067""
","""event"",""trial"",""time""
""fullscreenenter"",""1"",""1136978""
","""event"",""trial"",""time""
""fullscreenexit"",""2"",""1138455""
",,null,run_exp/static/images/task_images/land.jpg,null,,,,,,,,,,,,1,,,,,,,,,,,,
quiz_instruc,43,1482320,0.0-16.0-0.0,"""event"",""trial"",""time""
""blur"",""0"",""0""
""focus"",""0"",""0""
""blur"",""0"",""0""
""focus"",""0"",""0""
""blur"",""0"",""0""
""focus"",""0"",""0""
""blur"",""0"",""0""
""focus"",""1"",""964750""
""blur"",""1"",""966637""
""focus"",""1"",""975905""
""blur"",""1"",""977935""
""focus"",""1"",""978751""
""blur"",""1"",""980659""
""focus"",""1"",""1134253""
""fullscreenenter"",""1"",""1136978""
""fullscreenexit"",""2"",""1138455""
""blur"",""6"",""1173113""
""focus"",""7"",""1182546""
""blur"",""7"",""1183440""
""focus"",""7"",""1233143""
""blur"",""14"",""1299123""
""focus"",""14"",""1302543""
""blur"",""15"",""1307967""
""focus"",""15"",""1320097""
""blur"",""15"",""1328207""
""focus"",""16"",""1391067""
""blur"",""44"",""1500625""
""focus"",""44"",""1522948""
","""event"",""trial"",""time""
""blur"",""0"",""0""
""blur"",""0"",""0""
""blur"",""0"",""0""
""blur"",""0"",""0""
""blur"",""1"",""966637""
""blur"",""1"",""977935""
""blur"",""1"",""980659""
""blur"",""6"",""1173113""
""blur"",""7"",""1183440""
""blur"",""14"",""1299123""
""blur"",""15"",""1307967""
""blur"",""15"",""1328207""
""blur"",""44"",""1500625""
","""event"",""trial"",""time""
""focus"",""0"",""0""
""focus"",""0"",""0""
""focus"",""0"",""0""
""focus"",""1"",""964750""
""focus"",""1"",""975905""
""focus"",""1"",""978751""
""focus"",""1"",""1134253""
""focus"",""7"",""1182546""
""focus"",""7"",""1233143""
""focus"",""14"",""1302543""
""focus"",""15"",""1320097""
""focus"",""16"",""1391067""
""focus"",""44"",""1522948""
","""event"",""trial"",""time""
""fullscreenenter"",""1"",""1136978""
","""event"",""trial"",""time""
""fullscreenexit"",""2"",""1138455""
",,1554,run_exp/static/audio/clip_10_quiz.m4a,,,,,,,0,,,,,,,,,,,,,,,,,,
instruc_repeat,44,1525080,0.0-16.0-1.0,"""event"",""trial"",""time""
""blur"",""0"",""0""
""focus"",""0"",""0""
""blur"",""0"",""0""
""focus"",""0"",""0""
""blur"",""0"",""0""
""focus"",""0"",""0""
""blur"",""0"",""0""
""focus"",""1"",""964750""
""blur"",""1"",""966637""
""focus"",""1"",""975905""
""blur"",""1"",""977935""
""focus"",""1"",""978751""
""blur"",""1"",""980659""
""focus"",""1"",""1134253""
""fullscreenenter"",""1"",""1136978""
""fullscreenexit"",""2"",""1138455""
""blur"",""6"",""1173113""
""focus"",""7"",""1182546""
""blur"",""7"",""1183440""
""focus"",""7"",""1233143""
""blur"",""14"",""1299123""
""focus"",""14"",""1302543""
""blur"",""15"",""1307967""
""focus"",""15"",""1320097""
""blur"",""15"",""1328207""
""focus"",""16"",""1391067""
""blur"",""44"",""1500625""
""focus"",""44"",""1522948""
","""event"",""trial"",""time""
""blur"",""0"",""0""
""blur"",""0"",""0""
""blur"",""0"",""0""
""blur"",""0"",""0""
""blur"",""1"",""966637""
""blur"",""1"",""977935""
""blur"",""1"",""980659""
""blur"",""6"",""1173113""
""blur"",""7"",""1183440""
""blur"",""14"",""1299123""
""blur"",""15"",""1307967""
""blur"",""15"",""1328207""
""blur"",""44"",""1500625""
","""event"",""trial"",""time""
""focus"",""0"",""0""
""focus"",""0"",""0""
""focus"",""0"",""0""
""focus"",""1"",""964750""
""focus"",""1"",""975905""
""focus"",""1"",""978751""
""focus"",""1"",""1134253""
""focus"",""7"",""1182546""
""focus"",""7"",""1233143""
""focus"",""14"",""1302543""
""focus"",""15"",""1320097""
""focus"",""16"",""1391067""
""focus"",""44"",""1522948""
","""event"",""trial"",""time""
""fullscreenenter"",""1"",""1136978""
","""event"",""trial"",""time""
""fullscreenexit"",""2"",""1138455""
",,null,"<p> Are you ready to play a practice game? </p> <p>In this practice game, you'll be digging up barrels of gems. But, in the real game, you'll be digging up the gems themselves. </p>",null,"<p>In this game, your goal is to collect as many gems as you can. That’s how you will win bonus money. </p> <p>The entire game will last 20 minutes no matter how many gems you collect or how many planets you visit. </p><p>To stay on a planet and dig again, press the letter A on your keyboard. To leave for a new planet, press the letter L.</p><p>The more you dig on a planet, the fewer gems you’ll get with each dig which is why you might consider leaving for a new planet. </p><p>When you arrive at a new planet, you’ll be greeted by an alien. What the alien looks like does not tell you anything about how much treasure is on the planet. </p>",,,,,,,,,,,,,,,,,,,,,,,
instruc_repeat_continue,45,1526674,0.0-16.0-2.0,"""event"",""trial"",""time""
""blur"",""0"",""0""
""focus"",""0"",""0""
""blur"",""0"",""0""
""focus"",""0"",""0""
""blur"",""0"",""0""
""focus"",""0"",""0""
""blur"",""0"",""0""
""focus"",""1"",""964750""
""blur"",""1"",""966637""
""focus"",""1"",""975905""
""blur"",""1"",""977935""
""focus"",""1"",""978751""
""blur"",""1"",""980659""
""focus"",""1"",""1134253""
""fullscreenenter"",""1"",""1136978""
""fullscreenexit"",""2"",""1138455""
""blur"",""6"",""1173113""
""focus"",""7"",""1182546""
""blur"",""7"",""1183440""
""focus"",""7"",""1233143""
""blur"",""14"",""1299123""
""focus"",""14"",""1302543""
""blur"",""15"",""1307967""
""focus"",""15"",""1320097""
""blur"",""15"",""1328207""
""focus"",""16"",""1391067""
""blur"",""44"",""1500625""
""focus"",""44"",""1522948""
","""event"",""trial"",""time""
""blur"",""0"",""0""
""blur"",""0"",""0""
""blur"",""0"",""0""
""blur"",""0"",""0""
""blur"",""1"",""966637""
""blur"",""1"",""977935""
""blur"",""1"",""980659""
""blur"",""6"",""1173113""
""blur"",""7"",""1183440""
""blur"",""14"",""1299123""
""blur"",""15"",""1307967""
""blur"",""15"",""1328207""
""blur"",""44"",""1500625""
","""event"",""trial"",""time""
""focus"",""0"",""0""
""focus"",""0"",""0""
""focus"",""0"",""0""
""focus"",""1"",""964750""
""focus"",""1"",""975905""
""focus"",""1"",""978751""
""focus"",""1"",""1134253""
""focus"",""7"",""1182546""
""focus"",""7"",""1233143""
""focus"",""14"",""1302543""
""focus"",""15"",""1320097""
""focus"",""16"",""1391067""
""focus"",""44"",""1522948""
","""event"",""trial"",""time""
""fullscreenenter"",""1"",""1136978""
","""event"",""trial"",""time""
""fullscreenexit"",""2"",""1138455""
",,1592,"<p> Are you ready to play a practice game? </p> <p>In this practice game, you'll be digging up barrels of gems. But, in the real game, you'll be digging up the gems themselves. </p>",,,,,,,0,,,,,,,,,,,,,,,,,,
quiz_q_1_ask,46,1535825,0.0-16.0-3.0,"""event"",""trial"",""time""
""blur"",""0"",""0""
""focus"",""0"",""0""
""blur"",""0"",""0""
""focus"",""0"",""0""
""blur"",""0"",""0""
""focus"",""0"",""0""
""blur"",""0"",""0""
""focus"",""1"",""964750""
""blur"",""1"",""966637""
""focus"",""1"",""975905""
""blur"",""1"",""977935""
""focus"",""1"",""978751""
""blur"",""1"",""980659""
""focus"",""1"",""1134253""
""fullscreenenter"",""1"",""1136978""
""fullscreenexit"",""2"",""1138455""
""blur"",""6"",""1173113""
""focus"",""7"",""1182546""
""blur"",""7"",""1183440""
""focus"",""7"",""1233143""
""blur"",""14"",""1299123""
""focus"",""14"",""1302543""
""blur"",""15"",""1307967""
""focus"",""15"",""1320097""
""blur"",""15"",""1328207""
""focus"",""16"",""1391067""
""blur"",""44"",""1500625""
""focus"",""44"",""1522948""
","""event"",""trial"",""time""
""blur"",""0"",""0""
""blur"",""0"",""0""
""blur"",""0"",""0""
""blur"",""0"",""0""
""blur"",""1"",""966637""
""blur"",""1"",""977935""
""blur"",""1"",""980659""
""blur"",""6"",""1173113""
""blur"",""7"",""1183440""
""blur"",""14"",""1299123""
""blur"",""15"",""1307967""
""blur"",""15"",""1328207""
""blur"",""44"",""1500625""
","""event"",""trial"",""time""
""focus"",""0"",""0""
""focus"",""0"",""0""
""focus"",""0"",""0""
""focus"",""1"",""964750""
""focus"",""1"",""975905""
""focus"",""1"",""978751""
""focus"",""1"",""1134253""
""focus"",""7"",""1182546""
""focus"",""7"",""1233143""
""focus"",""14"",""1302543""
""focus"",""15"",""1320097""
""focus"",""16"",""1391067""
""focus"",""44"",""1522948""
","""event"",""trial"",""time""
""fullscreenenter"",""1"",""1136978""
","""event"",""trial"",""time""
""fullscreenexit"",""2"",""1138455""
",,9149.4,run_exp/static/audio/clip_11_q1_ask.m4a,,,,,,,2,,,,,,,,,,,,,,,,,,
quiz_q_1_fb_correct,47,1539661,0.0-17.0-0.0,"""event"",""trial"",""time""
""blur"",""0"",""0""
""focus"",""0"",""0""
""blur"",""0"",""0""
""focus"",""0"",""0""
""blur"",""0"",""0""
""focus"",""0"",""0""
""blur"",""0"",""0""
""focus"",""1"",""964750""
""blur"",""1"",""966637""
""focus"",""1"",""975905""
""blur"",""1"",""977935""
""focus"",""1"",""978751""
""blur"",""1"",""980659""
""focus"",""1"",""1134253""
""fullscreenenter"",""1"",""1136978""
""fullscreenexit"",""2"",""1138455""
""blur"",""6"",""1173113""
""focus"",""7"",""1182546""
""blur"",""7"",""1183440""
""focus"",""7"",""1233143""
""blur"",""14"",""1299123""
""focus"",""14"",""1302543""
""blur"",""15"",""1307967""
""focus"",""15"",""1320097""
""blur"",""15"",""1328207""
""focus"",""16"",""1391067""
""blur"",""44"",""1500625""
""focus"",""44"",""1522948""
","""event"",""trial"",""time""
""blur"",""0"",""0""
""blur"",""0"",""0""
""blur"",""0"",""0""
""blur"",""0"",""0""
""blur"",""1"",""966637""
""blur"",""1"",""977935""
""blur"",""1"",""980659""
""blur"",""6"",""1173113""
""blur"",""7"",""1183440""
""blur"",""14"",""1299123""
""blur"",""15"",""1307967""
""blur"",""15"",""1328207""
""blur"",""44"",""1500625""
","""event"",""trial"",""time""
""focus"",""0"",""0""
""focus"",""0"",""0""
""focus"",""0"",""0""
""focus"",""1"",""964750""
""focus"",""1"",""975905""
""focus"",""1"",""978751""
""focus"",""1"",""1134253""
""focus"",""7"",""1182546""
""focus"",""7"",""1233143""
""focus"",""14"",""1302543""
""focus"",""15"",""1320097""
""focus"",""16"",""1391067""
""focus"",""44"",""1522948""
","""event"",""trial"",""time""
""fullscreenenter"",""1"",""1136978""
","""event"",""trial"",""time""
""fullscreenexit"",""2"",""1138455""
",,null,run_exp/static/audio/clip_12_q1_correct.m4a,null,<p>That’s correct. You win extra money by collecting more gems.</p>,,,,,,,,,,,,,,,,,,,,,,,
quiz_q_2_ask,48,1542019,0.0-17.0-1.0,"""event"",""trial"",""time""
""blur"",""0"",""0""
""focus"",""0"",""0""
""blur"",""0"",""0""
""focus"",""0"",""0""
""blur"",""0"",""0""
""focus"",""0"",""0""
""blur"",""0"",""0""
""focus"",""1"",""964750""
""blur"",""1"",""966637""
""focus"",""1"",""975905""
""blur"",""1"",""977935""
""focus"",""1"",""978751""
""blur"",""1"",""980659""
""focus"",""1"",""1134253""
""fullscreenenter"",""1"",""1136978""
""fullscreenexit"",""2"",""1138455""
""blur"",""6"",""1173113""
""focus"",""7"",""1182546""
""blur"",""7"",""1183440""
""focus"",""7"",""1233143""
""blur"",""14"",""1299123""
""focus"",""14"",""1302543""
""blur"",""15"",""1307967""
""focus"",""15"",""1320097""
""blur"",""15"",""1328207""
""focus"",""16"",""1391067""
""blur"",""44"",""1500625""
""focus"",""44"",""1522948""
","""event"",""trial"",""time""
""blur"",""0"",""0""
""blur"",""0"",""0""
""blur"",""0"",""0""
""blur"",""0"",""0""
""blur"",""1"",""966637""
""blur"",""1"",""977935""
""blur"",""1"",""980659""
""blur"",""6"",""1173113""
""blur"",""7"",""1183440""
""blur"",""14"",""1299123""
""blur"",""15"",""1307967""
""blur"",""15"",""1328207""
""blur"",""44"",""1500625""
","""event"",""trial"",""time""
""focus"",""0"",""0""
""focus"",""0"",""0""
""focus"",""0"",""0""
""focus"",""1"",""964750""
""focus"",""1"",""975905""
""focus"",""1"",""978751""
""focus"",""1"",""1134253""
""focus"",""7"",""1182546""
""focus"",""7"",""1233143""
""focus"",""14"",""1302543""
""focus"",""15"",""1320097""
""focus"",""16"",""1391067""
""focus"",""44"",""1522948""
","""event"",""trial"",""time""
""fullscreenenter"",""1"",""1136978""
","""event"",""trial"",""time""
""fullscreenexit"",""2"",""1138455""
",,2355.1,run_exp/static/audio/clip_14_q2_ask.m4a,,,,,,,1,,,,,,,,,,,,,,,,,,
quiz_q_2_fb_correct,49,1546020,0.0-18.0-0.0,"""event"",""trial"",""time""
""blur"",""0"",""0""
""focus"",""0"",""0""
""blur"",""0"",""0""
""focus"",""0"",""0""
""blur"",""0"",""0""
""focus"",""0"",""0""
""blur"",""0"",""0""
""focus"",""1"",""964750""
""blur"",""1"",""966637""
""focus"",""1"",""975905""
""blur"",""1"",""977935""
""focus"",""1"",""978751""
""blur"",""1"",""980659""
""focus"",""1"",""1134253""
""fullscreenenter"",""1"",""1136978""
""fullscreenexit"",""2"",""1138455""
""blur"",""6"",""1173113""
""focus"",""7"",""1182546""
""blur"",""7"",""1183440""
""focus"",""7"",""1233143""
""blur"",""14"",""1299123""
""focus"",""14"",""1302543""
""blur"",""15"",""1307967""
""focus"",""15"",""1320097""
""blur"",""15"",""1328207""
""focus"",""16"",""1391067""
""blur"",""44"",""1500625""
""focus"",""44"",""1522948""
","""event"",""trial"",""time""
""blur"",""0"",""0""
""blur"",""0"",""0""
""blur"",""0"",""0""
""blur"",""0"",""0""
""blur"",""1"",""966637""
""blur"",""1"",""977935""
""blur"",""1"",""980659""
""blur"",""6"",""1173113""
""blur"",""7"",""1183440""
""blur"",""14"",""1299123""
""blur"",""15"",""1307967""
""blur"",""15"",""1328207""
""blur"",""44"",""1500625""
","""event"",""trial"",""time""
""focus"",""0"",""0""
""focus"",""0"",""0""
""focus"",""0"",""0""
""focus"",""1"",""964750""
""focus"",""1"",""975905""
""focus"",""1"",""978751""
""focus"",""1"",""1134253""
""focus"",""7"",""1182546""
""focus"",""7"",""1233143""
""focus"",""14"",""1302543""
""focus"",""15"",""1320097""
""focus"",""16"",""1391067""
""focus"",""44"",""1522948""
","""event"",""trial"",""time""
""fullscreenenter"",""1"",""1136978""
","""event"",""trial"",""time""
""fullscreenexit"",""2"",""1138455""
",,null,run_exp/static/audio/clip_15_q2_correct.m4a,null,<p>That’s correct. The experiment is 20 minutes no matter what.</p>,,,,,,,,,,,,,,,,,,,,,,,
quiz_q_3_ask,50,1548059,0.0-18.0-1.0,"""event"",""trial"",""time""
""blur"",""0"",""0""
""focus"",""0"",""0""
""blur"",""0"",""0""
""focus"",""0"",""0""
""blur"",""0"",""0""
""focus"",""0"",""0""
""blur"",""0"",""0""
""focus"",""1"",""964750""
""blur"",""1"",""966637""
""focus"",""1"",""975905""
""blur"",""1"",""977935""
""focus"",""1"",""978751""
""blur"",""1"",""980659""
""focus"",""1"",""1134253""
""fullscreenenter"",""1"",""1136978""
""fullscreenexit"",""2"",""1138455""
""blur"",""6"",""1173113""
""focus"",""7"",""1182546""
""blur"",""7"",""1183440""
""focus"",""7"",""1233143""
""blur"",""14"",""1299123""
""focus"",""14"",""1302543""
""blur"",""15"",""1307967""
""focus"",""15"",""1320097""
""blur"",""15"",""1328207""
""focus"",""16"",""1391067""
""blur"",""44"",""1500625""
""focus"",""44"",""1522948""
","""event"",""trial"",""time""
""blur"",""0"",""0""
""blur"",""0"",""0""
""blur"",""0"",""0""
""blur"",""0"",""0""
""blur"",""1"",""966637""
""blur"",""1"",""977935""
""blur"",""1"",""980659""
""blur"",""6"",""1173113""
""blur"",""7"",""1183440""
""blur"",""14"",""1299123""
""blur"",""15"",""1307967""
""blur"",""15"",""1328207""
""blur"",""44"",""1500625""
","""event"",""trial"",""time""
""focus"",""0"",""0""
""focus"",""0"",""0""
""focus"",""0"",""0""
""focus"",""1"",""964750""
""focus"",""1"",""975905""
""focus"",""1"",""978751""
""focus"",""1"",""1134253""
""focus"",""7"",""1182546""
""focus"",""7"",""1233143""
""focus"",""14"",""1302543""
""focus"",""15"",""1320097""
""focus"",""16"",""1391067""
""focus"",""44"",""1522948""
","""event"",""trial"",""time""
""fullscreenenter"",""1"",""1136978""
","""event"",""trial"",""time""
""fullscreenexit"",""2"",""1138455""
",,2036.9,run_exp/static/audio/clip_17_q3_ask.m4a,,,,,,,0,,,,,,,,,,,,,,,,,,
quiz_q_3_fb_incorrect,51,1552141,0.0-19.0-0.0,"""event"",""trial"",""time""
""blur"",""0"",""0""
""focus"",""0"",""0""
""blur"",""0"",""0""
""focus"",""0"",""0""
""blur"",""0"",""0""
""focus"",""0"",""0""
""blur"",""0"",""0""
""focus"",""1"",""964750""
""blur"",""1"",""966637""
""focus"",""1"",""975905""
""blur"",""1"",""977935""
""focus"",""1"",""978751""
""blur"",""1"",""980659""
""focus"",""1"",""1134253""
""fullscreenenter"",""1"",""1136978""
""fullscreenexit"",""2"",""1138455""
""blur"",""6"",""1173113""
""focus"",""7"",""1182546""
""blur"",""7"",""1183440""
""focus"",""7"",""1233143""
""blur"",""14"",""1299123""
""focus"",""14"",""1302543""
""blur"",""15"",""1307967""
""focus"",""15"",""1320097""
""blur"",""15"",""1328207""
""focus"",""16"",""1391067""
""blur"",""44"",""1500625""
""focus"",""44"",""1522948""
","""event"",""trial"",""time""
""blur"",""0"",""0""
""blur"",""0"",""0""
""blur"",""0"",""0""
""blur"",""0"",""0""
""blur"",""1"",""966637""
""blur"",""1"",""977935""
""blur"",""1"",""980659""
""blur"",""6"",""1173113""
""blur"",""7"",""1183440""
""blur"",""14"",""1299123""
""blur"",""15"",""1307967""
""blur"",""15"",""1328207""
""blur"",""44"",""1500625""
","""event"",""trial"",""time""
""focus"",""0"",""0""
""focus"",""0"",""0""
""focus"",""0"",""0""
""focus"",""1"",""964750""
""focus"",""1"",""975905""
""focus"",""1"",""978751""
""focus"",""1"",""1134253""
""focus"",""7"",""1182546""
""focus"",""7"",""1233143""
""focus"",""14"",""1302543""
""focus"",""15"",""1320097""
""focus"",""16"",""1391067""
""focus"",""44"",""1522948""
","""event"",""trial"",""time""
""fullscreenenter"",""1"",""1136978""
","""event"",""trial"",""time""
""fullscreenexit"",""2"",""1138455""
",,null,run_exp/static/audio/clip_19_q3_incorrect.m4a,null,<p>That’s incorrect.  You press the letter L to travel to a new planet.</p>,,,,,,,,,,,,,,,,,,,,,,,
quiz_q_4_ask,52,1554945,0.0-19.0-1.0,"""event"",""trial"",""time""
""blur"",""0"",""0""
""focus"",""0"",""0""
""blur"",""0"",""0""
""focus"",""0"",""0""
""blur"",""0"",""0""
""focus"",""0"",""0""
""blur"",""0"",""0""
""focus"",""1"",""964750""
""blur"",""1"",""966637""
""focus"",""1"",""975905""
""blur"",""1"",""977935""
""focus"",""1"",""978751""
""blur"",""1"",""980659""
""focus"",""1"",""1134253""
""fullscreenenter"",""1"",""1136978""
""fullscreenexit"",""2"",""1138455""
""blur"",""6"",""1173113""
""focus"",""7"",""1182546""
""blur"",""7"",""1183440""
""focus"",""7"",""1233143""
""blur"",""14"",""1299123""
""focus"",""14"",""1302543""
""blur"",""15"",""1307967""
""focus"",""15"",""1320097""
""blur"",""15"",""1328207""
""focus"",""16"",""1391067""
""blur"",""44"",""1500625""
""focus"",""44"",""1522948""
","""event"",""trial"",""time""
""blur"",""0"",""0""
""blur"",""0"",""0""
""blur"",""0"",""0""
""blur"",""0"",""0""
""blur"",""1"",""966637""
""blur"",""1"",""977935""
""blur"",""1"",""980659""
""blur"",""6"",""1173113""
""blur"",""7"",""1183440""
""blur"",""14"",""1299123""
""blur"",""15"",""1307967""
""blur"",""15"",""1328207""
""blur"",""44"",""1500625""
","""event"",""trial"",""time""
""focus"",""0"",""0""
""focus"",""0"",""0""
""focus"",""0"",""0""
""focus"",""1"",""964750""
""focus"",""1"",""975905""
""focus"",""1"",""978751""
""focus"",""1"",""1134253""
""focus"",""7"",""1182546""
""focus"",""7"",""1233143""
""focus"",""14"",""1302543""
""focus"",""15"",""1320097""
""focus"",""16"",""1391067""
""focus"",""44"",""1522948""
","""event"",""trial"",""time""
""fullscreenenter"",""1"",""1136978""
","""event"",""trial"",""time""
""fullscreenexit"",""2"",""1138455""
",,2801,run_exp/static/audio/clip_20_q4_ask.m4a,,,,,,,0,,,,,,,,,,,,,,,,,,
quiz_q_4_fb_correct,53,1560281,0.0-20.0-0.0,"""event"",""trial"",""time""
""blur"",""0"",""0""
""focus"",""0"",""0""
""blur"",""0"",""0""
""focus"",""0"",""0""
""blur"",""0"",""0""
""focus"",""0"",""0""
""blur"",""0"",""0""
""focus"",""1"",""964750""
""blur"",""1"",""966637""
""focus"",""1"",""975905""
""blur"",""1"",""977935""
""focus"",""1"",""978751""
""blur"",""1"",""980659""
""focus"",""1"",""1134253""
""fullscreenenter"",""1"",""1136978""
""fullscreenexit"",""2"",""1138455""
""blur"",""6"",""1173113""
""focus"",""7"",""1182546""
""blur"",""7"",""1183440""
""focus"",""7"",""1233143""
""blur"",""14"",""1299123""
""focus"",""14"",""1302543""
""blur"",""15"",""1307967""
""focus"",""15"",""1320097""
""blur"",""15"",""1328207""
""focus"",""16"",""1391067""
""blur"",""44"",""1500625""
""focus"",""44"",""1522948""
","""event"",""trial"",""time""
""blur"",""0"",""0""
""blur"",""0"",""0""
""blur"",""0"",""0""
""blur"",""0"",""0""
""blur"",""1"",""966637""
""blur"",""1"",""977935""
""blur"",""1"",""980659""
""blur"",""6"",""1173113""
""blur"",""7"",""1183440""
""blur"",""14"",""1299123""
""blur"",""15"",""1307967""
""blur"",""15"",""1328207""
""blur"",""44"",""1500625""
","""event"",""trial"",""time""
""focus"",""0"",""0""
""focus"",""0"",""0""
""focus"",""0"",""0""
""focus"",""1"",""964750""
""focus"",""1"",""975905""
""focus"",""1"",""978751""
""focus"",""1"",""1134253""
""focus"",""7"",""1182546""
""focus"",""7"",""1233143""
""focus"",""14"",""1302543""
""focus"",""15"",""1320097""
""focus"",""16"",""1391067""
""focus"",""44"",""1522948""
","""event"",""trial"",""time""
""fullscreenenter"",""1"",""1136978""
","""event"",""trial"",""time""
""fullscreenexit"",""2"",""1138455""
",,null,run_exp/static/audio/clip_21_q4_correct.m4a,null,<p> That’s correct. The more you dig on a planet the fewer gems you’ll get with each dig. </p>,,,,,,,,,,,,,,,,,,,,,,,
quiz_q_5_ask,54,1562404,0.0-20.0-1.0,"""event"",""trial"",""time""
""blur"",""0"",""0""
""focus"",""0"",""0""
""blur"",""0"",""0""
""focus"",""0"",""0""
""blur"",""0"",""0""
""focus"",""0"",""0""
""blur"",""0"",""0""
""focus"",""1"",""964750""
""blur"",""1"",""966637""
""focus"",""1"",""975905""
""blur"",""1"",""977935""
""focus"",""1"",""978751""
""blur"",""1"",""980659""
""focus"",""1"",""1134253""
""fullscreenenter"",""1"",""1136978""
""fullscreenexit"",""2"",""1138455""
""blur"",""6"",""1173113""
""focus"",""7"",""1182546""
""blur"",""7"",""1183440""
""focus"",""7"",""1233143""
""blur"",""14"",""1299123""
""focus"",""14"",""1302543""
""blur"",""15"",""1307967""
""focus"",""15"",""1320097""
""blur"",""15"",""1328207""
""focus"",""16"",""1391067""
""blur"",""44"",""1500625""
""focus"",""44"",""1522948""
","""event"",""trial"",""time""
""blur"",""0"",""0""
""blur"",""0"",""0""
""blur"",""0"",""0""
""blur"",""0"",""0""
""blur"",""1"",""966637""
""blur"",""1"",""977935""
""blur"",""1"",""980659""
""blur"",""6"",""1173113""
""blur"",""7"",""1183440""
""blur"",""14"",""1299123""
""blur"",""15"",""1307967""
""blur"",""15"",""1328207""
""blur"",""44"",""1500625""
","""event"",""trial"",""time""
""focus"",""0"",""0""
""focus"",""0"",""0""
""focus"",""0"",""0""
""focus"",""1"",""964750""
""focus"",""1"",""975905""
""focus"",""1"",""978751""
""focus"",""1"",""1134253""
""focus"",""7"",""1182546""
""focus"",""7"",""1233143""
""focus"",""14"",""1302543""
""focus"",""15"",""1320097""
""focus"",""16"",""1391067""
""focus"",""44"",""1522948""
","""event"",""trial"",""time""
""fullscreenenter"",""1"",""1136978""
","""event"",""trial"",""time""
""fullscreenexit"",""2"",""1138455""
",,2121,run_exp/static/audio/clip_23_q5_ask.m4a,,,,,,,1,,,,,,,,,,,,,,,,,,
quiz_q_5_fb_correct,55,1567400,0.0-21.0-0.0,"""event"",""trial"",""time""
""blur"",""0"",""0""
