trial_type,trial_index,time_elapsed,internal_node_id,interactions,blur_events,focus_events,fullscreenenter_events,fullscreenexit_events,success,rt,stimulus,key_press,prompt,subject_id,participant_id,age,gender,button_pressed,next_reward,animation_sequence,responses,planet,curr_prac_trial,n_prac_rounds,alien,aliens,reward_received,decay_rate_actual,decay_rate_exp,time_in_block,block_num,prt,last_trial_on_planet,button_html,bonus,num_failures
pavlovia,0,4,0.0-0.0,"""event"",""trial"",""time""
""fullscreenenter"",""1"",""3110""
","
","
","""event"",""trial"",""time""
""fullscreenenter"",""1"",""3110""
","
",,,,,,,,,,,,,,,,,,,,,,,,,,,,
fullscreen,1,4098,0.0-1.0,"""event"",""trial"",""time""
""fullscreenenter"",""1"",""3110""
","
","
","""event"",""trial"",""time""
""fullscreenenter"",""1"",""3110""
","
",TRUE,,,,,,,,,,,,,,,,,,,,,,,,,,,
instruc_welcome,2,13841,0.0-2.0,"""event"",""trial"",""time""
""fullscreenenter"",""1"",""3110""
","
","
","""event"",""trial"",""time""
""fullscreenenter"",""1"",""3110""
","
",,null,run_exp/static/audio/clip_1_welcome.m4a,null,"<p>Howdy! In this experiment, you’ll be an explorer traveling through space to collect space treasure.</p><p>Your mission is to collect as much treasure as possible.</p><br><br><p><img src='run_exp/static/images/task_images/opening_img-01.jpg' height='300' width='auto'></p>",7941,3956,19.93,Male,,,,,,,,,,,,,,,,,,,
audio-keyboard-response,3,30439,0.0-3.0,"""event"",""trial"",""time""
""fullscreenenter"",""1"",""3110""
","
","
","""event"",""trial"",""time""
""fullscreenenter"",""1"",""3110""
","
",,null,run_exp/static/audio/clip_2_move.m4a,null,,,,,,,,,,,,,,,,,,,,,,,,
welcome_dec,4,35616,0.0-4.0,"""event"",""trial"",""time""
""fullscreenenter"",""1"",""3110""
","
","
","""event"",""trial"",""time""
""fullscreenenter"",""1"",""3110""
","
",,5173,"<p>Howdy! In this experiment, you’ll be an explorer traveling through space to collect space treasure.</p><p>Your mission is to collect as much treasure as possible.</p><br><br><p><img src='run_exp/static/images/task_images/opening_img-01.jpg' height='300' width='auto'></p>",,,,,,,0,,,,,,,,,,,,,,,,,,
html-keyboard-response,5,36680,0.0-5.0,"""event"",""trial"",""time""
""fullscreenenter"",""1"",""3110""
","
","
","""event"",""trial"",""time""
""fullscreenenter"",""1"",""3110""
","
",,1063,"<p>Howdy! In this experiment, you’ll be an explorer traveling through space to collect space treasure.</p><p>Your mission is to collect as much treasure as possible.</p><br><br><p><img src='run_exp/static/images/task_images/opening_img-01.jpg' height='300' width='auto'></p><button class=""jspsych-html-btn-chosen""><img src=""run_exp/static/images/task_images/planet-01.jpg"" height=""50""></button><button class=""jspsych-html-btn-unchosen""><img src=""run_exp/static/images/task_images/planet-02.jpg"" height=""50""></button><p><b>[press the space bar to lock in your answer]<b><br></p>",32,,,,,,,,,,,,,,,,,,,,,,,,
instruc_welcome,6,46419,0.0-6.0-0.0,"""event"",""trial"",""time""
""fullscreenenter"",""1"",""3110""
","
","
","""event"",""trial"",""time""
""fullscreenenter"",""1"",""3110""
","
",,null,run_exp/static/audio/clip_1_welcome.m4a,null,"<p>Howdy! In this experiment, you’ll be an explorer traveling through space to collect space treasure.</p><p>Your mission is to collect as much treasure as possible.</p><br><br><p><img src='run_exp/static/images/task_images/opening_img-01.jpg' height='300' width='auto'></p>",7941,3956,19,Male,,,,,,,,,,,,,,,,,,,
audio-keyboard-response,7,63000,0.0-6.0-1.0,"""event"",""trial"",""time""
""fullscreenenter"",""1"",""3110""
","
","
","""event"",""trial"",""time""
""fullscreenenter"",""1"",""3110""
","
",,null,run_exp/static/audio/clip_2_move.m4a,null,,,,,,,,,,,,,,,,,,,,,,,,
welcome_dec,8,64559,0.0-6.0-2.0,"""event"",""trial"",""time""
""fullscreenenter"",""1"",""3110""
","
","
","""event"",""trial"",""time""
""fullscreenenter"",""1"",""3110""
","
",,1556,"<p>Howdy! In this experiment, you’ll be an explorer traveling through space to collect space treasure.</p><p>Your mission is to collect as much treasure as possible.</p><br><br><p><img src='run_exp/static/images/task_images/opening_img-01.jpg' height='300' width='auto'></p>",,,,,,,1,,,,,,,,,,,,,,,,,,
html-keyboard-response,9,64864,0.0-6.0-3.0,"""event"",""trial"",""time""
""fullscreenenter"",""1"",""3110""
","
","
","""event"",""trial"",""time""
""fullscreenenter"",""1"",""3110""
","
",,303,"<p>Howdy! In this experiment, you’ll be an explorer traveling through space to collect space treasure.</p><p>Your mission is to collect as much treasure as possible.</p><br><br><p><img src='run_exp/static/images/task_images/opening_img-01.jpg' height='300' width='auto'></p><button class=""jspsych-html-btn-unchosen""><img src=""run_exp/static/images/task_images/planet-01.jpg"" height=""50""></button><button class=""jspsych-html-btn-chosen""><img src=""run_exp/static/images/task_images/planet-02.jpg"" height=""50""></button><p><b>[press the space bar to lock in your answer]<b><br></p>",32,,,,,,,,,,,,,,,,,,,,,,,,
instruc_goal,10,74918,0.0-7.0-0.0,"""event"",""trial"",""time""
""fullscreenenter"",""1"",""3110""
","
","
","""event"",""trial"",""time""
""fullscreenenter"",""1"",""3110""
","
",,null,run_exp/static/audio/clip_3_goal.m4a,null,"<p> As a space explorer, you’ll visit different planets to dig for space treasure, these pink gems.</p> <p> The more treasure you dig up, the more bonus money you’ll win! </p><br><br><p><img src='run_exp/static/images/task_images/pink_gem.jpg' height='300' width='auto'></p>",,,,,,,,,,,,,,,,,,,,,,,
instruc_goal,11,77320,0.0-7.0-1.0,"""event"",""trial"",""time""
""fullscreenenter"",""1"",""3110""
","
","
","""event"",""trial"",""time""
""fullscreenenter"",""1"",""3110""
","
",,2402,"<p> As a space explorer, you’ll visit different planets to dig for space treasure, these pink gems.</p> <p> The more treasure you dig up, the more bonus money you’ll win! </p><br><br><p><img src='run_exp/static/images/task_images/pink_gem.jpg' height='300' width='auto'></p>",,,,,,,1,,,,,,,,,,,,,,,,,,
html-keyboard-response,12,77466,0.0-7.0-2.0,"""event"",""trial"",""time""
""fullscreenenter"",""1"",""3110""
","
","
","""event"",""trial"",""time""
""fullscreenenter"",""1"",""3110""
","
",,145,"<p> As a space explorer, you’ll visit different planets to dig for space treasure, these pink gems.</p> <p> The more treasure you dig up, the more bonus money you’ll win! </p><br><br><p><img src='run_exp/static/images/task_images/pink_gem.jpg' height='300' width='auto'></p><button class=""jspsych-html-btn-unchosen""><img src=""run_exp/static/images/task_images/planet-01.jpg"" height=""50""></button><button class=""jspsych-html-btn-chosen""><img src=""run_exp/static/images/task_images/planet-02.jpg"" height=""50""></button><p><b>[press the space bar to lock in your answer]<b><br></p>",32,,,,,,,,,,,,,,,,,,,,,,,,
instruc_dig,13,93479,0.0-8.0-0.0,"""event"",""trial"",""time""
""fullscreenenter"",""1"",""3110""
","
","
","""event"",""trial"",""time""
""fullscreenenter"",""1"",""3110""
","
",,null,run_exp/static/audio/clip_4_dig.m4a,null,,,,,,,100,,,,,,,,,,,,,,,,,
instruc_dig_try,14,95636,0.0-8.0-1.0,"""event"",""trial"",""time""
""fullscreenenter"",""1"",""3110""
","
","
","""event"",""trial"",""time""
""fullscreenenter"",""1"",""3110""
","
",,2155,"<p> When you’ve arrived at a new planet, you will dig once. </p> <p>Then, you get to decide if you want to stay on the planet and dig again or travel to a new planet and dig there.</p> <p> To stay and dig, press the letter <strong>‘A’</strong> on your keyboard. Try pressing it now! </p><p><img src='run_exp/static/images/task_images/land.jpg'  height='700' width='auto'></p>",65,"<p> When you’ve arrived at a new planet, you will dig once. </p> <p>Then, you get to decide if you want to stay on the planet and dig again or travel to a new planet and dig there.</p> <p> To stay and dig, press the letter <strong>‘A’</strong> on your keyboard. Try pressing it now! </p><p><img src='run_exp/static/images/task_images/land.jpg'  height='700' width='auto'></p>",,,,,,100,,,,,,,,,,,,,,,,,
dig_prac,15,97650,0.0-8.0-2.0,"""event"",""trial"",""time""
""fullscreenenter"",""1"",""3110""
","
","
","""event"",""trial"",""time""
""fullscreenenter"",""1"",""3110""
","
",,,,,,,,,,,,"[{""stimulus"":""run_exp/static/images/task_images/dig.jpg"",""time"":1},{""stimulus"":""run_exp/static/images/task_images/land.jpg"",""time"":670},{""stimulus"":""run_exp/static/images/task_images/dig.jpg"",""time"":1337}]",[],,,,,,,,,,,,,,,
instruc_travel,16,133901,0.0-8.0-3.0,"""event"",""trial"",""time""
""fullscreenenter"",""1"",""3110""
","
","
","""event"",""trial"",""time""
""fullscreenenter"",""1"",""3110""
","
",,null,run_exp/static/audio/clip_5_travel.m4a,null,"<p>Every time you dig up gems, there are less gems on the planet, so the more you dig on a planet the fewer gems you’ll get with each dig.</p><p>When gems are running low, you may want to travel to a new planet. </p> <p>  Planets are very far apart in this galaxy, so it will take some time to travel between them. </p> <br><p>There are lots and lots of planets for you to visit, so you won’t be able to return to any planets you’ve seen before. </p><br><p>To leave this planet and travel to a new one, press the letter <strong>‘L’</strong> on your keyboard. Try pressing it now! </p><p><img src='run_exp/static/images/task_images/rocket-01.jpg'  height='600' width='auto'></p>",,,,,,,,,,,,,,,,,,,,,,,
instruc_travel_try,17,134812,0.0-8.0-4.0,"""event"",""trial"",""time""
""fullscreenenter"",""1"",""3110""
","
","
","""event"",""trial"",""time""
""fullscreenenter"",""1"",""3110""
","
",,909,"<p>Every time you dig up gems, there are less gems on the planet, so the more you dig on a planet the fewer gems you’ll get with each dig.</p><p>When gems are running low, you may want to travel to a new planet. </p> <p>  Planets are very far apart in this galaxy, so it will take some time to travel between them. </p> <br><p>There are lots and lots of planets for you to visit, so you won’t be able to return to any planets you’ve seen before. </p><br><p>To leave this planet and travel to a new one, press the letter <strong>‘L’</strong> on your keyboard. Try pressing it now! </p><p><img src='run_exp/static/images/task_images/rocket-01.jpg'  height='600' width='auto'></p>",76,"<p>Every time you dig up gems, there are less gems on the planet, so the more you dig on a planet the fewer gems you’ll get with each dig.</p><p>When gems are running low, you may want to travel to a new planet. </p> <p>  Planets are very far apart in this galaxy, so it will take some time to travel between them. </p> <br><p>There are lots and lots of planets for you to visit, so you won’t be able to return to any planets you’ve seen before. </p><br><p>To leave this planet and travel to a new one, press the letter <strong>‘L’</strong> on your keyboard. Try pressing it now! </p><p><img src='run_exp/static/images/task_images/rocket-01.jpg'  height='600' width='auto'></p>",,,,,,,,,,,,,,,,,,,,,,,
travel_prac,18,144815,0.0-8.0-5.0,"""event"",""trial"",""time""
""fullscreenenter"",""1"",""3110""
","
","
","""event"",""trial"",""time""
""fullscreenenter"",""1"",""3110""
","
",,,,,,,,,,,,"[{""stimulus"":""run_exp/static/images/task_images/rocket-01.jpg"",""time"":1},{""stimulus"":""run_exp/static/images/task_images/rocket-02.jpg"",""time"":1113},{""stimulus"":""run_exp/static/images/task_images/rocket-03.jpg"",""time"":2224},{""stimulus"":""run_exp/static/images/task_images/rocket-04.jpg"",""time"":3336},{""stimulus"":""run_exp/static/images/task_images/rocket-05.jpg"",""time"":4447},{""stimulus"":""run_exp/static/images/task_images/rocket-06.jpg"",""time"":5557},{""stimulus"":""run_exp/static/images/task_images/rocket-07.jpg"",""time"":6669},{""stimulus"":""run_exp/static/images/task_images/rocket-08.jpg"",""time"":7778},{""stimulus"":""run_exp/static/images/task_images/rocket-09.jpg"",""time"":8890}]",[],0,,,,,,,,,,,,,,
instruc_alien_greet,19,172002,0.0-8.0-6.0,"""event"",""trial"",""time""
""fullscreenenter"",""1"",""3110""
","
","
","""event"",""trial"",""time""
""fullscreenenter"",""1"",""3110""
","
",,null,run_exp/static/audio/clip_6_alien.m4a,null,"<p>When you arrive at a new planet, the alien who owns the treasure mine on that planet will greet you!</p><p>The better an alien takes care of their mine the easier it is to dig for gems. Some aliens take better care of their mine than others. So, you won’t get exactly the same amount of gems on each planet.</p><p>What the alien looks like does not tell you anything about how many gems there are on the planet.</p><br><p><img src=""run_exp/static/images/task_images/aliens/instructions_aliens/planet/alien_planet-1.jpg""  height=""600"" width=""auto""></p>",,,,,,,,,,,,,,,,,,,,,,,
instruc_alien_greet,20,176639,0.0-8.0-7.0,"""event"",""trial"",""time""
""fullscreenenter"",""1"",""3110""
","
","
","""event"",""trial"",""time""
""fullscreenenter"",""1"",""3110""
","
",,4634,"<p>When you arrive at a new planet, the alien who owns the treasure mine on that planet will greet you!</p><p>The better an alien takes care of their mine the easier it is to dig for gems. Some aliens take better care of their mine than others. So, you won’t get exactly the same amount of gems on each planet.</p><p>What the alien looks like does not tell you anything about how many gems there are on the planet.</p><br><p><img src=""run_exp/static/images/task_images/aliens/instructions_aliens/planet/alien_planet-1.jpg""  height=""600"" width=""auto""></p>",,,,,,,1,,,,,,,,,,,,,,,,,,
html-keyboard-response,21,177107,0.0-8.0-8.0,"""event"",""trial"",""time""
""fullscreenenter"",""1"",""3110""
","
","
","""event"",""trial"",""time""
""fullscreenenter"",""1"",""3110""
","
",,466,"<p>When you arrive at a new planet, the alien who owns the treasure mine on that planet will greet you!</p><p>The better an alien takes care of their mine the easier it is to dig for gems. Some aliens take better care of their mine than others. So, you won’t get exactly the same amount of gems on each planet.</p><p>What the alien looks like does not tell you anything about how many gems there are on the planet.</p><br><p><img src=""run_exp/static/images/task_images/aliens/instructions_aliens/planet/alien_planet-1.jpg""  height=""600"" width=""auto""></p><button class=""jspsych-html-btn-unchosen""><img src=""run_exp/static/images/task_images/planet-01.jpg"" height=""50""></button><button class=""jspsych-html-btn-chosen""><img src=""run_exp/static/images/task_images/planet-02.jpg"" height=""50""></button><p><b>[press the space bar to lock in your answer]<b><br></p>",32,,,,,,,,,,,,,,,,,,,,,,,,
time_out,22,188198,0.0-9.0-0.0,"""event"",""trial"",""time""
""fullscreenenter"",""1"",""3110""
","
","
","""event"",""trial"",""time""
""fullscreenenter"",""1"",""3110""
","
",,null,run_exp/static/audio/clip_7_timeout.m4a,null,"<p>If you don't make your choice fast enough, you’ll have to wait a few seconds before you can make another one.</p><p>You can’t dig for more gems or travel to new planets. You just have to sit and wait.</p><br><p><img src='run_exp/static/images/task_images/time_out.jpg'  height='600' width='auto'></p>",,,,,,,,,,,,,,,,,,,,,,,
time_out,23,189022,0.0-9.0-1.0,"""event"",""trial"",""time""
""fullscreenenter"",""1"",""3110""
","
","
","""event"",""trial"",""time""
""fullscreenenter"",""1"",""3110""
","
",,824,"<p>If you don't make your choice fast enough, you’ll have to wait a few seconds before you can make another one.</p><p>You can’t dig for more gems or travel to new planets. You just have to sit and wait.</p><br><p><img src='run_exp/static/images/task_images/time_out.jpg'  height='600' width='auto'></p>",,,,,,,1,,,,,,,,,,,,,,,,,,
html-keyboard-response,24,189100,0.0-9.0-2.0,"""event"",""trial"",""time""
""fullscreenenter"",""1"",""3110""
","
","
","""event"",""trial"",""time""
""fullscreenenter"",""1"",""3110""
","
",,76,"<p>If you don't make your choice fast enough, you’ll have to wait a few seconds before you can make another one.</p><p>You can’t dig for more gems or travel to new planets. You just have to sit and wait.</p><br><p><img src='run_exp/static/images/task_images/time_out.jpg'  height='600' width='auto'></p><button class=""jspsych-html-btn-unchosen""><img src=""run_exp/static/images/task_images/planet-01.jpg"" height=""50""></button><button class=""jspsych-html-btn-chosen""><img src=""run_exp/static/images/task_images/planet-02.jpg"" height=""50""></button><p><b>[press the space bar to lock in your answer]<b><br></p>",32,,,,,,,,,,,,,,,,,,,,,,,,
instruc_break,25,204777,0.0-10.0-0.0,"""event"",""trial"",""time""
""fullscreenenter"",""1"",""3110""
","
","
","""event"",""trial"",""time""
""fullscreenenter"",""1"",""3110""
","
",,null,run_exp/static/audio/clip_8_break.m4a,null,"<p> After digging and traveling for a while, you’ll be able to take a break at home base. </p><p>The game will last 20 minutes no matter what.</p><p>You will visit home base every 5 minutes, so, you will visit home base three times during the game.</p><br><p><img src='run_exp/static/images/task_images/home_base.jpg' height='600' width='auto'></p>",,,,,,,,,,,,,,,,,,,,,,,
instruc_break,26,213840,0.0-10.0-1.0,"""event"",""trial"",""time""
""fullscreenenter"",""1"",""3110""
","
","
","""event"",""trial"",""time""
""fullscreenenter"",""1"",""3110""
","
",,9062,"<p> After digging and traveling for a while, you’ll be able to take a break at home base. </p><p>The game will last 20 minutes no matter what.</p><p>You will visit home base every 5 minutes, so, you will visit home base three times during the game.</p><br><p><img src='run_exp/static/images/task_images/home_base.jpg' height='600' width='auto'></p>",,,,,,,1,,,,,,,,,,,,,,,,,,
html-keyboard-response,27,213976,0.0-10.0-2.0,"""event"",""trial"",""time""
""fullscreenenter"",""1"",""3110""
","
","
","""event"",""trial"",""time""
""fullscreenenter"",""1"",""3110""
","
",,135,"<p> After digging and traveling for a while, you’ll be able to take a break at home base. </p><p>The game will last 20 minutes no matter what.</p><p>You will visit home base every 5 minutes, so, you will visit home base three times during the game.</p><br><p><img src='run_exp/static/images/task_images/home_base.jpg' height='600' width='auto'></p><button class=""jspsych-html-btn-unchosen""><img src=""run_exp/static/images/task_images/planet-01.jpg"" height=""50""></button><button class=""jspsych-html-btn-chosen""><img src=""run_exp/static/images/task_images/planet-02.jpg"" height=""50""></button><p><b>[press the space bar to lock in your answer]<b><br></p>",32,,,,,,,,,,,,,,,,,,,,,,,,
instruc_prac_game,28,224099,0.0-11.0-0.0,"""event"",""trial"",""time""
""fullscreenenter"",""1"",""3110""
","
","
","""event"",""trial"",""time""
""fullscreenenter"",""1"",""3110""
","
",,null,run_exp/static/audio/clip_9_practice.m4a,null,"<p> Are you ready to play a practice game? </p> <p>In this practice game, you'll be digging up barrels of gems. But, in the real game, you'll be digging up the gems themselves. </p>",,,,,,,,,,,,,,,,,,,,,,,
html-button-response,29,225394,0.0-11.0-1.0,"""event"",""trial"",""time""
""fullscreenenter"",""1"",""3110""
","
","
","""event"",""trial"",""time""
""fullscreenenter"",""1"",""3110""
","
",,1292,"<p> Are you ready to play a practice game? </p> <p>In this practice game, you'll be digging up barrels of gems. But, in the real game, you'll be digging up the gems themselves. </p>",,,,,,,0,,,,,,,,,,,,,,,,,,
alien_welcome_prac,30,230397,0.0-12.0-0.0,"""event"",""trial"",""time""
""fullscreenenter"",""1"",""3110""
","
","
","""event"",""trial"",""time""
""fullscreenenter"",""1"",""3110""
","
",,null,run_exp/static/images/task_images/aliens/practice_aliens/planet/alien_planet-5.jpg,null,,,,,,,,,,,,,,,,,,,,,,,,
land_prac,31,230899,0.0-12.0-1.0,"""event"",""trial"",""time""
""fullscreenenter"",""1"",""3110""
","
","
","""event"",""trial"",""time""
""fullscreenenter"",""1"",""3110""
","
",,null,run_exp/static/images/task_images/land.jpg,null,,,,,,,88,,,0,,,,,,,,,,,,,,
dig_prac,32,232904,0.0-12.0-2.0,"""event"",""trial"",""time""
""fullscreenenter"",""1"",""3110""
","
","
","""event"",""trial"",""time""
""fullscreenenter"",""1"",""3110""
","
",,,,,,,,,,,,"[{""stimulus"":""run_exp/static/images/task_images/dig.jpg"",""time"":1},{""stimulus"":""run_exp/static/images/task_images/land.jpg"",""time"":668},{""stimulus"":""run_exp/static/images/task_images/dig.jpg"",""time"":1336}]",[],,,,,,,,,,,,,,,
harvest_prac,33,233905,0.0-12.0-3.0,"""event"",""trial"",""time""
""fullscreenenter"",""1"",""3110""
","
","
","""event"",""trial"",""time""
""fullscreenenter"",""1"",""3110""
","
",,null,run_exp/static/images/task_images/barrel_text.jpg,null,,,,,,,,,,,,,,,,,,,,,,,,
decision_prac,34,234248,0.0-12.0-4.0,"""event"",""trial"",""time""
""fullscreenenter"",""1"",""3110""
","
","
","""event"",""trial"",""time""
""fullscreenenter"",""1"",""3110""
","
",,342,run_exp/static/images/task_images/land.jpg,65,,,,,,,,,,,1,,,,,,,,,,,,,
dig_prac,35,236252,0.0-13.0-0.0,"""event"",""trial"",""time""
""fullscreenenter"",""1"",""3110""
","
","
","""event"",""trial"",""time""
""fullscreenenter"",""1"",""3110""
","
",,,,,,,,,,,,"[{""stimulus"":""run_exp/static/images/task_images/dig.jpg"",""time"":0},{""stimulus"":""run_exp/static/images/task_images/land.jpg"",""time"":669},{""stimulus"":""run_exp/static/images/task_images/dig.jpg"",""time"":1335}]",[],,,,,,,,,,,,,,,
harvest_prac,36,237254,0.0-13.0-1.0,"""event"",""trial"",""time""
""fullscreenenter"",""1"",""3110""
","
","
","""event"",""trial"",""time""
""fullscreenenter"",""1"",""3110""
","
",,null,run_exp/static/images/task_images/barrel_text.jpg,null,,,,,,,,,,,,,,,,,,,,,,,,
decision_prac,37,237554,0.0-13.0-2.0,"""event"",""trial"",""time""
""fullscreenenter"",""1"",""3110""
","
","
","""event"",""trial"",""time""
""fullscreenenter"",""1"",""3110""
","
",,299,run_exp/static/images/task_images/land.jpg,65,,,,,,,,,,,2,,,,,,,,,,,,,
dig_prac,38,239558,0.0-14.0-0.0,"""event"",""trial"",""time""
""fullscreenenter"",""1"",""3110""
","
","
","""event"",""trial"",""time""
""fullscreenenter"",""1"",""3110""
","
",,,,,,,,,,,,"[{""stimulus"":""run_exp/static/images/task_images/dig.jpg"",""time"":0},{""stimulus"":""run_exp/static/images/task_images/land.jpg"",""time"":667},{""stimulus"":""run_exp/static/images/task_images/dig.jpg"",""time"":1335}]",[],,,,,,,,,,,,,,,
harvest_prac,39,240560,0.0-14.0-1.0,"""event"",""trial"",""time""
""fullscreenenter"",""1"",""3110""
","
","
","""event"",""trial"",""time""
""fullscreenenter"",""1"",""3110""
","
",,null,run_exp/static/images/task_images/barrel_text.jpg,null,,,,,,,,,,,,,,,,,,,,,,,,
decision_prac,40,240809,0.0-14.0-2.0,"""event"",""trial"",""time""
""fullscreenenter"",""1"",""3110""
","
","
","""event"",""trial"",""time""
""fullscreenenter"",""1"",""3110""
","
",,247,run_exp/static/images/task_images/land.jpg,65,,,,,,,,,,,3,,,,,,,,,,,,,
dig_prac,41,242813,0.0-15.0-0.0,"""event"",""trial"",""time""
""fullscreenenter"",""1"",""3110""
","
","
","""event"",""trial"",""time""
""fullscreenenter"",""1"",""3110""
","
",,,,,,,,,,,,"[{""stimulus"":""run_exp/static/images/task_images/dig.jpg"",""time"":0},{""stimulus"":""run_exp/static/images/task_images/land.jpg"",""time"":669},{""stimulus"":""run_exp/static/images/task_images/dig.jpg"",""time"":1335}]",[],,,,,,,,,,,,,,,
harvest_prac,42,243819,0.0-15.0-1.0,"""event"",""trial"",""time""
""fullscreenenter"",""1"",""3110""
","
","
","""event"",""trial"",""time""
""fullscreenenter"",""1"",""3110""
","
",,null,run_exp/static/images/task_images/barrel_text.jpg,null,,,,,,,,,,,,,,,,,,,,,,,,
decision_prac,43,244147,0.0-15.0-2.0,"""event"",""trial"",""time""
""fullscreenenter"",""1"",""3110""
","
","
","""event"",""trial"",""time""
""fullscreenenter"",""1"",""3110""
","
",,327,run_exp/static/images/task_images/land.jpg,65,,,,,,,,,,,4,,,,,,,,,,,,,
dig_prac,44,246154,0.0-16.0-0.0,"""event"",""trial"",""time""
""fullscreenenter"",""1"",""3110""
","
","
","""event"",""trial"",""time""
""fullscreenenter"",""1"",""3110""
","
",,,,,,,,,,,,"[{""stimulus"":""run_exp/static/images/task_images/dig.jpg"",""time"":0},{""stimulus"":""run_exp/static/images/task_images/land.jpg"",""time"":668},{""stimulus"":""run_exp/static/images/task_images/dig.jpg"",""time"":1335}]",[],,,,,,,,,,,,,,,
harvest_prac,45,247156,0.0-16.0-1.0,"""event"",""trial"",""time""
""fullscreenenter"",""1"",""3110""
","
","
","""event"",""trial"",""time""
""fullscreenenter"",""1"",""3110""
","
",,null,run_exp/static/images/task_images/barrel_text.jpg,null,,,,,,,,,,,,,,,,,,,,,,,,
decision_prac,46,247536,0.0-16.0-2.0,"""event"",""trial"",""time""
""fullscreenenter"",""1"",""3110""
","
","
","""event"",""trial"",""time""
""fullscreenenter"",""1"",""3110""
","
",,378,run_exp/static/images/task_images/land.jpg,65,,,,,,,,,,,,1,,,,,,,,,,,,
quiz_instruc,47,252219,0.0-17.0-0.0,"""event"",""trial"",""time""
""fullscreenenter"",""1"",""3110""
","
","
","""event"",""trial"",""time""
""fullscreenenter"",""1"",""3110""
","
",,4682,run_exp/static/audio/clip_10_quiz.m4a,,,,,,,0,,,,,,,,,,,,,,,,,,
instruc_repeat,48,294988,0.0-17.0-1.0,"""event"",""trial"",""time""
""fullscreenenter"",""1"",""3110""
","
","
","""event"",""trial"",""time""
""fullscreenenter"",""1"",""3110""
","
",,null,"<p> Are you ready to play a practice game? </p> <p>In this practice game, you'll be digging up barrels of gems. But, in the real game, you'll be digging up the gems themselves. </p>",null,"<p>In this game, your goal is to collect as many gems as you can. That’s how you will win bonus money. </p> <p>The entire game will last 20 minutes no matter how many gems you collect or how many planets you visit. </p><p>To stay on a planet and dig again, press the letter A on your keyboard. To leave for a new planet, press the letter L.</p><p>The more you dig on a planet, the fewer gems you’ll get with each dig which is why you might consider leaving for a new planet. </p><p>When you arrive at a new planet, you’ll be greeted by an alien. What the alien looks like does not tell you anything about how much treasure is on the planet. </p>",,,,,,,,,,,,,,,,,,,,,,,
instruc_repeat_continue,49,296141,0.0-17.0-2.0,"""event"",""trial"",""time""
""fullscreenenter"",""1"",""3110""
","
","
","""event"",""trial"",""time""
""fullscreenenter"",""1"",""3110""
","
",,1152,"<p> Are you ready to play a practice game? </p> <p>In this practice game, you'll be digging up barrels of gems. But, in the real game, you'll be digging up the gems themselves. </p>",,,,,,,0,,,,,,,,,,,,,,,,,,
quiz_q_1_ask,50,300080,0.0-17.0-3.0,"""event"",""trial"",""time""
""fullscreenenter"",""1"",""3110""
","
","
","""event"",""trial"",""time""
""fullscreenenter"",""1"",""3110""
","
",,3936,run_exp/static/audio/clip_11_q1_ask.m4a,,,,,,,2,,,,,,,,,,,,,,,,,,
quiz_q_1_fb_correct,51,303927,0.0-18.0-0.0,"""event"",""trial"",""time""
""fullscreenenter"",""1"",""3110""
","
","
","""event"",""trial"",""time""
""fullscreenenter"",""1"",""3110""
","
",,null,run_exp/static/audio/clip_12_q1_correct.m4a,null,<p>That’s correct. You win extra money by collecting more gems.</p>,,,,,,,,,,,,,,,,,,,,,,,
quiz_q_2_ask,52,307802,0.0-18.0-1.0,"""event"",""trial"",""time""
""fullscreenenter"",""1"",""3110""
","
","
","""event"",""trial"",""time""
""fullscreenenter"",""1"",""3110""
","
",,3874,run_exp/static/audio/clip_14_q2_ask.m4a,,,,,,,1,,,,,,,,,,,,,,,,,,
quiz_q_2_fb_correct,53,311807,0.0-19.0-0.0,"""event"",""trial"",""time""
""fullscreenenter"",""1"",""3110""
","
","
","""event"",""trial"",""time""
""fullscreenenter"",""1"",""3110""
","
",,null,run_exp/static/audio/clip_15_q2_correct.m4a,null,<p>That’s correct. The experiment is 20 minutes no matter what.</p>,,,,,,,,,,,,,,,,,,,,,,,
quiz_q_3_ask,54,314006,0.0-19.0-1.0,"""event"",""trial"",""time""
""fullscreenenter"",""1"",""3110""
","
","
","""event"",""trial"",""time""
""fullscreenenter"",""1"",""3110""
","
",,2198,run_exp/static/audio/clip_17_q3_ask.m4a,,,,,,,1,,,,,,,,,,,,,,,,,,
quiz_q_3_fb_correct,55,317986,0.0-20.0-0.0,"""event"",""trial"",""time""
""fullscreenenter"",""1"",""3110""
","
","
","""event"",""trial"",""time""
""fullscreenenter"",""1"",""3110""
","
",,null,run_exp/static/audio/clip_18_q3_correct.m4a,null,<p> That’s correct. You press the letter L to travel to a new planet.</p>,,,,,,,,,,,,,,,,,,,,,,,
quiz_q_4_ask,56,323242,0.0-20.0-1.0,"""event"",""trial"",""time""
""fullscreenenter"",""1"",""3110""
","
","
","""event"",""trial"",""time""
""fullscreenenter"",""1"",""3110""
","
",,5254,run_exp/static/audio/clip_20_q4_ask.m4a,,,,,,,1,,,,,,,,,,,,,,,,,,
quiz_q_4_fb_incorrect,57,329050,0.0-21.0-0.0,"""event"",""trial"",""time""
""fullscreenenter"",""1"",""3110""
","
","
","""event"",""trial"",""time""
""fullscreenenter"",""1"",""3110""
","
",,null,run_exp/static/audio/clip_22_q4_incorrect.m4a,null,<p>That’s incorrect.  The more you dig on a planet the fewer gems you’ll get with each dig.</p>,,,,,,,,,,,,,,,,,,,,,,,
quiz_q_5_ask,58,333167,0.0-21.0-1.0,"""event"",""trial"",""time""
""fullscreenenter"",""1"",""3110""
","
","
","""event"",""trial"",""time""
""fullscreenenter"",""1"",""3110""
","
",,4115,run_exp/static/audio/clip_23_q5_ask.m4a,,,,,,,1,,,,,,,,,,,,,,,,,,
quiz_q_5_fb_correct,59,338168,0.0-22.0-0.0,"""event"",""trial"",""time""
""fullscreenenter"",""1"",""3110""
","
","
","""event"",""trial"",""time""
""fullscreenenter"",""1"",""3110""
","
",,null,run_exp/static/audio/clip_24_q5_correct.m4a,null,<p> That’s correct. The alien tells you nothing about how much treasure is on the planet.</p>,,,,,,,,,,,,,,,,,,,,,,,
quiz_incorrect,60,343710,0.0-23.0-0.0,"""event"",""trial"",""time""
""fullscreenenter"",""1"",""3110""
","
","
","""event"",""trial"",""time""
""fullscreenenter"",""1"",""3110""
","
",,null,run_exp/static/audio/clip_27_incorrect_quiz.m4a,null,,,,,,,,,,,,,,,,,,,,,,,,
quiz_incorrect_continue,61,344620,0.0-23.0-1.0,"""event"",""trial"",""time""
""fullscreenenter"",""1"",""3110""
","
","
","""event"",""trial"",""time""
""fullscreenenter"",""1"",""3110""
","
",,907,"<p>Oops, you missed some questions.</p><p>Now that you’ve heard the correct answers. Try the quiz again!</p>",,,,,,,0,,,,,,,,,,,,,,,,,,
quiz_q_1_ask,62,346677,0.0-23.0-2.0,"""event"",""trial"",""time""
""fullscreenenter"",""1"",""3110""
","
","
","""event"",""trial"",""time""
""fullscreenenter"",""1"",""3110""
","
",,2055,run_exp/static/audio/clip_11_q1_ask.m4a,,,,,,,2,,,,,,,,,,,,,,,,,,
quiz_q_1_fb_correct,63,350528,0.0-24.0-0.0,"""event"",""trial"",""time""
""fullscreenenter"",""1"",""3110""
","
","
","""event"",""trial"",""time""
""fullscreenenter"",""1"",""3110""
","
",,null,run_exp/static/audio/clip_12_q1_correct.m4a,null,<p>That’s correct. You win extra money by collecting more gems.</p>,,,,,,,,,,,,,,,,,,,,,,,
quiz_q_2_ask,64,351709,0.0-24.0-1.0,"""event"",""trial"",""time""
""fullscreenenter"",""1"",""3110""
","
","
","""event"",""trial"",""time""
""fullscreenenter"",""1"",""3110""
","
",,1180,run_exp/static/audio/clip_14_q2_ask.m4a,,,,,,,1,,,,,,,,,,,,,,,,,,
quiz_q_2_fb_correct,65,355708,0.0-25.0-0.0,"""event"",""trial"",""time""
""fullscreenenter"",""1"",""3110""
","
","
","""event"",""trial"",""time""
""fullscreenenter"",""1"",""3110""
","
",,null,run_exp/static/audio/clip_15_q2_correct.m4a,null,<p>That’s correct. The experiment is 20 minutes no matter what.</p>,,,,,,,,,,,,,,,,,,,,,,,
quiz_q_3_ask,66,357009,0.0-25.0-1.0,"""event"",""trial"",""time""
""fullscreenenter"",""1"",""3110""
","
","
","""event"",""trial"",""time""
""fullscreenenter"",""1"",""3110""
","
",,1299,run_exp/static/audio/clip_17_q3_ask.m4a,,,,,,,1,,,,,,,,,,,,,,,,,,
quiz_q_3_fb_correct,67,360988,0.0-26.0-0.0,"""event"",""trial"",""time""
""fullscreenenter"",""1"",""3110""
","
","
","""event"",""trial"",""time""
""fullscreenenter"",""1"",""3110""
","
",,null,run_exp/static/audio/clip_18_q3_correct.m4a,null,<p> That’s correct. You press the letter L to travel to a new planet.</p>,,,,,,,,,,,,,,,,,,,,,,,
quiz_q_4_ask,68,363201,0.0-26.0-1.0,"""event"",""trial"",""time""
""fullscreenenter"",""1"",""3110""
","
","
","""event"",""trial"",""time""
""fullscreenenter"",""1"",""3110""
","
",,2211,run_exp/static/audio/clip_20_q4_ask.m4a,,,,,,,0,,,,,,,,,,,,,,,,,,
quiz_q_4_fb_correct,69,368527,0.0-27.0-0.0,"""event"",""trial"",""time""
""fullscreenenter"",""1"",""3110""
","
","
","""event"",""trial"",""time""
""fullscreenenter"",""1"",""3110""
","
",,null,run_exp/static/audio/clip_21_q4_correct.m4a,null,<p> That’s correct. The more you dig on a planet the fewer gems you’ll get with each dig. </p>,,,,,,,,,,,,,,,,,,,,,,,
quiz_q_5_ask,70,369083,0.0-27.0-1.0,"""event"",""trial"",""time""
""fullscreenenter"",""1"",""3110""
","
","
","""event"",""trial"",""time""
""fullscreenenter"",""1"",""3110""
","
",,556,run_exp/static/audio/clip_23_q5_ask.m4a,,,,,,,1,,,,,,,,,,,,,,,,,,
quiz_q_5_fb_correct,71,374088,0.0-28.0-0.0,"""event"",""trial"",""time""
""fullscreenenter"",""1"",""3110""
","
","
","""event"",""trial"",""time""
""fullscreenenter"",""1"",""3110""
","
",,null,run_exp/static/audio/clip_24_q5_correct.m4a,null,<p> That’s correct. The alien tells you nothing about how much treasure is on the planet.</p>,,,,,,,,,,,,,,,,,,,,,,,
quiz_correct,72,377548,0.0-29.0-0.0,"""event"",""trial"",""time""
""fullscreenenter"",""1"",""3110""
","
","
","""event"",""trial"",""time""
""fullscreenenter"",""1"",""3110""
","
",,null,run_exp/static/audio/clip_26_correct_quiz.m4a,null,,,,,,,,,,,,,,,,,,,,,,,,
quiz_correct_continue,73,378342,0.0-29.0-1.0,"""event"",""trial"",""time""
""fullscreenenter"",""1"",""3110""
","
","
","""event"",""trial"",""time""
""fullscreenenter"",""1"",""3110""
","
",,793,<p>Good job! You're now ready to move on to the real game!</p>,,,,,,,0,,,,,,,,,,,,,,,,,,
audio-keyboard-response,74,388466,0.0-29.0-2.0,"""event"",""trial"",""time""
""fullscreenenter"",""1"",""3110""
","
","
","""event"",""trial"",""time""
""fullscreenenter"",""1"",""3110""
","
",,null,run_exp/static/audio/clip_28_real_game.m4a,null,,,,,,,,,,,,,,,,,,,,,,,,
instruc_begin_exp_contine,75,389933,0.0-29.0-3.0,"""event"",""trial"",""time""
""fullscreenenter"",""1"",""3110""
","
","
","""event"",""trial"",""time""
""fullscreenenter"",""1"",""3110""
","
",,1467,"<p>Now that you know how  to dig for space treasure and travel to new planets,you can start exploring! </p><p>Do you want to go over the instructions again or get started with the real game?</p>",,,,,,,1,,,,,,1,,,,,,,,,,,,
alien_welcome,76,394936,0.0-30.0-0.0,"""event"",""trial"",""time""
""fullscreenenter"",""1"",""3110""
","
","
","""event"",""trial"",""time""
""fullscreenenter"",""1"",""3110""
","
",,null,run_exp/static/images/task_images/aliens/old_aliens/planet/alien_planet-38.jpg,null,,,,,,,,,,,,,38,"38,48,53,47,35,68,34,11,69,56,73,79,77,18,22,5,14,17,43,31,33,16,39,60,49,78,54,80,27,36,55,2,51,58,37",,,,,,,,,,
land,77,395439,0.0-30.0-1.0,"""event"",""trial"",""time""
""fullscreenenter"",""1"",""3110""
","
","
","""event"",""trial"",""time""
""fullscreenenter"",""1"",""3110""
","
",,null,run_exp/static/images/task_images/land.jpg,null,,,,,,,99,,,1,,,,,,,,,,,,,,
dig,78,397448,0.0-30.0-2.0,"""event"",""trial"",""time""
""fullscreenenter"",""1"",""3110""
","
","
","""event"",""trial"",""time""
""fullscreenenter"",""1"",""3110""
","
",,,,,,,,,,,,"[{""stimulus"":""run_exp/static/images/task_images/dig.jpg"",""time"":0},{""stimulus"":""run_exp/static/images/task_images/land.jpg"",""time"":669},{""stimulus"":""run_exp/static/images/task_images/dig.jpg"",""time"":1336}]",[],1,,,,,,,,,,,,,,
harvest,79,398452,0.0-30.0-3.0,"""event"",""trial"",""time""
""fullscreenenter"",""1"",""3110""
","
","
","""event"",""trial"",""time""
""fullscreenenter"",""1"",""3110""
","
",,null,run_exp/static/images/task_images/gems/99.jpg,null,,,,,,,21,,,1,,,,,99,0.213278555,0.212121212,,,,,,,
decision,80,398790,0.0-30.0-4.0,"""event"",""trial"",""time""
""fullscreenenter"",""1"",""3110""
","
","
","""event"",""trial"",""time""
""fullscreenenter"",""1"",""3110""
","
",,337,run_exp/static/images/task_images/land.jpg,65,,,,,,,21,,,1,,,,,,,,8857,1,0,FALSE,,,
dig,81,401454,0.0-31.0-0.0,"""event"",""trial"",""time""
""fullscreenenter"",""1"",""3110""
","
","
","""event"",""trial"",""time""
""fullscreenenter"",""1"",""3110""
","
",,,,,,,,,,,,"[{""stimulus"":""run_exp/static/images/task_images/dig.jpg"",""time"":0},{""stimulus"":""run_exp/static/images/task_images/land.jpg"",""time"":889},{""stimulus"":""run_exp/static/images/task_images/dig.jpg"",""time"":1776}]",[],1,,,,,,,,,,,,,,
harvest,82,402454,0.0-31.0-1.0,"""event"",""trial"",""time""
""fullscreenenter"",""1"",""3110""
","
","
","""event"",""trial"",""time""
""fullscreenenter"",""1"",""3110""
","
",,null,run_exp/static/images/task_images/gems/21.jpg,null,,,,,,,4,,,1,,,,,21,0.172512863,0.19047619,,,,,,,
decision,83,402742,0.0-31.0-2.0,"""event"",""trial"",""time""
""fullscreenenter"",""1"",""3110""
","
","
","""event"",""trial"",""time""
""fullscreenenter"",""1"",""3110""
","
",,287,run_exp/static/images/task_images/land.jpg,65,,,,,,,4,,,1,,,,,,,,12808,1,1,FALSE,,,
dig,84,405457,0.0-32.0-0.0,"""event"",""trial"",""time""
""fullscreenenter"",""1"",""3110""
","
","
","""event"",""trial"",""time""
""fullscreenenter"",""1"",""3110""
","
",,,,,,,,,,,,"[{""stimulus"":""run_exp/static/images/task_images/dig.jpg"",""time"":0},{""stimulus"":""run_exp/static/images/task_images/land.jpg"",""time"":905},{""stimulus"":""run_exp/static/images/task_images/dig.jpg"",""time"":1810}]",[],1,,,,,,,,,,,,,,
harvest,85,406459,0.0-32.0-1.0,"""event"",""trial"",""time""
""fullscreenenter"",""1"",""3110""
","
","
","""event"",""trial"",""time""
""fullscreenenter"",""1"",""3110""
","
",,null,run_exp/static/images/task_images/gems/4.jpg,null,,,,,,,1,,,1,,,,,4,0.217607017,0.25,,,,,,,
decision,86,407016,0.0-32.0-2.0,"""event"",""trial"",""time""
""fullscreenenter"",""1"",""3110""
","
","
","""event"",""trial"",""time""
""fullscreenenter"",""1"",""3110""
","
",,557,run_exp/static/images/task_images/land.jpg,65,,,,,,,1,,,1,,,,,,,,17082,1,2,FALSE,,,
dig,87,409462,0.0-33.0-0.0,"""event"",""trial"",""time""
""fullscreenenter"",""1"",""3110""
","
","
","""event"",""trial"",""time""
""fullscreenenter"",""1"",""3110""
","
",,,,,,,,,,,,"[{""stimulus"":""run_exp/static/images/task_images/dig.jpg"",""time"":0},{""stimulus"":""run_exp/static/images/task_images/land.jpg"",""time"":816},{""stimulus"":""run_exp/static/images/task_images/dig.jpg"",""time"":1630}]",[],1,,,,,,,,,,,,,,
harvest,88,410463,0.0-33.0-1.0,"""event"",""trial"",""time""
""fullscreenenter"",""1"",""3110""
","
","
","""event"",""trial"",""time""
""fullscreenenter"",""1"",""3110""
","
",,null,run_exp/static/images/task_images/gems/1.jpg,null,,,,,,,0,,,1,,,,,1,0.215943379,0,,,,,,,
decision,89,410727,0.0-33.0-2.0,"""event"",""trial"",""time""
""fullscreenenter"",""1"",""3110""
","
","
","""event"",""trial"",""time""
""fullscreenenter"",""1"",""3110""
","
",,263,run_exp/static/images/task_images/land.jpg,76,,,,,,,0,,,1,,,,,,,,20793,1,3,TRUE,,,
travel,90,420459,0.0-34.0-0.0,"""event"",""trial"",""time""
""fullscreenenter"",""1"",""3110""
","
","
","""event"",""trial"",""time""
""fullscreenenter"",""1"",""3110""
","
",,,,,,,,,,,,"[{""stimulus"":""run_exp/static/images/task_images/rocket-01.jpg"",""time"":0},{""stimulus"":""run_exp/static/images/task_images/rocket-02.jpg"",""time"":1083},{""stimulus"":""run_exp/static/images/task_images/rocket-03.jpg"",""time"":2165},{""stimulus"":""run_exp/static/images/task_images/rocket-04.jpg"",""time"":3245},{""stimulus"":""run_exp/static/images/task_images/rocket-05.jpg"",""time"":4325},{""stimulus"":""run_exp/static/images/task_images/rocket-06.jpg"",""time"":5407},{""stimulus"":""run_exp/static/images/task_images/rocket-07.jpg"",""time"":6488},{""stimulus"":""run_exp/static/images/task_images/rocket-08.jpg"",""time"":7569},{""stimulus"":""run_exp/static/images/task_images/rocket-09.jpg"",""time"":8650}]",[],1,,,,,,,,,,,,,,
alien_welcome,91,425462,0.0-34.0-1.0,"""event"",""trial"",""time""
""fullscreenenter"",""1"",""3110""
","
","
","""event"",""trial"",""time""
""fullscreenenter"",""1"",""3110""
","
",,null,run_exp/static/images/task_images/aliens/old_aliens/planet/alien_planet-48.jpg,null,,,,,,,,,,,,,48,"38,48,53,47,35,68,34,11,69,56,73,79,77,18,22,5,14,17,43,31,33,16,39,60,49,78,54,80,27,36,55,2,51,58,37",,,,,,,,,,
land,92,425966,0.0-34.0-2.0,"""event"",""trial"",""time""
""fullscreenenter"",""1"",""3110""
","
","
","""event"",""trial"",""time""
""fullscreenenter"",""1"",""3110""
","
",,null,run_exp/static/images/task_images/land.jpg,null,,,,,,,98,,,2,,,,,,,,,,,,,,
dig,93,427969,0.0-34.0-3.0,"""event"",""trial"",""time""
""fullscreenenter"",""1"",""3110""
","
","
","""event"",""trial"",""time""
""fullscreenenter"",""1"",""3110""
","
",,,,,,,,,,,,"[{""stimulus"":""run_exp/static/images/task_images/dig.jpg"",""time"":0},{""stimulus"":""run_exp/static/images/task_images/land.jpg"",""time"":669},{""stimulus"":""run_exp/static/images/task_images/dig.jpg"",""time"":1335}]",[],2,,,,,,,,,,,,,,
harvest,94,428986,0.0-34.0-4.0,"""event"",""trial"",""time""
""fullscreenenter"",""1"",""3110""
","
","
","""event"",""trial"",""time""
""fullscreenenter"",""1"",""3110""
","
",,null,run_exp/static/images/task_images/gems/98.jpg,null,,,,,,,18,,,2,,,,,98,0.18816093,0.183673469,,,,,,,
decision,95,429297,0.0-34.0-5.0,"""event"",""trial"",""time""
""fullscreenenter"",""1"",""3110""
","
","
","""event"",""trial"",""time""
""fullscreenenter"",""1"",""3110""
","
",,311,run_exp/static/images/task_images/land.jpg,65,,,,,,,18,,,2,,,,,,,,39363,1,0,FALSE,,,
dig,96,431988,0.0-35.0-0.0,"""event"",""trial"",""time""
""fullscreenenter"",""1"",""3110""
","
","
","""event"",""trial"",""time""
""fullscreenenter"",""1"",""3110""
","
",,,,,,,,,,,,"[{""stimulus"":""run_exp/static/images/task_images/dig.jpg"",""time"":0},{""stimulus"":""run_exp/static/images/task_images/land.jpg"",""time"":898},{""stimulus"":""run_exp/static/images/task_images/dig.jpg"",""time"":1793}]",[],2,,,,,,,,,,,,,,
harvest,97,432991,0.0-35.0-1.0,"""event"",""trial"",""time""
""fullscreenenter"",""1"",""3110""
","
","
","""event"",""trial"",""time""
""fullscreenenter"",""1"",""3110""
","
",,null,run_exp/static/images/task_images/gems/18.jpg,null,,,,,,,4,,,2,,,,,18,0.219563525,0.222222222,,,,,,,
decision,98,433303,0.0-35.0-2.0,"""event"",""trial"",""time""
""fullscreenenter"",""1"",""3110""
","
","
","""event"",""trial"",""time""
""fullscreenenter"",""1"",""3110""
","
",,311,run_exp/static/images/task_images/land.jpg,65,,,,,,,4,,,2,,,,,,,,43369,1,1,FALSE,,,
dig,99,435993,0.0-36.0-0.0,"""event"",""trial"",""time""
""fullscreenenter"",""1"",""3110""
","
","
","""event"",""trial"",""time""
""fullscreenenter"",""1"",""3110""
","
",,,,,,,,,,,,"[{""stimulus"":""run_exp/static/images/task_images/dig.jpg"",""time"":0},{""stimulus"":""run_exp/static/images/task_images/land.jpg"",""time"":897},{""stimulus"":""run_exp/static/images/task_images/dig.jpg"",""time"":1794}]",[],2,,,,,,,,,,,,,,
harvest,100,436996,0.0-36.0-1.0,"""event"",""trial"",""time""
""fullscreenenter"",""1"",""3110""
","
","
","""event"",""trial"",""time""
""fullscreenenter"",""1"",""3110""
","
",,null,run_exp/static/images/task_images/gems/4.jpg,null,,,,,,,1,,,2,,,,,4,0.183291499,0.25,,,,,,,
decision,101,437073,0.0-36.0-2.0,"""event"",""trial"",""time""
""fullscreenenter"",""1"",""3110""
","
","
","""event"",""trial"",""time""
""fullscreenenter"",""1"",""3110""
","
",,76,run_exp/static/images/task_images/land.jpg,76,,,,,,,1,,,2,,,,,,,,47140,1,2,TRUE,,,
travel,102,446998,0.0-37.0-0.0,"""event"",""trial"",""time""
""fullscreenenter"",""1"",""3110""
","
","
","""event"",""trial"",""time""
""fullscreenenter"",""1"",""3110""
","
",,,,,,,,,,,,"[{""stimulus"":""run_exp/static/images/task_images/rocket-01.jpg"",""time"":0},{""stimulus"":""run_exp/static/images/task_images/rocket-02.jpg"",""time"":1103},{""stimulus"":""run_exp/static/images/task_images/rocket-03.jpg"",""time"":2205},{""stimulus"":""run_exp/static/images/task_images/rocket-04.jpg"",""time"":3317},{""stimulus"":""run_exp/static/images/task_images/rocket-05.jpg"",""time"":4409},{""stimulus"":""run_exp/static/images/task_images/rocket-06.jpg"",""time"":5526},{""stimulus"":""run_exp/static/images/task_images/rocket-07.jpg"",""time"":6617},{""stimulus"":""run_exp/static/images/task_images/rocket-08.jpg"",""time"":7715},{""stimulus"":""run_exp/static/images/task_images/rocket-09.jpg"",""time"":8817}]",[],2,,,,,,,,,,,,,,
alien_welcome,103,452000,0.0-37.0-1.0,"""event"",""trial"",""time""
""fullscreenenter"",""1"",""3110""
","
","
","""event"",""trial"",""time""
""fullscreenenter"",""1"",""3110""
","
",,null,run_exp/static/images/task_images/aliens/old_aliens/planet/alien_planet-53.jpg,null,,,,,,,,,,,,,53,"38,48,53,47,35,68,34,11,69,56,73,79,77,18,22,5,14,17,43,31,33,16,39,60,49,78,54,80,27,36,55,2,51,58,37",,,,,,,,,,
land,104,452502,0.0-37.0-2.0,"""event"",""trial"",""time""
""fullscreenenter"",""1"",""3110""
","
","
","""event"",""trial"",""time""
""fullscreenenter"",""1"",""3110""
","
",,null,run_exp/static/images/task_images/land.jpg,null,,,,,,,97,,,3,,,,,,,,,,,,,,
dig,105,454506,0.0-37.0-3.0,"""event"",""trial"",""time""
""fullscreenenter"",""1"",""3110""
","
","
","""event"",""trial"",""time""
""fullscreenenter"",""1"",""3110""
","
",,,,,,,,,,,,"[{""stimulus"":""run_exp/static/images/task_images/dig.jpg"",""time"":0},{""stimulus"":""run_exp/static/images/task_images/land.jpg"",""time"":668},{""stimulus"":""run_exp/static/images/task_images/dig.jpg"",""time"":1336}]",[],3,,,,,,,,,,,,,,
harvest,106,455511,0.0-37.0-4.0,"""event"",""trial"",""time""
""fullscreenenter"",""1"",""3110""
","
","
","""event"",""trial"",""time""
""fullscreenenter"",""1"",""3110""
","
",,null,run_exp/static/images/task_images/gems/97.jpg,null,,,,,,,49,,,3,,,,,97,0.510073804,0.505154639,,,,,,,
decision,107,455560,0.0-37.0-5.0,"""event"",""trial"",""time""
""fullscreenenter"",""1"",""3110""
","
","
","""event"",""trial"",""time""
""fullscreenenter"",""1"",""3110""
","
",,48,run_exp/static/images/task_images/land.jpg,65,,,,,,,49,,,3,,,,,,,,65626,1,0,FALSE,,,
dig,108,458516,0.0-38.0-0.0,"""event"",""trial"",""time""
""fullscreenenter"",""1"",""3110""
","
","
","""event"",""trial"",""time""
""fullscreenenter"",""1"",""3110""
","
",,,,,,,,,,,,"[{""stimulus"":""run_exp/static/images/task_images/dig.jpg"",""time"":0},{""stimulus"":""run_exp/static/images/task_images/land.jpg"",""time"":986},{""stimulus"":""run_exp/static/images/task_images/dig.jpg"",""time"":1969}]",[],3,,,,,,,,,,,,,,
harvest,109,459518,0.0-38.0-1.0,"""event"",""trial"",""time""
""fullscreenenter"",""1"",""3110""
","
","
","""event"",""trial"",""time""
""fullscreenenter"",""1"",""3110""
","
",,null,run_exp/static/images/task_images/gems/49.jpg,null,,,,,,,28,,,3,,,,,49,0.575171495,0.571428571,,,,,,,
decision,110,459738,0.0-38.0-2.0,"""event"",""trial"",""time""
""fullscreenenter"",""1"",""3110""
","
","
","""event"",""trial"",""time""
""fullscreenenter"",""1"",""3110""
","
",,218,run_exp/static/images/task_images/land.jpg,65,,,,,,,28,,,3,,,,,,,,69804,1,1,FALSE,,,
dig,111,462527,0.0-39.0-0.0,"""event"",""trial"",""time""
""fullscreenenter"",""1"",""3110""
","
","
","""event"",""trial"",""time""
""fullscreenenter"",""1"",""3110""
","
",,,,,,,,,,,,"[{""stimulus"":""run_exp/static/images/task_images/dig.jpg"",""time"":1},{""stimulus"":""run_exp/static/images/task_images/land.jpg"",""time"":929},{""stimulus"":""run_exp/static/images/task_images/dig.jpg"",""time"":1856}]",[],3,,,,,,,,,,,,,,
harvest,112,463528,0.0-39.0-1.0,"""event"",""trial"",""time""
""fullscreenenter"",""1"",""3110""
","
","
","""event"",""trial"",""time""
""fullscreenenter"",""1"",""3110""
","
",,null,run_exp/static/images/task_images/gems/28.jpg,null,,,,,,,12,,,3,,,,,28,0.437933394,0.428571429,,,,,,,
decision,113,463675,0.0-39.0-2.0,"""event"",""trial"",""time""
""fullscreenenter"",""1"",""3110""
","
","
","""event"",""trial"",""time""
""fullscreenenter"",""1"",""3110""
","
",,145,run_exp/static/images/task_images/land.jpg,65,,,,,,,12,,,3,,,,,,,,73741,1,2,FALSE,,,
dig,114,466530,0.0-40.0-0.0,"""event"",""trial"",""time""
""fullscreenenter"",""1"",""3110""
","
","
","""event"",""trial"",""time""
""fullscreenenter"",""1"",""3110""
","
",,,,,,,,,,,,"[{""stimulus"":""run_exp/static/images/task_images/dig.jpg"",""time"":0},{""stimulus"":""run_exp/static/images/task_images/land.jpg"",""time"":952},{""stimulus"":""run_exp/static/images/task_images/dig.jpg"",""time"":1903}]",[],3,,,,,,,,,,,,,,
harvest,115,467531,0.0-40.0-1.0,"""event"",""trial"",""time""
""fullscreenenter"",""1"",""3110""
","
","
","""event"",""trial"",""time""
""fullscreenenter"",""1"",""3110""
","
",,null,run_exp/static/images/task_images/gems/12.jpg,null,,,,,,,7,,,3,,,,,12,0.585907549,0.583333333,,,,,,,
decision,116,467536,0.0-40.0-2.0,"""event"",""trial"",""time""
""fullscreenenter"",""1"",""3110""
","
","
","""event"",""trial"",""time""
""fullscreenenter"",""1"",""3110""
","
",,4,run_exp/static/images/task_images/land.jpg,65,,,,,,,7,,,3,,,,,,,,77602,1,3,FALSE,,,
dig,117,470535,0.0-41.0-0.0,"""event"",""trial"",""time""
""fullscreenenter"",""1"",""3110""
","
","
","""event"",""trial"",""time""
""fullscreenenter"",""1"",""3110""
","
",,,,,,,,,,,,"[{""stimulus"":""run_exp/static/images/task_images/dig.jpg"",""time"":0},{""stimulus"":""run_exp/static/images/task_images/land.jpg"",""time"":1000},{""stimulus"":""run_exp/static/images/task_images/dig.jpg"",""time"":2011}]",[],3,,,,,,,,,,,,,,
harvest,118,471536,0.0-41.0-1.0,"""event"",""trial"",""time""
""fullscreenenter"",""1"",""3110""
","
","
","""event"",""trial"",""time""
""fullscreenenter"",""1"",""3110""
","
",,null,run_exp/static/images/task_images/gems/7.jpg,null,,,,,,,4,,,3,,,,,7,0.545842219,0.571428571,,,,,,,
decision,119,471739,0.0-41.0-2.0,"""event"",""trial"",""time""
""fullscreenenter"",""1"",""3110""
","
","
","""event"",""trial"",""time""
""fullscreenenter"",""1"",""3110""
","
",,202,run_exp/static/images/task_images/land.jpg,76,,,,,,,4,,,3,,,,,,,,81805,1,4,TRUE,,,
travel,120,481541,0.0-42.0-0.0,"""event"",""trial"",""time""
""fullscreenenter"",""1"",""3110""
","
","
","""event"",""trial"",""time""
""fullscreenenter"",""1"",""3110""
","
",,,,,,,,,,,,"[{""stimulus"":""run_exp/static/images/task_images/rocket-01.jpg"",""time"":0},{""stimulus"":""run_exp/static/images/task_images/rocket-02.jpg"",""time"":1090},{""stimulus"":""run_exp/static/images/task_images/rocket-03.jpg"",""time"":2178},{""stimulus"":""run_exp/static/images/task_images/rocket-04.jpg"",""time"":3266},{""stimulus"":""run_exp/static/images/task_images/rocket-05.jpg"",""time"":4354},{""stimulus"":""run_exp/static/images/task_images/rocket-06.jpg"",""time"":5442},{""stimulus"":""run_exp/static/images/task_images/rocket-07.jpg"",""time"":6529},{""stimulus"":""run_exp/static/images/task_images/rocket-08.jpg"",""time"":7616},{""stimulus"":""run_exp/static/images/task_images/rocket-09.jpg"",""time"":8706}]",[],3,,,,,,,,,,,,,,
alien_welcome,121,486545,0.0-42.0-1.0,"""event"",""trial"",""time""
""fullscreenenter"",""1"",""3110""
","
","
","""event"",""trial"",""time""
""fullscreenenter"",""1"",""3110""
","
",,null,run_exp/static/images/task_images/aliens/old_aliens/planet/alien_planet-47.jpg,null,,,,,,,,,,,,,47,"38,48,53,47,35,68,34,11,69,56,73,79,77,18,22,5,14,17,43,31,33,16,39,60,49,78,54,80,27,36,55,2,51,58,37",,,,,,,,,,
land,122,487048,0.0-42.0-2.0,"""event"",""trial"",""time""
""fullscreenenter"",""1"",""3110""
","
","
","""event"",""trial"",""time""
""fullscreenenter"",""1"",""3110""
","
",,null,run_exp/static/images/task_images/land.jpg,null,,,,,,,96,,,4,,,,,,,,,,,,,,
dig,123,489052,0.0-42.0-3.0,"""event"",""trial"",""time""
""fullscreenenter"",""1"",""3110""
","
","
","""event"",""trial"",""time""
""fullscreenenter"",""1"",""3110""
","
",,,,,,,,,,,,"[{""stimulus"":""run_exp/static/images/task_images/dig.jpg"",""time"":0},{""stimulus"":""run_exp/static/images/task_images/land.jpg"",""time"":667},{""stimulus"":""run_exp/static/images/task_images/dig.jpg"",""time"":1336}]",[],4,,,,,,,,,,,,,,
harvest,124,490055,0.0-42.0-4.0,"""event"",""trial"",""time""
""fullscreenenter"",""1"",""3110""
","
","
","""event"",""trial"",""time""
""fullscreenenter"",""1"",""3110""
","
",,null,run_exp/static/images/task_images/gems/96.jpg,null,,,,,,,45,,,4,,,,,96,0.468687809,0.46875,,,,,,,
decision,125,490145,0.0-42.0-5.0,"""event"",""trial"",""time""
""fullscreenenter"",""1"",""3110""
","
","
","""event"",""trial"",""time""
""fullscreenenter"",""1"",""3110""
","
",,88,run_exp/static/images/task_images/land.jpg,65,,,,,,,45,,,4,,,,,,,,100211,1,0,FALSE,,,
dig,126,493068,0.0-43.0-0.0,"""event"",""trial"",""time""
""fullscreenenter"",""1"",""3110""
","
","
","""event"",""trial"",""time""
""fullscreenenter"",""1"",""3110""
","
",,,,,,,,,,,,"[{""stimulus"":""run_exp/static/images/task_images/dig.jpg"",""time"":0},{""stimulus"":""run_exp/static/images/task_images/land.jpg"",""time"":971},{""stimulus"":""run_exp/static/images/task_images/dig.jpg"",""time"":1941}]",[],4,,,,,,,,,,,,,,
harvest,127,494070,0.0-43.0-1.0,"""event"",""trial"",""time""
""fullscreenenter"",""1"",""3110""
","
","
","""event"",""trial"",""time""
""fullscreenenter"",""1"",""3110""
","
",,null,run_exp/static/images/task_images/gems/45.jpg,null,,,,,,,20,,,4,,,,,45,0.444013911,0.444444444,,,,,,,
decision,128,494186,0.0-43.0-2.0,"""event"",""trial"",""time""
""fullscreenenter"",""1"",""3110""
","
","
","""event"",""trial"",""time""
""fullscreenenter"",""1"",""3110""
","
",,114,run_exp/static/images/task_images/land.jpg,65,,,,,,,20,,,4,,,,,,,,104252,1,1,FALSE,,,
dig,129,497077,0.0-44.0-0.0,"""event"",""trial"",""time""
""fullscreenenter"",""1"",""3110""
","
","
","""event"",""trial"",""time""
""fullscreenenter"",""1"",""3110""
","
",,,,,,,,,,,,"[{""stimulus"":""run_exp/static/images/task_images/dig.jpg"",""time"":0},{""stimulus"":""run_exp/static/images/task_images/land.jpg"",""time"":965},{""stimulus"":""run_exp/static/images/task_images/dig.jpg"",""time"":1927}]",[],4,,,,,,,,,,,,,,
harvest,130,498080,0.0-44.0-1.0,"""event"",""trial"",""time""
""fullscreenenter"",""1"",""3110""
","
","
","""event"",""trial"",""time""
""fullscreenenter"",""1"",""3110""
","
",,null,run_exp/static/images/task_images/gems/20.jpg,null,,,,,,,10,,,4,,,,,20,0.506497648,0.5,,,,,,,
decision,131,498273,0.0-44.0-2.0,"""event"",""trial"",""time""
""fullscreenenter"",""1"",""3110""
","
","
","""event"",""trial"",""time""
""fullscreenenter"",""1"",""3110""
","
",,193,run_exp/static/images/task_images/land.jpg,65,,,,,,,10,,,4,,,,,,,,108340,1,2,FALSE,,,
dig,132,501083,0.0-45.0-0.0,"""event"",""trial"",""time""
""fullscreenenter"",""1"",""3110""
","
","
","""event"",""trial"",""time""
""fullscreenenter"",""1"",""3110""
","
",,,,,,,,,,,,"[{""stimulus"":""run_exp/static/images/task_images/dig.jpg"",""time"":0},{""stimulus"":""run_exp/static/images/task_images/land.jpg"",""time"":937},{""stimulus"":""run_exp/static/images/task_images/dig.jpg"",""time"":1873}]",[],4,,,,,,,,,,,,,,
harvest,133,502085,0.0-45.0-1.0,"""event"",""trial"",""time""
""fullscreenenter"",""1"",""3110""
","
","
","""event"",""trial"",""time""
""fullscreenenter"",""1"",""3110""
","
",,null,run_exp/static/images/task_images/gems/10.jpg,null,,,,,,,4,,,4,,,,,10,0.439775513,0.4,,,,,,,
decision,134,502295,0.0-45.0-2.0,"""event"",""trial"",""time""
""fullscreenenter"",""1"",""3110""
","
","
","""event"",""trial"",""time""
""fullscreenenter"",""1"",""3110""
","
",,208,run_exp/static/images/task_images/land.jpg,76,,,,,,,4,,,4,,,,,,,,112361,1,3,TRUE,,,
travel,135,512090,0.0-46.0-0.0,"""event"",""trial"",""time""
""fullscreenenter"",""1"",""3110""
","
","
","""event"",""trial"",""time""
""fullscreenenter"",""1"",""3110""
","
",,,,,,,,,,,,"[{""stimulus"":""run_exp/static/images/task_images/rocket-01.jpg"",""time"":0},{""stimulus"":""run_exp/static/images/task_images/rocket-02.jpg"",""time"":1090},{""stimulus"":""run_exp/static/images/task_images/rocket-03.jpg"",""time"":2178},{""stimulus"":""run_exp/static/images/task_images/rocket-04.jpg"",""time"":3266},{""stimulus"":""run_exp/static/images/task_images/rocket-05.jpg"",""time"":4354},{""stimulus"":""run_exp/static/images/task_images/rocket-06.jpg"",""time"":5443},{""stimulus"":""run_exp/static/images/task_images/rocket-07.jpg"",""time"":6529},{""stimulus"":""run_exp/static/images/task_images/rocket-08.jpg"",""time"":7619},{""stimulus"":""run_exp/static/images/task_images/rocket-09.jpg"",""time"":8706}]",[],4,,,,,,,,,,,,,,
alien_welcome,136,517093,0.0-46.0-1.0,"""event"",""trial"",""time""
""fullscreenenter"",""1"",""3110""
","
","
","""event"",""trial"",""time""
""fullscreenenter"",""1"",""3110""
","
",,null,run_exp/static/images/task_images/aliens/old_aliens/planet/alien_planet-35.jpg,null,,,,,,,,,,,,,35,"38,48,53,47,35,68,34,11,69,56,73,79,77,18,22,5,14,17,43,31,33,16,39,60,49,78,54,80,27,36,55,2,51,58,37",,,,,,,,,,
land,137,517596,0.0-46.0-2.0,"""event"",""trial"",""time""
""fullscreenenter"",""1"",""3110""
","
","
","""event"",""trial"",""time""
""fullscreenenter"",""1"",""3110""
","
",,null,run_exp/static/images/task_images/land.jpg,null,,,,,,,96,,,5,,,,,,,,,,,,,,
dig,138,519601,0.0-46.0-3.0,"""event"",""trial"",""time""
""fullscreenenter"",""1"",""3110""
","
","
","""event"",""trial"",""time""
""fullscreenenter"",""1"",""3110""
","
",,,,,,,,,,,,"[{""stimulus"":""run_exp/static/images/task_images/dig.jpg"",""time"":1},{""stimulus"":""run_exp/static/images/task_images/land.jpg"",""time"":668},{""stimulus"":""run_exp/static/images/task_images/dig.jpg"",""time"":1337}]",[],5,,,,,,,,,,,,,,
harvest,139,520603,0.0-46.0-4.0,"""event"",""trial"",""time""
""fullscreenenter"",""1"",""3110""
","
","
","""event"",""trial"",""time""
""fullscreenenter"",""1"",""3110""
","
",,null,run_exp/static/images/task_images/gems/96.jpg,null,,,,,,,48,,,5,,,,,96,0.503835868,0.5,,,,,,,
decision,140,520709,0.0-46.0-5.0,"""event"",""trial"",""time""
""fullscreenenter"",""1"",""3110""
","
","
","""event"",""trial"",""time""
""fullscreenenter"",""1"",""3110""
","
",,104,run_exp/static/images/task_images/land.jpg,65,,,,,,,48,,,5,,,,,,,,130775,1,0,FALSE,,,
dig,141,523611,0.0-47.0-0.0,"""event"",""trial"",""time""
""fullscreenenter"",""1"",""3110""
","
","
","""event"",""trial"",""time""
""fullscreenenter"",""1"",""3110""
","
",,,,,,,,,,,,"[{""stimulus"":""run_exp/static/images/task_images/dig.jpg"",""time"":0},{""stimulus"":""run_exp/static/images/task_images/land.jpg"",""time"":967},{""stimulus"":""run_exp/static/images/task_images/dig.jpg"",""time"":1932}]",[],5,,,,,,,,,,,,,,
harvest,142,524613,0.0-47.0-1.0,"""event"",""trial"",""time""
""fullscreenenter"",""1"",""3110""
","
","
","""event"",""trial"",""time""
""fullscreenenter"",""1"",""3110""
","
",,null,run_exp/static/images/task_images/gems/48.jpg,null,,,,,,,23,,,5,,,,,48,0.4714482,0.479166667,,,,,,,
decision,143,524718,0.0-47.0-2.0,"""event"",""trial"",""time""
""fullscreenenter"",""1"",""3110""
","
","
","""event"",""trial"",""time""
""fullscreenenter"",""1"",""3110""
","
",,105,run_exp/static/images/task_images/land.jpg,65,,,,,,,23,,,5,,,,,,,,134784,1,1,FALSE,,,
dig,144,527616,0.0-48.0-0.0,"""event"",""trial"",""time""
""fullscreenenter"",""1"",""3110""
","
","
","""event"",""trial"",""time""
""fullscreenenter"",""1"",""3110""
","
",,,,,,,,,,,,"[{""stimulus"":""run_exp/static/images/task_images/dig.jpg"",""time"":1},{""stimulus"":""run_exp/static/images/task_images/land.jpg"",""time"":966},{""stimulus"":""run_exp/static/images/task_images/dig.jpg"",""time"":1932}]",[],5,,,,,,,,,,,,,,
harvest,145,528618,0.0-48.0-1.0,"""event"",""trial"",""time""
""fullscreenenter"",""1"",""3110""
","
","
","""event"",""trial"",""time""
""fullscreenenter"",""1"",""3110""
","
",,null,run_exp/static/images/task_images/gems/23.jpg,null,,,,,,,13,,,5,,,,,23,0.577423798,0.565217391,,,,,,,
decision,146,528665,0.0-48.0-2.0,"""event"",""trial"",""time""
""fullscreenenter"",""1"",""3110""
","
","
","""event"",""trial"",""time""
""fullscreenenter"",""1"",""3110""
","
",,46,run_exp/static/images/task_images/land.jpg,65,,,,,,,13,,,5,,,,,,,,138731,1,2,FALSE,,,
dig,147,531625,0.0-49.0-0.0,"""event"",""trial"",""time""
""fullscreenenter"",""1"",""3110""
","
","
","""event"",""trial"",""time""
""fullscreenenter"",""1"",""3110""
","
",,,,,,,,,,,,"[{""stimulus"":""run_exp/static/images/task_images/dig.jpg"",""time"":0},{""stimulus"":""run_exp/static/images/task_images/land.jpg"",""time"":996},{""stimulus"":""run_exp/static/images/task_images/dig.jpg"",""time"":1970}]",[],5,,,,,,,,,,,,,,
harvest,148,532627,0.0-49.0-1.0,"""event"",""trial"",""time""
""fullscreenenter"",""1"",""3110""
","
","
","""event"",""trial"",""time""
""fullscreenenter"",""1"",""3110""
","
",,null,run_exp/static/images/task_images/gems/13.jpg,null,,,,,,,7,,,5,,,,,13,0.50295798,0.538461538,,,,,,,
decision,149,532808,0.0-49.0-2.0,"""event"",""trial"",""time""
""fullscreenenter"",""1"",""3110""
","
","
","""event"",""trial"",""time""
""fullscreenenter"",""1"",""3110""
","
",,180,run_exp/static/images/task_images/land.jpg,65,,,,,,,7,,,5,,,,,,,,142874,1,3,FALSE,,,
dig,150,535630,0.0-50.0-0.0,"""event"",""trial"",""time""
""fullscreenenter"",""1"",""3110""
","
","
","""event"",""trial"",""time""
""fullscreenenter"",""1"",""3110""
","
",,,,,,,,,,,,"[{""stimulus"":""run_exp/static/images/task_images/dig.jpg"",""time"":0},{""stimulus"":""run_exp/static/images/task_images/land.jpg"",""time"":941},{""stimulus"":""run_exp/static/images/task_images/dig.jpg"",""time"":1881}]",[],5,,,,,,,,,,,,,,
harvest,151,536633,0.0-50.0-1.0,"""event"",""trial"",""time""
""fullscreenenter"",""1"",""3110""
","
","
","""event"",""trial"",""time""
""fullscreenenter"",""1"",""3110""
","
",,null,run_exp/static/images/task_images/gems/7.jpg,null,,,,,,,3,,,5,,,,,7,0.494051731,0.428571429,,,,,,,
decision,152,536842,0.0-50.0-2.0,"""event"",""trial"",""time""
""fullscreenenter"",""1"",""3110""
","
","
","""event"",""trial"",""time""
""fullscreenenter"",""1"",""3110""
","
",,207,run_exp/static/images/task_images/land.jpg,76,,,,,,,3,,,5,,,,,,,,146908,1,4,TRUE,,,
travel,153,546641,0.0-51.0-0.0,"""event"",""trial"",""time""
""fullscreenenter"",""1"",""3110""
","
","
","""event"",""trial"",""time""
""fullscreenenter"",""1"",""3110""
","
",,,,,,,,,,,,"[{""stimulus"":""run_exp/static/images/task_images/rocket-01.jpg"",""time"":1},{""stimulus"":""run_exp/static/images/task_images/rocket-02.jpg"",""time"":1091},{""stimulus"":""run_exp/static/images/task_images/rocket-03.jpg"",""time"":2179},{""stimulus"":""run_exp/static/images/task_images/rocket-04.jpg"",""time"":3266},{""stimulus"":""run_exp/static/images/task_images/rocket-05.jpg"",""time"":4355},{""stimulus"":""run_exp/static/images/task_images/rocket-06.jpg"",""time"":5442},{""stimulus"":""run_exp/static/images/task_images/rocket-07.jpg"",""time"":6531},{""stimulus"":""run_exp/static/images/task_images/rocket-08.jpg"",""time"":7620},{""stimulus"":""run_exp/static/images/task_images/rocket-09.jpg"",""time"":8707}]",[],5,,,,,,,,,,,,,,
alien_welcome,154,551643,0.0-51.0-1.0,"""event"",""trial"",""time""
""fullscreenenter"",""1"",""3110""
","
","
","""event"",""trial"",""time""
""fullscreenenter"",""1"",""3110""
","
",,null,run_exp/static/images/task_images/aliens/old_aliens/planet/alien_planet-68.jpg,null,,,,,,,,,,,,,68,"38,48,53,47,35,68,34,11,69,56,73,79,77,18,22,5,14,17,43,31,33,16,39,60,49,78,54,80,27,36,55,2,51,58,37",,,,,,,,,,
land,155,552147,0.0-51.0-2.0,"""event"",""trial"",""time""
""fullscreenenter"",""1"",""3110""
","
","
","""event"",""trial"",""time""
""fullscreenenter"",""1"",""3110""
","
",,null,run_exp/static/images/task_images/land.jpg,null,,,,,,,95,,,6,,,,,,,,,,,,,,
dig,156,554152,0.0-51.0-3.0,"""event"",""trial"",""time""
""fullscreenenter"",""1"",""3110""
","
","
","""event"",""trial"",""time""
""fullscreenenter"",""1"",""3110""
","
",,,,,,,,,,,,"[{""stimulus"":""run_exp/static/images/task_images/dig.jpg"",""time"":0},{""stimulus"":""run_exp/static/images/task_images/land.jpg"",""time"":670},{""stimulus"":""run_exp/static/images/task_images/dig.jpg"",""time"":1336}]",[],6,,,,,,,,,,,,,,
harvest,157,555153,0.0-51.0-4.0,"""event"",""trial"",""time""
""fullscreenenter"",""1"",""3110""
","
","
","""event"",""trial"",""time""
""fullscreenenter"",""1"",""3110""
","
",,null,run_exp/static/images/task_images/gems/95.jpg,null,,,,,,,75,,,6,,,,,95,0.788131336,0.789473684,,,,,,,
decision,158,555335,0.0-51.0-5.0,"""event"",""trial"",""time""
""fullscreenenter"",""1"",""3110""
","
","
","""event"",""trial"",""time""
""fullscreenenter"",""1"",""3110""
","
",,181,run_exp/static/images/task_images/land.jpg,65,,,,,,,75,,,6,,,,,,,,165401,1,0,FALSE,,,
dig,159,558155,0.0-52.0-0.0,"""event"",""trial"",""time""
""fullscreenenter"",""1"",""3110""
","
","
","""event"",""trial"",""time""
""fullscreenenter"",""1"",""3110""
","
",,,,,,,,,,,,"[{""stimulus"":""run_exp/static/images/task_images/dig.jpg"",""time"":0},{""stimulus"":""run_exp/static/images/task_images/land.jpg"",""time"":941},{""stimulus"":""run_exp/static/images/task_images/dig.jpg"",""time"":1880}]",[],6,,,,,,,,,,,,,,
harvest,160,559158,0.0-52.0-1.0,"""event"",""trial"",""time""
""fullscreenenter"",""1"",""3110""
","
","
","""event"",""trial"",""time""
""fullscreenenter"",""1"",""3110""
","
",,null,run_exp/static/images/task_images/gems/75.jpg,null,,,,,,,59,,,6,,,,,75,0.791672241,0.786666667,,,,,,,
decision,161,559360,0.0-52.0-2.0,"""event"",""trial"",""time""
""fullscreenenter"",""1"",""3110""
","
","
","""event"",""trial"",""time""
""fullscreenenter"",""1"",""3110""
","
",,200,run_exp/static/images/task_images/land.jpg,65,,,,,,,59,,,6,,,,,,,,169426,1,1,FALSE,,,
dig,162,562163,0.0-53.0-0.0,"""event"",""trial"",""time""
""fullscreenenter"",""1"",""3110""
","
","
","""event"",""trial"",""time""
""fullscreenenter"",""1"",""3110""
","
",,,,,,,,,,,,"[{""stimulus"":""run_exp/static/images/task_images/dig.jpg"",""time"":0},{""stimulus"":""run_exp/static/images/task_images/land.jpg"",""time"":933},{""stimulus"":""run_exp/static/images/task_images/dig.jpg"",""time"":1868}]",[],6,,,,,,,,,,,,,,
harvest,163,563166,0.0-53.0-1.0,"""event"",""trial"",""time""
""fullscreenenter"",""1"",""3110""
","
","
","""event"",""trial"",""time""
""fullscreenenter"",""1"",""3110""
","
",,null,run_exp/static/images/task_images/gems/59.jpg,null,,,,,,,50,,,6,,,,,59,0.850685456,0.847457627,,,,,,,
decision,164,563186,0.0-53.0-2.0,"""event"",""trial"",""time""
""fullscreenenter"",""1"",""3110""
","
","
","""event"",""trial"",""time""
""fullscreenenter"",""1"",""3110""
","
",,18,run_exp/static/images/task_images/land.jpg,65,,,,,,,50,,,6,,,,,,,,173252,1,2,FALSE,,,
dig,165,566171,0.0-54.0-0.0,"""event"",""trial"",""time""
""fullscreenenter"",""1"",""3110""
","
","
","""event"",""trial"",""time""
""fullscreenenter"",""1"",""3110""
","
",,,,,,,,,,,,"[{""stimulus"":""run_exp/static/images/task_images/dig.jpg"",""time"":0},{""stimulus"":""run_exp/static/images/task_images/land.jpg"",""time"":995},{""stimulus"":""run_exp/static/images/task_images/dig.jpg"",""time"":1988}]",[],6,,,,,,,,,,,,,,
harvest,166,567172,0.0-54.0-1.0,"""event"",""trial"",""time""
""fullscreenenter"",""1"",""3110""
","
","
","""event"",""trial"",""time""
""fullscreenenter"",""1"",""3110""
","
",,null,run_exp/static/images/task_images/gems/50.jpg,null,,,,,,,44,,,6,,,,,50,0.875497409,0.88,,,,,,,
decision,167,567304,0.0-54.0-2.0,"""event"",""trial"",""time""
""fullscreenenter"",""1"",""3110""
","
","
","""event"",""trial"",""time""
""fullscreenenter"",""1"",""3110""
","
",,130,run_exp/static/images/task_images/land.jpg,65,,,,,,,44,,,6,,,,,,,,177370,1,3,FALSE,,,
dig,168,570186,0.0-55.0-0.0,"""event"",""trial"",""time""
""fullscreenenter"",""1"",""3110""
","
","
","""event"",""trial"",""time""
""fullscreenenter"",""1"",""3110""
","
",,,,,,,,,,,,"[{""stimulus"":""run_exp/static/images/task_images/dig.jpg"",""time"":0},{""stimulus"":""run_exp/static/images/task_images/land.jpg"",""time"":957},{""stimulus"":""run_exp/static/images/task_images/dig.jpg"",""time"":1915}]",[],6,,,,,,,,,,,,,,
harvest,169,571188,0.0-55.0-1.0,"""event"",""trial"",""time""
""fullscreenenter"",""1"",""3110""
","
","
","""event"",""trial"",""time""
""fullscreenenter"",""1"",""3110""
","
",,null,run_exp/static/images/task_images/gems/44.jpg,null,,,,,,,36,,,6,,,,,44,0.811824094,0.818181818,,,,,,,
decision,170,571342,0.0-55.0-2.0,"""event"",""trial"",""time""
""fullscreenenter"",""1"",""3110""
","
","
","""event"",""trial"",""time""
""fullscreenenter"",""1"",""3110""
","
",,152,run_exp/static/images/task_images/land.jpg,65,,,,,,,36,,,6,,,,,,,,181408,1,4,FALSE,,,
dig,171,574192,0.0-56.0-0.0,"""event"",""trial"",""time""
""fullscreenenter"",""1"",""3110""
","
","
","""event"",""trial"",""time""
""fullscreenenter"",""1"",""3110""
","
",,,,,,,,,,,,"[{""stimulus"":""run_exp/static/images/task_images/dig.jpg"",""time"":0},{""stimulus"":""run_exp/static/images/task_images/land.jpg"",""time"":951},{""stimulus"":""run_exp/static/images/task_images/dig.jpg"",""time"":1900}]",[],6,,,,,,,,,,,,,,
harvest,172,575194,0.0-56.0-1.0,"""event"",""trial"",""time""
""fullscreenenter"",""1"",""3110""
","
","
","""event"",""trial"",""time""
""fullscreenenter"",""1"",""3110""
","
",,null,run_exp/static/images/task_images/gems/36.jpg,null,,,,,,,30,,,6,,,,,36,0.845534408,0.833333333,,,,,,,
decision,173,575302,0.0-56.0-2.0,"""event"",""trial"",""time""
""fullscreenenter"",""1"",""3110""
","
","
","""event"",""trial"",""time""
""fullscreenenter"",""1"",""3110""
","
",,106,run_exp/static/images/task_images/land.jpg,65,,,,,,,30,,,6,,,,,,,,185368,1,5,FALSE,,,
dig,174,578196,0.0-57.0-0.0,"""event"",""trial"",""time""
""fullscreenenter"",""1"",""3110""
","
","
","""event"",""trial"",""time""
""fullscreenenter"",""1"",""3110""
","
",,,,,,,,,,,,"[{""stimulus"":""run_exp/static/images/task_images/dig.jpg"",""time"":0},{""stimulus"":""run_exp/static/images/task_images/land.jpg"",""time"":966},{""stimulus"":""run_exp/static/images/task_images/dig.jpg"",""time"":1930}]",[],6,,,,,,,,,,,,,,
harvest,175,579199,0.0-57.0-1.0,"""event"",""trial"",""time""
""fullscreenenter"",""1"",""3110""
","
","
","""event"",""trial"",""time""
""fullscreenenter"",""1"",""3110""
","
",,null,run_exp/static/images/task_images/gems/30.jpg,null,,,,,,,23,,,6,,,,,30,0.769728994,0.766666667,,,,,,,
decision,176,579214,0.0-57.0-2.0,"""event"",""trial"",""time""
""fullscreenenter"",""1"",""3110""
","
","
","""event"",""trial"",""time""
""fullscreenenter"",""1"",""3110""
","
",,14,run_exp/static/images/task_images/land.jpg,65,,,,,,,23,,,6,,,,,,,,189280,1,6,FALSE,,,
dig,177,582202,0.0-58.0-0.0,"""event"",""trial"",""time""
""fullscreenenter"",""1"",""3110""
","
","
","""event"",""trial"",""time""
""fullscreenenter"",""1"",""3110""
","
",,,,,,,,,,,,"[{""stimulus"":""run_exp/static/images/task_images/dig.jpg"",""time"":0},{""stimulus"":""run_exp/static/images/task_images/land.jpg"",""time"":998},{""stimulus"":""run_exp/static/images/task_images/dig.jpg"",""time"":1992}]",[],6,,,,,,,,,,,,,,
harvest,178,583204,0.0-58.0-1.0,"""event"",""trial"",""time""
""fullscreenenter"",""1"",""3110""
","
","
","""event"",""trial"",""time""
""fullscreenenter"",""1"",""3110""
","
",,null,run_exp/static/images/task_images/gems/23.jpg,null,,,,,,,19,,,6,,,,,23,0.831031945,0.826086957,,,,,,,
decision,179,583418,0.0-58.0-2.0,"""event"",""trial"",""time""
""fullscreenenter"",""1"",""3110""
","
","
","""event"",""trial"",""time""
""fullscreenenter"",""1"",""3110""
","
",,212,run_exp/static/images/task_images/land.jpg,65,,,,,,,19,,,6,,,,,,,,193484,1,7,FALSE,,,
dig,180,586208,0.0-59.0-0.0,"""event"",""trial"",""time""
""fullscreenenter"",""1"",""3110""
","
","
","""event"",""trial"",""time""
""fullscreenenter"",""1"",""3110""
","
",,,,,,,,,,,,"[{""stimulus"":""run_exp/static/images/task_images/dig.jpg"",""time"":0},{""stimulus"":""run_exp/static/images/task_images/land.jpg"",""time"":929},{""stimulus"":""run_exp/static/images/task_images/dig.jpg"",""time"":1858}]",[],6,,,,,,,,,,,,,,
harvest,181,587212,0.0-59.0-1.0,"""event"",""trial"",""time""
""fullscreenenter"",""1"",""3110""
","
","
","""event"",""trial"",""time""
""fullscreenenter"",""1"",""3110""
","
",,null,run_exp/static/images/task_images/gems/19.jpg,null,,,,,,,15,,,6,,,,,19,0.786289625,0.789473684,,,,,,,
decision,182,587513,0.0-59.0-2.0,"""event"",""trial"",""time""
""fullscreenenter"",""1"",""3110""
","
","
","""event"",""trial"",""time""
""fullscreenenter"",""1"",""3110""
","
",,299,run_exp/static/images/task_images/land.jpg,65,,,,,,,15,,,6,,,,,,,,197579,1,8,FALSE,,,
dig,183,590215,0.0-60.0-0.0,"""event"",""trial"",""time""
""fullscreenenter"",""1"",""3110""
","
","
","""event"",""trial"",""time""
""fullscreenenter"",""1"",""3110""
","
",,,,,,,,,,,,"[{""stimulus"":""run_exp/static/images/task_images/dig.jpg"",""time"":0},{""stimulus"":""run_exp/static/images/task_images/land.jpg"",""time"":902},{""stimulus"":""run_exp/static/images/task_images/dig.jpg"",""time"":1803}]",[],6,,,,,,,,,,,,,,
harvest,184,591217,0.0-60.0-1.0,"""event"",""trial"",""time""
""fullscreenenter"",""1"",""3110""
","
","
","""event"",""trial"",""time""
""fullscreenenter"",""1"",""3110""
","
",,null,run_exp/static/images/task_images/gems/15.jpg,null,,,,,,,13,,,6,,,,,15,0.841312281,0.866666667,,,,,,,
decision,185,591298,0.0-60.0-2.0,"""event"",""trial"",""time""
""fullscreenenter"",""1"",""3110""
","
","
","""event"",""trial"",""time""
""fullscreenenter"",""1"",""3110""
","
",,79,run_exp/static/images/task_images/land.jpg,65,,,,,,,13,,,6,,,,,,,,201364,1,9,FALSE,,,
dig,186,594224,0.0-61.0-0.0,"""event"",""trial"",""time""
""fullscreenenter"",""1"",""3110""
","
","
","""event"",""trial"",""time""
""fullscreenenter"",""1"",""3110""
","
",,,,,,,,,,,,"[{""stimulus"":""run_exp/static/images/task_images/dig.jpg"",""time"":0},{""stimulus"":""run_exp/static/images/task_images/land.jpg"",""time"":976},{""stimulus"":""run_exp/static/images/task_images/dig.jpg"",""time"":1948}]",[],6,,,,,,,,,,,,,,
harvest,187,595227,0.0-61.0-1.0,"""event"",""trial"",""time""
""fullscreenenter"",""1"",""3110""
","
","
","""event"",""trial"",""time""
""fullscreenenter"",""1"",""3110""
","
",,null,run_exp/static/images/task_images/gems/13.jpg,null,,,,,,,11,,,6,,,,,13,0.85374267,0.846153846,,,,,,,
decision,188,595392,0.0-61.0-2.0,"""event"",""trial"",""time""
""fullscreenenter"",""1"",""3110""
","
","
","""event"",""trial"",""time""
""fullscreenenter"",""1"",""3110""
","
",,162,run_exp/static/images/task_images/land.jpg,76,,,,,,,11,,,6,,,,,,,,205458,1,10,TRUE,,,
travel,189,605235,0.0-62.0-0.0,"""event"",""trial"",""time""
""fullscreenenter"",""1"",""3110""
","
","
","""event"",""trial"",""time""
""fullscreenenter"",""1"",""3110""
","
",,,,,,,,,,,,"[{""stimulus"":""run_exp/static/images/task_images/rocket-01.jpg"",""time"":0},{""stimulus"":""run_exp/static/images/task_images/rocket-02.jpg"",""time"":1096},{""stimulus"":""run_exp/static/images/task_images/rocket-03.jpg"",""time"":2191},{""stimulus"":""run_exp/static/images/task_images/rocket-04.jpg"",""time"":3281},{""stimulus"":""run_exp/static/images/task_images/rocket-05.jpg"",""time"":4374},{""stimulus"":""run_exp/static/images/task_images/rocket-06.jpg"",""time"":5467},{""stimulus"":""run_exp/static/images/task_images/rocket-07.jpg"",""time"":6560},{""stimulus"":""run_exp/static/images/task_images/rocket-08.jpg"",""time"":7653},{""stimulus"":""run_exp/static/images/task_images/rocket-09.jpg"",""time"":8746}]",[],6,,,,,,,,,,,,,,
alien_welcome,190,610237,0.0-62.0-1.0,"""event"",""trial"",""time""
""fullscreenenter"",""1"",""3110""
","
","
","""event"",""trial"",""time""
""fullscreenenter"",""1"",""3110""
","
",,null,run_exp/static/images/task_images/aliens/old_aliens/planet/alien_planet-34.jpg,null,,,,,,,,,,,,,34,"38,48,53,47,35,68,34,11,69,56,73,79,77,18,22,5,14,17,43,31,33,16,39,60,49,78,54,80,27,36,55,2,51,58,37",,,,,,,,,,
land,191,610740,0.0-62.0-2.0,"""event"",""trial"",""time""
""fullscreenenter"",""1"",""3110""
","
","
","""event"",""trial"",""time""
""fullscreenenter"",""1"",""3110""
","
",,null,run_exp/static/images/task_images/land.jpg,null,,,,,,,99,,,7,,,,,,,,,,,,,,
dig,192,612742,0.0-62.0-3.0,"""event"",""trial"",""time""
""fullscreenenter"",""1"",""3110""
","
","
","""event"",""trial"",""time""
""fullscreenenter"",""1"",""3110""
","
",,,,,,,,,,,,"[{""stimulus"":""run_exp/static/images/task_images/dig.jpg"",""time"":1},{""stimulus"":""run_exp/static/images/task_images/land.jpg"",""time"":669},{""stimulus"":""run_exp/static/images/task_images/dig.jpg"",""time"":1336}]",[],7,,,,,,,,,,,,,,
harvest,193,613744,0.0-62.0-4.0,"""event"",""trial"",""time""
""fullscreenenter"",""1"",""3110""
","
","
","""event"",""trial"",""time""
""fullscreenenter"",""1"",""3110""
","
",,null,run_exp/static/images/task_images/gems/99.jpg,null,,,,,,,84,,,7,,,,,99,0.851624946,0.848484848,,,,,,,
decision,194,613902,0.0-62.0-5.0,"""event"",""trial"",""time""
""fullscreenenter"",""1"",""3110""
","
","
","""event"",""trial"",""time""
""fullscreenenter"",""1"",""3110""
","
",,156,run_exp/static/images/task_images/land.jpg,65,,,,,,,84,,,7,,,,,,,,223968,1,0,FALSE,,,
dig,195,616748,0.0-63.0-0.0,"""event"",""trial"",""time""
""fullscreenenter"",""1"",""3110""
","
","
","""event"",""trial"",""time""
""fullscreenenter"",""1"",""3110""
","
",,,,,,,,,,,,"[{""stimulus"":""run_exp/static/images/task_images/dig.jpg"",""time"":0},{""stimulus"":""run_exp/static/images/task_images/land.jpg"",""time"":949},{""stimulus"":""run_exp/static/images/task_images/dig.jpg"",""time"":1897}]",[],7,,,,,,,,,,,,,,
harvest,196,617750,0.0-63.0-1.0,"""event"",""trial"",""time""
""fullscreenenter"",""1"",""3110""
","
","
","""event"",""trial"",""time""
""fullscreenenter"",""1"",""3110""
","
",,null,run_exp/static/images/task_images/gems/84.jpg,null,,,,,,,62,,,7,,,,,84,0.734891179,0.738095238,,,,,,,
decision,197,617856,0.0-63.0-2.0,"""event"",""trial"",""time""
""fullscreenenter"",""1"",""3110""
","
","
","""event"",""trial"",""time""
""fullscreenenter"",""1"",""3110""
","
",,103,run_exp/static/images/task_images/land.jpg,65,,,,,,,62,,,7,,,,,,,,227922,1,1,FALSE,,,
dig,198,620754,0.0-64.0-0.0,"""event"",""trial"",""time""
""fullscreenenter"",""1"",""3110""
","
","
","""event"",""trial"",""time""
""fullscreenenter"",""1"",""3110""
","
",,,,,,,,,,,,"[{""stimulus"":""run_exp/static/images/task_images/dig.jpg"",""time"":0},{""stimulus"":""run_exp/static/images/task_images/land.jpg"",""time"":967},{""stimulus"":""run_exp/static/images/task_images/dig.jpg"",""time"":1931}]",[],7,,,,,,,,,,,,,,
harvest,199,621755,0.0-64.0-1.0,"""event"",""trial"",""time""
""fullscreenenter"",""1"",""3110""
","
","
","""event"",""trial"",""time""
""fullscreenenter"",""1"",""3110""
","
",,null,run_exp/static/images/task_images/gems/62.jpg,null,,,,,,,47,,,7,,,,,62,0.751748791,0.758064516,,,,,,,
decision,200,622038,0.0-64.0-2.0,"""event"",""trial"",""time""
""fullscreenenter"",""1"",""3110""
","
","
","""event"",""trial"",""time""
""fullscreenenter"",""1"",""3110""
","
",,281,run_exp/static/images/task_images/land.jpg,65,,,,,,,47,,,7,,,,,,,,232104,1,2,FALSE,,,
dig,201,624759,0.0-65.0-0.0,"""event"",""trial"",""time""
""fullscreenenter"",""1"",""3110""
","
","
","""event"",""trial"",""time""
""fullscreenenter"",""1"",""3110""
","
",,,,,,,,,,,,"[{""stimulus"":""run_exp/static/images/task_images/dig.jpg"",""time"":0},{""stimulus"":""run_exp/static/images/task_images/land.jpg"",""time"":906},{""stimulus"":""run_exp/static/images/task_images/dig.jpg"",""time"":1813}]",[],7,,,,,,,,,,,,,,
harvest,202,625760,0.0-65.0-1.0,"""event"",""trial"",""time""
""fullscreenenter"",""1"",""3110""
","
","
","""event"",""trial"",""time""
""fullscreenenter"",""1"",""3110""
","
",,null,run_exp/static/images/task_images/gems/47.jpg,null,,,,,,,36,,,7,,,,,47,0.770075579,0.765957447,,,,,,,
decision,203,625991,0.0-65.0-2.0,"""event"",""trial"",""time""
""fullscreenenter"",""1"",""3110""
","
","
","""event"",""trial"",""time""
""fullscreenenter"",""1"",""3110""
","
",,229,run_exp/static/images/task_images/land.jpg,65,,,,,,,36,,,7,,,,,,,,236057,1,3,FALSE,,,
dig,204,628763,0.0-66.0-0.0,"""event"",""trial"",""time""
""fullscreenenter"",""1"",""3110""
","
","
","""event"",""trial"",""time""
""fullscreenenter"",""1"",""3110""
","
",,,,,,,,,,,,"[{""stimulus"":""run_exp/static/images/task_images/dig.jpg"",""time"":0},{""stimulus"":""run_exp/static/images/task_images/land.jpg"",""time"":925},{""stimulus"":""run_exp/static/images/task_images/dig.jpg"",""time"":1847}]",[],7,,,,,,,,,,,,,,
harvest,205,629775,0.0-66.0-1.0,"""event"",""trial"",""time""
""fullscreenenter"",""1"",""3110""
","
","
","""event"",""trial"",""time""
""fullscreenenter"",""1"",""3110""
","
",,null,run_exp/static/images/task_images/gems/36.jpg,null,,,,,,,28,,,7,,,,,36,0.788322891,0.777777778,,,,,,,
decision,206,629946,0.0-66.0-2.0,"""event"",""trial"",""time""
""fullscreenenter"",""1"",""3110""
","
","
","""event"",""trial"",""time""
""fullscreenenter"",""1"",""3110""
","
",,169,run_exp/static/images/task_images/land.jpg,65,,,,,,,28,,,7,,,,,,,,240012,1,4,FALSE,,,
dig,207,632782,0.0-67.0-0.0,"""event"",""trial"",""time""
""fullscreenenter"",""1"",""3110""
","
","
","""event"",""trial"",""time""
""fullscreenenter"",""1"",""3110""
","
",,,,,,,,,,,,"[{""stimulus"":""run_exp/static/images/task_images/dig.jpg"",""time"":2},{""stimulus"":""run_exp/static/images/task_images/land.jpg"",""time"":946},{""stimulus"":""run_exp/static/images/task_images/dig.jpg"",""time"":1890}]",[],7,,,,,,,,,,,,,,
harvest,208,633785,0.0-67.0-1.0,"""event"",""trial"",""time""
""fullscreenenter"",""1"",""3110""
","
","
","""event"",""trial"",""time""
""fullscreenenter"",""1"",""3110""
","
",,null,run_exp/static/images/task_images/gems/28.jpg,null,,,,,,,24,,,7,,,,,28,0.855763169,0.857142857,,,,,,,
decision,209,633865,0.0-67.0-2.0,"""event"",""trial"",""time""
""fullscreenenter"",""1"",""3110""
","
","
","""event"",""trial"",""time""
""fullscreenenter"",""1"",""3110""
","
",,78,run_exp/static/images/task_images/land.jpg,65,,,,,,,24,,,7,,,,,,,,243931,1,5,FALSE,,,
dig,210,636793,0.0-68.0-0.0,"""event"",""trial"",""time""
""fullscreenenter"",""1"",""3110""
","
","
","""event"",""trial"",""time""
""fullscreenenter"",""1"",""3110""
","
",,,,,,,,,,,,"[{""stimulus"":""run_exp/static/images/task_images/dig.jpg"",""time"":0},{""stimulus"":""run_exp/static/images/task_images/land.jpg"",""time"":986},{""stimulus"":""run_exp/static/images/task_images/dig.jpg"",""time"":1950}]",[],7,,,,,,,,,,,,,,
harvest,211,637796,0.0-68.0-1.0,"""event"",""trial"",""time""
""fullscreenenter"",""1"",""3110""
","
","
","""event"",""trial"",""time""
""fullscreenenter"",""1"",""3110""
","
",,null,run_exp/static/images/task_images/gems/24.jpg,null,,,,,,,18,,,7,,,,,24,0.764971067,0.75,,,,,,,
decision,212,638024,0.0-68.0-2.0,"""event"",""trial"",""time""
""fullscreenenter"",""1"",""3110""
","
","
","""event"",""trial"",""time""
""fullscreenenter"",""1"",""3110""
","
",,227,run_exp/static/images/task_images/land.jpg,65,,,,,,,18,,,7,,,,,,,,248090,1,6,FALSE,,,
dig,213,640799,0.0-69.0-0.0,"""event"",""trial"",""time""
""fullscreenenter"",""1"",""3110""
","
","
","""event"",""trial"",""time""
""fullscreenenter"",""1"",""3110""
","
",,,,,,,,,,,,"[{""stimulus"":""run_exp/static/images/task_images/dig.jpg"",""time"":0},{""stimulus"":""run_exp/static/images/task_images/land.jpg"",""time"":926},{""stimulus"":""run_exp/static/images/task_images/dig.jpg"",""time"":1851}]",[],7,,,,,,,,,,,,,,
harvest,214,641801,0.0-69.0-1.0,"""event"",""trial"",""time""
""fullscreenenter"",""1"",""3110""
","
","
","""event"",""trial"",""time""
""fullscreenenter"",""1"",""3110""
","
",,null,run_exp/static/images/task_images/gems/18.jpg,null,,,,,,,14,,,7,,,,,18,0.794634633,0.777777778,,,,,,,
decision,215,641873,0.0-69.0-2.0,"""event"",""trial"",""time""
""fullscreenenter"",""1"",""3110""
","
","
","""event"",""trial"",""time""
""fullscreenenter"",""1"",""3110""
","
",,71,run_exp/static/images/task_images/land.jpg,65,,,,,,,14,,,7,,,,,,,,251939,1,7,FALSE,,,
dig,216,644802,0.0-70.0-0.0,"""event"",""trial"",""time""
""fullscreenenter"",""1"",""3110""
","
","
","""event"",""trial"",""time""
""fullscreenenter"",""1"",""3110""
","
",,,,,,,,,,,,"[{""stimulus"":""run_exp/static/images/task_images/dig.jpg"",""time"":0},{""stimulus"":""run_exp/static/images/task_images/land.jpg"",""time"":977},{""stimulus"":""run_exp/static/images/task_images/dig.jpg"",""time"":1953}]",[],7,,,,,,,,,,,,,,
harvest,217,645804,0.0-70.0-1.0,"""event"",""trial"",""time""
""fullscreenenter"",""1"",""3110""
","
","
","""event"",""trial"",""time""
""fullscreenenter"",""1"",""3110""
","
",,null,run_exp/static/images/task_images/gems/14.jpg,null,,,,,,,10,,,7,,,,,14,0.684787092,0.714285714,,,,,,,
decision,218,646001,0.0-70.0-2.0,"""event"",""trial"",""time""
""fullscreenenter"",""1"",""3110""
","
","
","""event"",""trial"",""time""
""fullscreenenter"",""1"",""3110""
","
",,196,run_exp/static/images/task_images/land.jpg,76,,,,,,,10,,,7,,,,,,,,256067,1,8,TRUE,,,
travel,219,655810,0.0-71.0-0.0,"""event"",""trial"",""time""
""fullscreenenter"",""1"",""3110""
","
","
","""event"",""trial"",""time""
""fullscreenenter"",""1"",""3110""
","
",,,,,,,,,,,,"[{""stimulus"":""run_exp/static/images/task_images/rocket-01.jpg"",""time"":0},{""stimulus"":""run_exp/static/images/task_images/rocket-02.jpg"",""time"":1091},{""stimulus"":""run_exp/static/images/task_images/rocket-03.jpg"",""time"":2179},{""stimulus"":""run_exp/static/images/task_images/rocket-04.jpg"",""time"":3268},{""stimulus"":""run_exp/static/images/task_images/rocket-05.jpg"",""time"":4357},{""stimulus"":""run_exp/static/images/task_images/rocket-06.jpg"",""time"":5447},{""stimulus"":""run_exp/static/images/task_images/rocket-07.jpg"",""time"":6536},{""stimulus"":""run_exp/static/images/task_images/rocket-08.jpg"",""time"":7625},{""stimulus"":""run_exp/static/images/task_images/rocket-09.jpg"",""time"":8713}]",[],7,,,,,,,,,,,,,,
alien_welcome,220,660812,0.0-71.0-1.0,"""event"",""trial"",""time""
""fullscreenenter"",""1"",""3110""
","
","
","""event"",""trial"",""time""
""fullscreenenter"",""1"",""3110""
","
",,null,run_exp/static/images/task_images/aliens/old_aliens/planet/alien_planet-11.jpg,null,,,,,,,,,,,,,11,"38,48,53,47,35,68,34,11,69,56,73,79,77,18,22,5,14,17,43,31,33,16,39,60,49,78,54,80,27,36,55,2,51,58,37",,,,,,,,,,
land,221,661316,0.0-71.0-2.0,"""event"",""trial"",""time""
""fullscreenenter"",""1"",""3110""
","
","
","""event"",""trial"",""time""
""fullscreenenter"",""1"",""3110""
","
",,null,run_exp/static/images/task_images/land.jpg,null,,,,,,,94,,,8,,,,,,,,,,,,,,
dig,222,663320,0.0-71.0-3.0,"""event"",""trial"",""time""
""fullscreenenter"",""1"",""3110""
","
","
","""event"",""trial"",""time""
""fullscreenenter"",""1"",""3110""
","
",,,,,,,,,,,,"[{""stimulus"":""run_exp/static/images/task_images/dig.jpg"",""time"":1},{""stimulus"":""run_exp/static/images/task_images/land.jpg"",""time"":669},{""stimulus"":""run_exp/static/images/task_images/dig.jpg"",""time"":1336}]",[],8,,,,,,,,,,,,,,
harvest,223,664322,0.0-71.0-4.0,"""event"",""trial"",""time""
""fullscreenenter"",""1"",""3110""
","
","
","""event"",""trial"",""time""
""fullscreenenter"",""1"",""3110""
","
",,null,run_exp/static/images/task_images/gems/94.jpg,null,,,,,,,76,,,8,,,,,94,0.805289983,0.808510638,,,,,,,
decision,224,664447,0.0-71.0-5.0,"""event"",""trial"",""time""
""fullscreenenter"",""1"",""3110""
","
","
","""event"",""trial"",""time""
""fullscreenenter"",""1"",""3110""
","
",,123,run_exp/static/images/task_images/land.jpg,65,,,,,,,76,,,8,,,,,,,,274513,1,0,FALSE,,,
dig,225,667327,0.0-72.0-0.0,"""event"",""trial"",""time""
""fullscreenenter"",""1"",""3110""
","
","
","""event"",""trial"",""time""
""fullscreenenter"",""1"",""3110""
","
",,,,,,,,,,,,"[{""stimulus"":""run_exp/static/images/task_images/dig.jpg"",""time"":0},{""stimulus"":""run_exp/static/images/task_images/land.jpg"",""time"":960},{""stimulus"":""run_exp/static/images/task_images/dig.jpg"",""time"":1919}]",[],8,,,,,,,,,,,,,,
harvest,226,668329,0.0-72.0-1.0,"""event"",""trial"",""time""
""fullscreenenter"",""1"",""3110""
","
","
","""event"",""trial"",""time""
""fullscreenenter"",""1"",""3110""
","
",,null,run_exp/static/images/task_images/gems/76.jpg,null,,,,,,,58,,,8,,,,,76,0.762168562,0.763157895,,,,,,,
decision,227,668688,0.0-72.0-2.0,"""event"",""trial"",""time""
""fullscreenenter"",""1"",""3110""
","
","
","""event"",""trial"",""time""
""fullscreenenter"",""1"",""3110""
","
",,358,run_exp/static/images/task_images/land.jpg,65,,,,,,,58,,,8,,,,,,,,278755,1,1,FALSE,,,
dig,228,671334,0.0-73.0-0.0,"""event"",""trial"",""time""
""fullscreenenter"",""1"",""3110""
","
","
","""event"",""trial"",""time""
""fullscreenenter"",""1"",""3110""
","
",,,,,,,,,,,,"[{""stimulus"":""run_exp/static/images/task_images/dig.jpg"",""time"":1},{""stimulus"":""run_exp/static/images/task_images/land.jpg"",""time"":882},{""stimulus"":""run_exp/static/images/task_images/dig.jpg"",""time"":1761}]",[],8,,,,,,,,,,,,,,
harvest,229,672336,0.0-73.0-1.0,"""event"",""trial"",""time""
""fullscreenenter"",""1"",""3110""
","
","
","""event"",""trial"",""time""
""fullscreenenter"",""1"",""3110""
","
",,null,run_exp/static/images/task_images/gems/58.jpg,null,,,,,,,44,,,8,,,,,58,0.759611845,0.75862069,,,,,,,
decision,230,672390,0.0-73.0-2.0,"""event"",""trial"",""time""
""fullscreenenter"",""1"",""3110""
","
","
","""event"",""trial"",""time""
""fullscreenenter"",""1"",""3110""
","
",,52,run_exp/static/images/task_images/land.jpg,65,,,,,,,44,,,8,,,,,,,,282456,1,2,FALSE,,,
dig,231,675338,0.0-74.0-0.0,"""event"",""trial"",""time""
""fullscreenenter"",""1"",""3110""
","
","
","""event"",""trial"",""time""
""fullscreenenter"",""1"",""3110""
","
",,,,,,,,,,,,"[{""stimulus"":""run_exp/static/images/task_images/dig.jpg"",""time"":0},{""stimulus"":""run_exp/static/images/task_images/land.jpg"",""time"":984},{""stimulus"":""run_exp/static/images/task_images/dig.jpg"",""time"":1965}]",[],8,,,,,,,,,,,,,,
harvest,232,676341,0.0-74.0-1.0,"""event"",""trial"",""time""
""fullscreenenter"",""1"",""3110""
","
","
","""event"",""trial"",""time""
""fullscreenenter"",""1"",""3110""
","
",,null,run_exp/static/images/task_images/gems/44.jpg,null,,,,,,,35,,,8,,,,,44,0.804900419,0.795454545,,,,,,,
decision,233,676558,0.0-74.0-2.0,"""event"",""trial"",""time""
""fullscreenenter"",""1"",""3110""
","
","
","""event"",""trial"",""time""
""fullscreenenter"",""1"",""3110""
","
",,216,run_exp/static/images/task_images/land.jpg,65,,,,,,,35,,,8,,,,,,,,286624,1,3,FALSE,,,
dig,234,679344,0.0-75.0-0.0,"""event"",""trial"",""time""
""fullscreenenter"",""1"",""3110""
","
","
","""event"",""trial"",""time""
""fullscreenenter"",""1"",""3110""
","
",,,,,,,,,,,,"[{""stimulus"":""run_exp/static/images/task_images/dig.jpg"",""time"":1},{""stimulus"":""run_exp/static/images/task_images/land.jpg"",""time"":930},{""stimulus"":""run_exp/static/images/task_images/dig.jpg"",""time"":1858}]",[],8,,,,,,,,,,,,,,
harvest,235,680346,0.0-75.0-1.0,"""event"",""trial"",""time""
""fullscreenenter"",""1"",""3110""
","
","
","""event"",""trial"",""time""
""fullscreenenter"",""1"",""3110""
","
",,null,run_exp/static/images/task_images/gems/35.jpg,null,,,,,,,29,,,8,,,,,35,0.81717573,0.828571429,,,,,,,
decision,236,680383,0.0-75.0-2.0,"""event"",""trial"",""time""
""fullscreenenter"",""1"",""3110""
","
","
","""event"",""trial"",""time""
""fullscreenenter"",""1"",""3110""
","
",,36,run_exp/static/images/task_images/land.jpg,65,,,,,,,29,,,8,,,,,,,,290449,1,4,FALSE,,,
dig,237,683353,0.0-76.0-0.0,"""event"",""trial"",""time""
""fullscreenenter"",""1"",""3110""
","
","
","""event"",""trial"",""time""
""fullscreenenter"",""1"",""3110""
","
",,,,,,,,,,,,"[{""stimulus"":""run_exp/static/images/task_images/dig.jpg"",""time"":0},{""stimulus"":""run_exp/static/images/task_images/land.jpg"",""time"":990},{""stimulus"":""run_exp/static/images/task_images/dig.jpg"",""time"":1978}]",[],8,,,,,,,,,,,,,,
harvest,238,684355,0.0-76.0-1.0,"""event"",""trial"",""time""
""fullscreenenter"",""1"",""3110""
","
","
","""event"",""trial"",""time""
""fullscreenenter"",""1"",""3110""
","
",,null,run_exp/static/images/task_images/gems/29.jpg,null,,,,,,,23,,,8,,,,,29,0.783399797,0.793103448,,,,,,,
decision,239,684689,0.0-76.0-2.0,"""event"",""trial"",""time""
""fullscreenenter"",""1"",""3110""
","
","
","""event"",""trial"",""time""
""fullscreenenter"",""1"",""3110""
","
",,333,run_exp/static/images/task_images/land.jpg,65,,,,,,,23,,,8,,,,,,,,294755,1,5,FALSE,,,
dig,240,687360,0.0-77.0-0.0,"""event"",""trial"",""time""
""fullscreenenter"",""1"",""3110""
","
","
","""event"",""trial"",""time""
""fullscreenenter"",""1"",""3110""
","
",,,,,,,,,,,,"[{""stimulus"":""run_exp/static/images/task_images/dig.jpg"",""time"":0},{""stimulus"":""run_exp/static/images/task_images/land.jpg"",""time"":891},{""stimulus"":""run_exp/static/images/task_images/dig.jpg"",""time"":1779}]",[],8,,,,,,,,,,,,,,
harvest,241,688362,0.0-77.0-1.0,"""event"",""trial"",""time""
""fullscreenenter"",""1"",""3110""
","
","
","""event"",""trial"",""time""
""fullscreenenter"",""1"",""3110""
","
",,null,run_exp/static/images/task_images/gems/23.jpg,null,,,,,,,20,,,8,,,,,23,0.877603062,0.869565217,,,,,,,
decision,242,688440,0.0-77.0-2.0,"""event"",""trial"",""time""
""fullscreenenter"",""1"",""3110""
","
","
","""event"",""trial"",""time""
""fullscreenenter"",""1"",""3110""
","
",,75,run_exp/static/images/task_images/land.jpg,65,,,,,,,20,,,8,,,,,,,,298506,1,6,FALSE,,,
dig,243,691367,0.0-78.0-0.0,"""event"",""trial"",""time""
""fullscreenenter"",""1"",""3110""
","
","
","""event"",""trial"",""time""
""fullscreenenter"",""1"",""3110""
","
",,,,,,,,,,,,"[{""stimulus"":""run_exp/static/images/task_images/dig.jpg"",""time"":0},{""stimulus"":""run_exp/static/images/task_images/land.jpg"",""time"":977},{""stimulus"":""run_exp/static/images/task_images/dig.jpg"",""time"":1951}]",[],8,,,,,,,,,,,,,,
harvest,244,692371,0.0-78.0-1.0,"""event"",""trial"",""time""
""fullscreenenter"",""1"",""3110""
","
","
","""event"",""trial"",""time""
""fullscreenenter"",""1"",""3110""
","
",,null,run_exp/static/images/task_images/gems/20.jpg,null,,,,,,,17,,,8,,,,,20,0.856045527,0.85,,,,,,,
decision,245,692478,0.0-78.0-2.0,"""event"",""trial"",""time""
""fullscreenenter"",""1"",""3110""
","
","
","""event"",""trial"",""time""
""fullscreenenter"",""1"",""3110""
","
",,105,run_exp/static/images/task_images/land.jpg,65,,,,,,,17,,,8,,,,,,,,302544,1,7,TRUE,,,
end_of_block_continue,246,698551,0.0-79.0-0.0,"""event"",""trial"",""time""
""fullscreenenter"",""1"",""3110""
","
","
","""event"",""trial"",""time""
""fullscreenenter"",""1"",""3110""
","
",,6071,run_exp/static/audio/clip_32_block_end.m4a,,,,,,,0,,,,,,,,,,,,,,,,,,
alien_welcome,247,703554,0.0-80.0-0.0,"""event"",""trial"",""time""
""fullscreenenter"",""1"",""3110""
","
","
","""event"",""trial"",""time""
""fullscreenenter"",""1"",""3110""
","
",,null,run_exp/static/images/task_images/aliens/old_aliens/planet/alien_planet-69.jpg,null,,,,,,,,,,,,,69,"38,48,53,47,35,68,34,11,69,56,73,79,77,18,22,5,14,17,43,31,33,16,39,60,49,78,54,80,27,36,55,2,51,58,37",,,,,,,,,,
land,248,704057,0.0-80.0-1.0,"""event"",""trial"",""time""
""fullscreenenter"",""1"",""3110""
","
","
","""event"",""trial"",""time""
""fullscreenenter"",""1"",""3110""
","
",,null,run_exp/static/images/task_images/land.jpg,null,,,,,,,98,,,9,,,,,,,,,,,,,,
dig,249,706062,0.0-80.0-2.0,"""event"",""trial"",""time""
""fullscreenenter"",""1"",""3110""
","
","
","""event"",""trial"",""time""
""fullscreenenter"",""1"",""3110""
","
",,,,,,,,,,,,"[{""stimulus"":""run_exp/static/images/task_images/dig.jpg"",""time"":0},{""stimulus"":""run_exp/static/images/task_images/land.jpg"",""time"":667},{""stimulus"":""run_exp/static/images/task_images/dig.jpg"",""time"":1336}]",[],9,,,,,,,,,,,,,,
harvest,250,707064,0.0-80.0-3.0,"""event"",""trial"",""time""
""fullscreenenter"",""1"",""3110""
","
","
","""event"",""trial"",""time""
""fullscreenenter"",""1"",""3110""
","
",,null,run_exp/static/images/task_images/gems/98.jpg,null,,,,,,,32,,,9,,,,,98,0.325826649,0.326530612,,,,,,,
decision,251,707110,0.0-80.0-4.0,"""event"",""trial"",""time""
""fullscreenenter"",""1"",""3110""
","
","
","""event"",""trial"",""time""
""fullscreenenter"",""1"",""3110""
","
",,45,run_exp/static/images/task_images/land.jpg,65,,,,,,,32,,,9,,,,,,,,8558,2,0,FALSE,,,
dig,252,710068,0.0-81.0-0.0,"""event"",""trial"",""time""
""fullscreenenter"",""1"",""3110""
","
","
","""event"",""trial"",""time""
""fullscreenenter"",""1"",""3110""
","
",,,,,,,,,,,,"[{""stimulus"":""run_exp/static/images/task_images/dig.jpg"",""time"":1},{""stimulus"":""run_exp/static/images/task_images/land.jpg"",""time"":986},{""stimulus"":""run_exp/static/images/task_images/dig.jpg"",""time"":1972}]",[],9,,,,,,,,,,,,,,
harvest,253,711070,0.0-81.0-1.0,"""event"",""trial"",""time""
""fullscreenenter"",""1"",""3110""
","
","
","""event"",""trial"",""time""
""fullscreenenter"",""1"",""3110""
","
",,null,run_exp/static/images/task_images/gems/32.jpg,null,,,,,,,5,,,9,,,,,32,0.15228484,0.15625,,,,,,,
decision,254,711232,0.0-81.0-2.0,"""event"",""trial"",""time""
""fullscreenenter"",""1"",""3110""
","
","
","""event"",""trial"",""time""
""fullscreenenter"",""1"",""3110""
","
",,163,run_exp/static/images/task_images/land.jpg,65,,,,,,,5,,,9,,,,,,,,12680,2,1,FALSE,,,
dig,255,714070,0.0-82.0-0.0,"""event"",""trial"",""time""
""fullscreenenter"",""1"",""3110""
","
","
","""event"",""trial"",""time""
""fullscreenenter"",""1"",""3110""
","
",,,,,,,,,,,,"[{""stimulus"":""run_exp/static/images/task_images/dig.jpg"",""time"":0},{""stimulus"":""run_exp/static/images/task_images/land.jpg"",""time"":946},{""stimulus"":""run_exp/static/images/task_images/dig.jpg"",""time"":1891}]",[],9,,,,,,,,,,,,,,
harvest,256,715073,0.0-82.0-1.0,"""event"",""trial"",""time""
""fullscreenenter"",""1"",""3110""
","
","
","""event"",""trial"",""time""
""fullscreenenter"",""1"",""3110""
","
",,null,run_exp/static/images/task_images/gems/5.jpg,null,,,,,,,1,,,9,,,,,5,0.164258393,0.2,,,,,,,
decision,257,715151,0.0-82.0-2.0,"""event"",""trial"",""time""
""fullscreenenter"",""1"",""3110""
","
","
","""event"",""trial"",""time""
""fullscreenenter"",""1"",""3110""
","
",,76,run_exp/static/images/task_images/land.jpg,76,,,,,,,1,,,9,,,,,,,,16599,2,2,TRUE,,,
travel,258,725071,0.0-83.0-0.0,"""event"",""trial"",""time""
""fullscreenenter"",""1"",""3110""
","
","
","""event"",""trial"",""time""
""fullscreenenter"",""1"",""3110""
","
",,,,,,,,,,,,"[{""stimulus"":""run_exp/static/images/task_images/rocket-01.jpg"",""time"":0},{""stimulus"":""run_exp/static/images/task_images/rocket-02.jpg"",""time"":1103},{""stimulus"":""run_exp/static/images/task_images/rocket-03.jpg"",""time"":2205},{""stimulus"":""run_exp/static/images/task_images/rocket-04.jpg"",""time"":3307},{""stimulus"":""run_exp/static/images/task_images/rocket-05.jpg"",""time"":4409},{""stimulus"":""run_exp/static/images/task_images/rocket-06.jpg"",""time"":5511},{""stimulus"":""run_exp/static/images/task_images/rocket-07.jpg"",""time"":6613},{""stimulus"":""run_exp/static/images/task_images/rocket-08.jpg"",""time"":7716},{""stimulus"":""run_exp/static/images/task_images/rocket-09.jpg"",""time"":8827}]",[],9,,,,,,,,,,,,,,
alien_welcome,259,730075,0.0-83.0-1.0,"""event"",""trial"",""time""
""fullscreenenter"",""1"",""3110""
","
","
","""event"",""trial"",""time""
""fullscreenenter"",""1"",""3110""
","
",,null,run_exp/static/images/task_images/aliens/old_aliens/planet/alien_planet-56.jpg,null,,,,,,,,,,,,,56,"38,48,53,47,35,68,34,11,69,56,73,79,77,18,22,5,14,17,43,31,33,16,39,60,49,78,54,80,27,36,55,2,51,58,37",,,,,,,,,,
land,260,730577,0.0-83.0-2.0,"""event"",""trial"",""time""
""fullscreenenter"",""1"",""3110""
","
","
","""event"",""trial"",""time""
""fullscreenenter"",""1"",""3110""
","
",,null,run_exp/static/images/task_images/land.jpg,null,,,,,,,95,,,10,,,,,,,,,,,,,,
dig,261,732582,0.0-83.0-3.0,"""event"",""trial"",""time""
""fullscreenenter"",""1"",""3110""
","
