"trial_type","trial_index","time_elapsed","internal_node_id","interactions","blur_events","focus_events","fullscreenenter_events","fullscreenexit_events","success"
"pavlovia","0","4","0.0-0.0","""event"",""trial"",""time""
""focus"",""0"",""0""
""focus"",""0"",""0""
""fullscreenenter"",""1"",""1470""
","
","""event"",""trial"",""time""
""focus"",""0"",""0""
""focus"",""0"",""0""
","""event"",""trial"",""time""
""fullscreenenter"",""1"",""1470""
","
",""
"fullscreen","1","2433","0.0-1.0","""event"",""trial"",""time""
""focus"",""0"",""0""
""focus"",""0"",""0""
""fullscreenenter"",""1"",""1470""
""fullscreenexit"",""2"",""29776""
""blur"",""2"",""34661""
""focus"",""2"",""34688""
","""event"",""trial"",""time""
""blur"",""2"",""34661""
","""event"",""trial"",""time""
""focus"",""0"",""0""
""focus"",""0"",""0""
""focus"",""2"",""34688""
","""event"",""trial"",""time""
""fullscreenenter"",""1"",""1470""
","""event"",""trial"",""time""
""fullscreenexit"",""2"",""29776""
","true"
