trial_type,trial_index,time_elapsed,internal_node_id,interactions,blur_events,focus_events,fullscreenenter_events,fullscreenexit_events,success,rt,stimulus,key_press,prompt,subject_id,participant_id,age,gender,button_pressed,next_reward,animation_sequence,responses,planet,curr_prac_trial,n_prac_rounds,alien,aliens,reward_received,decay_rate_actual,decay_rate_exp,time_in_block,block_num,prt,last_trial_on_planet,button_html,bonus,num_failures
pavlovia,0,3,0.0-0.0,"""event"",""trial"",""time""
""fullscreenenter"",""1"",""1910""
","
","
","""event"",""trial"",""time""
""fullscreenenter"",""1"",""1910""
","
",,,,,,,,,,,,,,,,,,,,,,,,,,,,
fullscreen,1,2900,0.0-1.0,"""event"",""trial"",""time""
""fullscreenenter"",""1"",""1910""
","
","
","""event"",""trial"",""time""
""fullscreenenter"",""1"",""1910""
","
",TRUE,,,,,,,,,,,,,,,,,,,,,,,,,,,
instruc_welcome,2,12675,0.0-2.0,"""event"",""trial"",""time""
""fullscreenenter"",""1"",""1910""
","
","
","""event"",""trial"",""time""
""fullscreenenter"",""1"",""1910""
","
",,null,run_exp/static/audio/clip_1_welcome.m4a,null,"<p>Howdy! In this experiment, you’ll be an explorer traveling through space to collect space treasure.</p><p>Your mission is to collect as much treasure as possible.</p><br><br><p><img src='run_exp/static/images/task_images/opening_img-01.jpg' height='300' width='auto'></p>",9342,1462,10.99,Male,,,,,,,,,,,,,,,,,,,
audio-keyboard-response,3,29295,0.0-3.0,"""event"",""trial"",""time""
""fullscreenenter"",""1"",""1910""
","
","
","""event"",""trial"",""time""
""fullscreenenter"",""1"",""1910""
","
",,null,run_exp/static/audio/clip_2_move.m4a,null,,,,,,,,,,,,,,,,,,,,,,,,
welcome_dec,4,31051,0.0-4.0,"""event"",""trial"",""time""
""fullscreenenter"",""1"",""1910""
","
","
","""event"",""trial"",""time""
""fullscreenenter"",""1"",""1910""
","
",,1752.7,"<p>Howdy! In this experiment, you’ll be an explorer traveling through space to collect space treasure.</p><p>Your mission is to collect as much treasure as possible.</p><br><br><p><img src='run_exp/static/images/task_images/opening_img-01.jpg' height='300' width='auto'></p>",,,,,,,1,,,,,,,,,,,,,,,,,,
html-keyboard-response,5,31765,0.0-5.0,"""event"",""trial"",""time""
""fullscreenenter"",""1"",""1910""
","
","
","""event"",""trial"",""time""
""fullscreenenter"",""1"",""1910""
","
",,712.5,"<p>Howdy! In this experiment, you’ll be an explorer traveling through space to collect space treasure.</p><p>Your mission is to collect as much treasure as possible.</p><br><br><p><img src='run_exp/static/images/task_images/opening_img-01.jpg' height='300' width='auto'></p><button class=""jspsych-html-btn-unchosen""><img src=""run_exp/static/images/task_images/planet-01.jpg"" height=""50""></button><button class=""jspsych-html-btn-chosen""><img src=""run_exp/static/images/task_images/planet-02.jpg"" height=""50""></button><p><b>[press the space bar to lock in your answer]<b><br></p>",32,,,,,,,,,,,,,,,,,,,,,,,,
instruc_goal,6,41875,0.0-6.0-0.0,"""event"",""trial"",""time""
""fullscreenenter"",""1"",""1910""
","
","
","""event"",""trial"",""time""
""fullscreenenter"",""1"",""1910""
","
",,null,run_exp/static/audio/clip_3_goal.m4a,null,"<p> As a space explorer, you’ll visit different planets to dig for space treasure, these pink gems.</p> <p> The more treasure you dig up, the more bonus money you’ll win! </p><br><br><p><img src='run_exp/static/images/task_images/pink_gem.jpg' height='300' width='auto'></p>",,,,,,,,,,,,,,,,,,,,,,,
instruc_goal,7,43451,0.0-6.0-1.0,"""event"",""trial"",""time""
""fullscreenenter"",""1"",""1910""
","
","
","""event"",""trial"",""time""
""fullscreenenter"",""1"",""1910""
","
",,1572.8,"<p> As a space explorer, you’ll visit different planets to dig for space treasure, these pink gems.</p> <p> The more treasure you dig up, the more bonus money you’ll win! </p><br><br><p><img src='run_exp/static/images/task_images/pink_gem.jpg' height='300' width='auto'></p>",,,,,,,1,,,,,,,,,,,,,,,,,,
html-keyboard-response,8,45124,0.0-6.0-2.0,"""event"",""trial"",""time""
""fullscreenenter"",""1"",""1910""
","
","
","""event"",""trial"",""time""
""fullscreenenter"",""1"",""1910""
","
",,1672,"<p> As a space explorer, you’ll visit different planets to dig for space treasure, these pink gems.</p> <p> The more treasure you dig up, the more bonus money you’ll win! </p><br><br><p><img src='run_exp/static/images/task_images/pink_gem.jpg' height='300' width='auto'></p><button class=""jspsych-html-btn-unchosen""><img src=""run_exp/static/images/task_images/planet-01.jpg"" height=""50""></button><button class=""jspsych-html-btn-chosen""><img src=""run_exp/static/images/task_images/planet-02.jpg"" height=""50""></button><p><b>[press the space bar to lock in your answer]<b><br></p>",32,,,,,,,,,,,,,,,,,,,,,,,,
instruc_dig,9,61154,0.0-7.0-0.0,"""event"",""trial"",""time""
""fullscreenenter"",""1"",""1910""
","
","
","""event"",""trial"",""time""
""fullscreenenter"",""1"",""1910""
","
",,null,run_exp/static/audio/clip_4_dig.m4a,null,,,,,,,100,,,,,,,,,,,,,,,,,
instruc_dig_try,10,64068,0.0-7.0-1.0,"""event"",""trial"",""time""
""fullscreenenter"",""1"",""1910""
","
","
","""event"",""trial"",""time""
""fullscreenenter"",""1"",""1910""
","
",,2912.4,"<p> When you’ve arrived at a new planet, you will dig once. </p> <p>Then, you get to decide if you want to stay on the planet and dig again or travel to a new planet and dig there.</p> <p> To stay and dig, press the letter <strong>‘A’</strong> on your keyboard. Try pressing it now! </p><p><img src='run_exp/static/images/task_images/land.jpg'  height='700' width='auto'></p>",65,"<p> When you’ve arrived at a new planet, you will dig once. </p> <p>Then, you get to decide if you want to stay on the planet and dig again or travel to a new planet and dig there.</p> <p> To stay and dig, press the letter <strong>‘A’</strong> on your keyboard. Try pressing it now! </p><p><img src='run_exp/static/images/task_images/land.jpg'  height='700' width='auto'></p>",,,,,,100,,,,,,,,,,,,,,,,,
dig_prac,11,66083,0.0-7.0-2.0,"""event"",""trial"",""time""
""fullscreenenter"",""1"",""1910""
","
","
","""event"",""trial"",""time""
""fullscreenenter"",""1"",""1910""
","
",,,,,,,,,,,,"[{""stimulus"":""run_exp/static/images/task_images/dig.jpg"",""time"":0.6000000089406967},{""stimulus"":""run_exp/static/images/task_images/land.jpg"",""time"":683.2000000029802},{""stimulus"":""run_exp/static/images/task_images/dig.jpg"",""time"":1349.2000000029802}]",[],,,,,,,,,,,,,,,
instruc_travel,12,102335,0.0-7.0-3.0,"""event"",""trial"",""time""
""fullscreenenter"",""1"",""1910""
","
","
","""event"",""trial"",""time""
""fullscreenenter"",""1"",""1910""
","
",,null,run_exp/static/audio/clip_5_travel.m4a,null,"<p>Every time you dig up gems, there are less gems on the planet, so the more you dig on a planet the fewer gems you’ll get with each dig.</p><p>When gems are running low, you may want to travel to a new planet. </p> <p>  Planets are very far apart in this galaxy, so it will take some time to travel between them. </p> <br><p>There are lots and lots of planets for you to visit, so you won’t be able to return to any planets you’ve seen before. </p><br><p>To leave this planet and travel to a new one, press the letter <strong>‘L’</strong> on your keyboard. Try pressing it now! </p><p><img src='run_exp/static/images/task_images/rocket-01.jpg'  height='600' width='auto'></p>",,,,,,,,,,,,,,,,,,,,,,,
instruc_travel_try,13,103092,0.0-7.0-4.0,"""event"",""trial"",""time""
""fullscreenenter"",""1"",""1910""
","
","
","""event"",""trial"",""time""
""fullscreenenter"",""1"",""1910""
","
",,754.1,"<p>Every time you dig up gems, there are less gems on the planet, so the more you dig on a planet the fewer gems you’ll get with each dig.</p><p>When gems are running low, you may want to travel to a new planet. </p> <p>  Planets are very far apart in this galaxy, so it will take some time to travel between them. </p> <br><p>There are lots and lots of planets for you to visit, so you won’t be able to return to any planets you’ve seen before. </p><br><p>To leave this planet and travel to a new one, press the letter <strong>‘L’</strong> on your keyboard. Try pressing it now! </p><p><img src='run_exp/static/images/task_images/rocket-01.jpg'  height='600' width='auto'></p>",76,"<p>Every time you dig up gems, there are less gems on the planet, so the more you dig on a planet the fewer gems you’ll get with each dig.</p><p>When gems are running low, you may want to travel to a new planet. </p> <p>  Planets are very far apart in this galaxy, so it will take some time to travel between them. </p> <br><p>There are lots and lots of planets for you to visit, so you won’t be able to return to any planets you’ve seen before. </p><br><p>To leave this planet and travel to a new one, press the letter <strong>‘L’</strong> on your keyboard. Try pressing it now! </p><p><img src='run_exp/static/images/task_images/rocket-01.jpg'  height='600' width='auto'></p>",,,,,,,,,,,,,,,,,,,,,,,
travel_prac,14,113108,0.0-7.0-5.0,"""event"",""trial"",""time""
""fullscreenenter"",""1"",""1910""
","
","
","""event"",""trial"",""time""
""fullscreenenter"",""1"",""1910""
","
",,,,,,,,,,,,"[{""stimulus"":""run_exp/static/images/task_images/rocket-01.jpg"",""time"":0.5},{""stimulus"":""run_exp/static/images/task_images/rocket-02.jpg"",""time"":1121},{""stimulus"":""run_exp/static/images/task_images/rocket-03.jpg"",""time"":2229.2000000029802},{""stimulus"":""run_exp/static/images/task_images/rocket-04.jpg"",""time"":3347.1000000089407},{""stimulus"":""run_exp/static/images/task_images/rocket-05.jpg"",""time"":4450.600000008941},{""stimulus"":""run_exp/static/images/task_images/rocket-06.jpg"",""time"":5567.100000008941},{""stimulus"":""run_exp/static/images/task_images/rocket-07.jpg"",""time"":6672.70000000298},{""stimulus"":""run_exp/static/images/task_images/rocket-08.jpg"",""time"":7790.9000000059605},{""stimulus"":""run_exp/static/images/task_images/rocket-09.jpg"",""time"":8895.70000000298}]",[],0,,,,,,,,,,,,,,
instruc_alien_greet,15,140323,0.0-7.0-6.0,"""event"",""trial"",""time""
""fullscreenenter"",""1"",""1910""
","
","
","""event"",""trial"",""time""
""fullscreenenter"",""1"",""1910""
","
",,null,run_exp/static/audio/clip_6_alien.m4a,null,"<p>When you arrive at a new planet, the alien who owns the treasure mine on that planet will greet you!</p><p>The better an alien takes care of their mine the easier it is to dig for gems. Some aliens take better care of their mine than others. So, you won’t get exactly the same amount of gems on each planet.</p><p>What the alien looks like does not tell you anything about how many gems there are on the planet.</p><br><p><img src=""run_exp/static/images/task_images/aliens/instructions_aliens/planet/alien_planet-1.jpg""  height=""600"" width=""auto""></p>",,,,,,,,,,,,,,,,,,,,,,,
instruc_alien_greet,16,141851,0.0-7.0-7.0,"""event"",""trial"",""time""
""fullscreenenter"",""1"",""1910""
","
","
","""event"",""trial"",""time""
""fullscreenenter"",""1"",""1910""
","
",,1524.8,"<p>When you arrive at a new planet, the alien who owns the treasure mine on that planet will greet you!</p><p>The better an alien takes care of their mine the easier it is to dig for gems. Some aliens take better care of their mine than others. So, you won’t get exactly the same amount of gems on each planet.</p><p>What the alien looks like does not tell you anything about how many gems there are on the planet.</p><br><p><img src=""run_exp/static/images/task_images/aliens/instructions_aliens/planet/alien_planet-1.jpg""  height=""600"" width=""auto""></p>",,,,,,,1,,,,,,,,,,,,,,,,,,
html-keyboard-response,17,142595,0.0-7.0-8.0,"""event"",""trial"",""time""
""fullscreenenter"",""1"",""1910""
","
","
","""event"",""trial"",""time""
""fullscreenenter"",""1"",""1910""
","
",,743.6,"<p>When you arrive at a new planet, the alien who owns the treasure mine on that planet will greet you!</p><p>The better an alien takes care of their mine the easier it is to dig for gems. Some aliens take better care of their mine than others. So, you won’t get exactly the same amount of gems on each planet.</p><p>What the alien looks like does not tell you anything about how many gems there are on the planet.</p><br><p><img src=""run_exp/static/images/task_images/aliens/instructions_aliens/planet/alien_planet-1.jpg""  height=""600"" width=""auto""></p><button class=""jspsych-html-btn-unchosen""><img src=""run_exp/static/images/task_images/planet-01.jpg"" height=""50""></button><button class=""jspsych-html-btn-chosen""><img src=""run_exp/static/images/task_images/planet-02.jpg"" height=""50""></button><p><b>[press the space bar to lock in your answer]<b><br></p>",32,,,,,,,,,,,,,,,,,,,,,,,,
time_out,18,153705,0.0-8.0-0.0,"""event"",""trial"",""time""
""fullscreenenter"",""1"",""1910""
","
","
","""event"",""trial"",""time""
""fullscreenenter"",""1"",""1910""
","
",,null,run_exp/static/audio/clip_7_timeout.m4a,null,"<p>If you don't make your choice fast enough, you’ll have to wait a few seconds before you can make another one.</p><p>You can’t dig for more gems or travel to new planets. You just have to sit and wait.</p><br><p><img src='run_exp/static/images/task_images/time_out.jpg'  height='600' width='auto'></p>",,,,,,,,,,,,,,,,,,,,,,,
time_out,19,155355,0.0-8.0-1.0,"""event"",""trial"",""time""
""fullscreenenter"",""1"",""1910""
","
","
","""event"",""trial"",""time""
""fullscreenenter"",""1"",""1910""
","
",,1646.5,"<p>If you don't make your choice fast enough, you’ll have to wait a few seconds before you can make another one.</p><p>You can’t dig for more gems or travel to new planets. You just have to sit and wait.</p><br><p><img src='run_exp/static/images/task_images/time_out.jpg'  height='600' width='auto'></p>",,,,,,,1,,,,,,,,,,,,,,,,,,
html-keyboard-response,20,156083,0.0-8.0-2.0,"""event"",""trial"",""time""
""fullscreenenter"",""1"",""1910""
","
","
","""event"",""trial"",""time""
""fullscreenenter"",""1"",""1910""
","
",,727.7,"<p>If you don't make your choice fast enough, you’ll have to wait a few seconds before you can make another one.</p><p>You can’t dig for more gems or travel to new planets. You just have to sit and wait.</p><br><p><img src='run_exp/static/images/task_images/time_out.jpg'  height='600' width='auto'></p><button class=""jspsych-html-btn-unchosen""><img src=""run_exp/static/images/task_images/planet-01.jpg"" height=""50""></button><button class=""jspsych-html-btn-chosen""><img src=""run_exp/static/images/task_images/planet-02.jpg"" height=""50""></button><p><b>[press the space bar to lock in your answer]<b><br></p>",32,,,,,,,,,,,,,,,,,,,,,,,,
instruc_break,21,171785,0.0-9.0-0.0,"""event"",""trial"",""time""
""fullscreenenter"",""1"",""1910""
","
","
","""event"",""trial"",""time""
""fullscreenenter"",""1"",""1910""
","
",,null,run_exp/static/audio/clip_8_break.m4a,null,"<p> After digging and traveling for a while, you’ll be able to take a break at home base. </p><p>The game will last 20 minutes no matter what.</p><p>You will visit home base every 5 minutes, so, you will visit home base three times during the game.</p><br><p><img src='run_exp/static/images/task_images/home_base.jpg' height='600' width='auto'></p>",,,,,,,,,,,,,,,,,,,,,,,
instruc_break,22,174771,0.0-9.0-1.0,"""event"",""trial"",""time""
""fullscreenenter"",""1"",""1910""
","
","
","""event"",""trial"",""time""
""fullscreenenter"",""1"",""1910""
","
",,2983.8,"<p> After digging and traveling for a while, you’ll be able to take a break at home base. </p><p>The game will last 20 minutes no matter what.</p><p>You will visit home base every 5 minutes, so, you will visit home base three times during the game.</p><br><p><img src='run_exp/static/images/task_images/home_base.jpg' height='600' width='auto'></p>",,,,,,,1,,,,,,,,,,,,,,,,,,
html-keyboard-response,23,175662,0.0-9.0-2.0,"""event"",""trial"",""time""
""fullscreenenter"",""1"",""1910""
","
","
","""event"",""trial"",""time""
""fullscreenenter"",""1"",""1910""
","
",,890,"<p> After digging and traveling for a while, you’ll be able to take a break at home base. </p><p>The game will last 20 minutes no matter what.</p><p>You will visit home base every 5 minutes, so, you will visit home base three times during the game.</p><br><p><img src='run_exp/static/images/task_images/home_base.jpg' height='600' width='auto'></p><button class=""jspsych-html-btn-unchosen""><img src=""run_exp/static/images/task_images/planet-01.jpg"" height=""50""></button><button class=""jspsych-html-btn-chosen""><img src=""run_exp/static/images/task_images/planet-02.jpg"" height=""50""></button><p><b>[press the space bar to lock in your answer]<b><br></p>",32,,,,,,,,,,,,,,,,,,,,,,,,
instruc_prac_game,24,185826,0.0-10.0-0.0,"""event"",""trial"",""time""
""fullscreenenter"",""1"",""1910""
","
","
","""event"",""trial"",""time""
""fullscreenenter"",""1"",""1910""
","
",,null,run_exp/static/audio/clip_9_practice.m4a,null,"<p> Are you ready to play a practice game? </p> <p>In this practice game, you'll be digging up barrels of gems. But, in the real game, you'll be digging up the gems themselves. </p>",,,,,,,,,,,,,,,,,,,,,,,
html-button-response,25,187939,0.0-10.0-1.0,"""event"",""trial"",""time""
""fullscreenenter"",""1"",""1910""
","
","
","""event"",""trial"",""time""
""fullscreenenter"",""1"",""1910""
","
",,2111.4,"<p> Are you ready to play a practice game? </p> <p>In this practice game, you'll be digging up barrels of gems. But, in the real game, you'll be digging up the gems themselves. </p>",,,,,,,0,,,,,,,,,,,,,,,,,,
alien_welcome_prac,26,192955,0.0-11.0-0.0,"""event"",""trial"",""time""
""fullscreenenter"",""1"",""1910""
","
","
","""event"",""trial"",""time""
""fullscreenenter"",""1"",""1910""
","
",,null,run_exp/static/images/task_images/aliens/practice_aliens/planet/alien_planet-5.jpg,null,,,,,,,,,,,,,,,,,,,,,,,,
land_prac,27,193466,0.0-11.0-1.0,"""event"",""trial"",""time""
""fullscreenenter"",""1"",""1910""
","
","
","""event"",""trial"",""time""
""fullscreenenter"",""1"",""1910""
","
",,null,run_exp/static/images/task_images/land.jpg,null,,,,,,,100,,,0,,,,,,,,,,,,,,
dig_prac,28,195480,0.0-11.0-2.0,"""event"",""trial"",""time""
""fullscreenenter"",""1"",""1910""
","
","
","""event"",""trial"",""time""
""fullscreenenter"",""1"",""1910""
","
",,,,,,,,,,,,"[{""stimulus"":""run_exp/static/images/task_images/dig.jpg"",""time"":0.5},{""stimulus"":""run_exp/static/images/task_images/land.jpg"",""time"":680},{""stimulus"":""run_exp/static/images/task_images/dig.jpg"",""time"":1349}]",[],,,,,,,,,,,,,,,
harvest_prac,29,196491,0.0-11.0-3.0,"""event"",""trial"",""time""
""fullscreenenter"",""1"",""1910""
","
","
","""event"",""trial"",""time""
""fullscreenenter"",""1"",""1910""
","
",,null,run_exp/static/images/task_images/barrel_text.jpg,null,,,,,,,,,,,,,,,,,,,,,,,,
decision_prac,30,196828,0.0-11.0-4.0,"""event"",""trial"",""time""
""fullscreenenter"",""1"",""1910""
","
","
","""event"",""trial"",""time""
""fullscreenenter"",""1"",""1910""
","
",,334.9,run_exp/static/images/task_images/land.jpg,65,,,,,,,,,,,1,,,,,,,,,,,,,
dig_prac,31,198837,0.0-12.0-0.0,"""event"",""trial"",""time""
""fullscreenenter"",""1"",""1910""
","
","
","""event"",""trial"",""time""
""fullscreenenter"",""1"",""1910""
","
",,,,,,,,,,,,"[{""stimulus"":""run_exp/static/images/task_images/dig.jpg"",""time"":0.3999999910593033},{""stimulus"":""run_exp/static/images/task_images/land.jpg"",""time"":684.7000000029802},{""stimulus"":""run_exp/static/images/task_images/dig.jpg"",""time"":1350.5999999940395}]",[],,,,,,,,,,,,,,,
harvest_prac,32,199844,0.0-12.0-1.0,"""event"",""trial"",""time""
""fullscreenenter"",""1"",""1910""
","
","
","""event"",""trial"",""time""
""fullscreenenter"",""1"",""1910""
","
",,null,run_exp/static/images/task_images/barrel_text.jpg,null,,,,,,,,,,,,,,,,,,,,,,,,
decision_prac,33,200420,0.0-12.0-2.0,"""event"",""trial"",""time""
""fullscreenenter"",""1"",""1910""
","
","
","""event"",""trial"",""time""
""fullscreenenter"",""1"",""1910""
","
",,573.8,run_exp/static/images/task_images/land.jpg,65,,,,,,,,,,,2,,,,,,,,,,,,,
dig_prac,34,202435,0.0-13.0-0.0,"""event"",""trial"",""time""
""fullscreenenter"",""1"",""1910""
","
","
","""event"",""trial"",""time""
""fullscreenenter"",""1"",""1910""
","
",,,,,,,,,,,,"[{""stimulus"":""run_exp/static/images/task_images/dig.jpg"",""time"":0.4000000059604645},{""stimulus"":""run_exp/static/images/task_images/land.jpg"",""time"":671.6000000089407},{""stimulus"":""run_exp/static/images/task_images/dig.jpg"",""time"":1340.4000000059605}]",[],,,,,,,,,,,,,,,
harvest_prac,35,203441,0.0-13.0-1.0,"""event"",""trial"",""time""
""fullscreenenter"",""1"",""1910""
","
","
","""event"",""trial"",""time""
""fullscreenenter"",""1"",""1910""
","
",,null,run_exp/static/images/task_images/barrel_text.jpg,null,,,,,,,,,,,,,,,,,,,,,,,,
decision_prac,36,203660,0.0-13.0-2.0,"""event"",""trial"",""time""
""fullscreenenter"",""1"",""1910""
","
","
","""event"",""trial"",""time""
""fullscreenenter"",""1"",""1910""
","
",,216.8,run_exp/static/images/task_images/land.jpg,65,,,,,,,,,,,3,,,,,,,,,,,,,
dig_prac,37,205679,0.0-14.0-0.0,"""event"",""trial"",""time""
""fullscreenenter"",""1"",""1910""
","
","
","""event"",""trial"",""time""
""fullscreenenter"",""1"",""1910""
","
",,,,,,,,,,,,"[{""stimulus"":""run_exp/static/images/task_images/dig.jpg"",""time"":0.3999999910593033},{""stimulus"":""run_exp/static/images/task_images/land.jpg"",""time"":680.5999999940395},{""stimulus"":""run_exp/static/images/task_images/dig.jpg"",""time"":1347}]",[],,,,,,,,,,,,,,,
harvest_prac,38,206688,0.0-14.0-1.0,"""event"",""trial"",""time""
""fullscreenenter"",""1"",""1910""
","
","
","""event"",""trial"",""time""
""fullscreenenter"",""1"",""1910""
","
",,null,run_exp/static/images/task_images/barrel_text.jpg,null,,,,,,,,,,,,,,,,,,,,,,,,
decision_prac,39,206860,0.0-14.0-2.0,"""event"",""trial"",""time""
""fullscreenenter"",""1"",""1910""
","
","
","""event"",""trial"",""time""
""fullscreenenter"",""1"",""1910""
","
",,170.2,run_exp/static/images/task_images/land.jpg,65,,,,,,,,,,,4,,,,,,,,,,,,,
dig_prac,40,208879,0.0-15.0-0.0,"""event"",""trial"",""time""
""fullscreenenter"",""1"",""1910""
","
","
","""event"",""trial"",""time""
""fullscreenenter"",""1"",""1910""
","
",,,,,,,,,,,,"[{""stimulus"":""run_exp/static/images/task_images/dig.jpg"",""time"":0.3999999910593033},{""stimulus"":""run_exp/static/images/task_images/land.jpg"",""time"":678.0999999940395},{""stimulus"":""run_exp/static/images/task_images/dig.jpg"",""time"":1345.2999999970198}]",[],,,,,,,,,,,,,,,
harvest_prac,41,209892,0.0-15.0-1.0,"""event"",""trial"",""time""
""fullscreenenter"",""1"",""1910""
","
","
","""event"",""trial"",""time""
""fullscreenenter"",""1"",""1910""
","
",,null,run_exp/static/images/task_images/barrel_text.jpg,null,,,,,,,,,,,,,,,,,,,,,,,,
decision_prac,42,210300,0.0-15.0-2.0,"""event"",""trial"",""time""
""fullscreenenter"",""1"",""1910""
","
","
","""event"",""trial"",""time""
""fullscreenenter"",""1"",""1910""
","
",,406.4,run_exp/static/images/task_images/land.jpg,65,,,,,,,,,,,,1,,,,,,,,,,,,
quiz_instruc,43,213019,0.0-16.0-0.0,"""event"",""trial"",""time""
""fullscreenenter"",""1"",""1910""
","
","
","""event"",""trial"",""time""
""fullscreenenter"",""1"",""1910""
","
",,2713,run_exp/static/audio/clip_10_quiz.m4a,,,,,,,0,,,,,,,,,,,,,,,,,,
instruc_repeat,44,255774,0.0-16.0-1.0,"""event"",""trial"",""time""
""fullscreenenter"",""1"",""1910""
","
","
","""event"",""trial"",""time""
""fullscreenenter"",""1"",""1910""
","
",,null,"<p> Are you ready to play a practice game? </p> <p>In this practice game, you'll be digging up barrels of gems. But, in the real game, you'll be digging up the gems themselves. </p>",null,"<p>In this game, your goal is to collect as many gems as you can. That’s how you will win bonus money. </p> <p>The entire game will last 20 minutes no matter how many gems you collect or how many planets you visit. </p><p>To stay on a planet and dig again, press the letter A on your keyboard. To leave for a new planet, press the letter L.</p><p>The more you dig on a planet, the fewer gems you’ll get with each dig which is why you might consider leaving for a new planet. </p><p>When you arrive at a new planet, you’ll be greeted by an alien. What the alien looks like does not tell you anything about how much treasure is on the planet. </p>",,,,,,,,,,,,,,,,,,,,,,,
instruc_repeat_continue,45,257458,0.0-16.0-2.0,"""event"",""trial"",""time""
""fullscreenenter"",""1"",""1910""
","
","
","""event"",""trial"",""time""
""fullscreenenter"",""1"",""1910""
","
",,1681.9,"<p> Are you ready to play a practice game? </p> <p>In this practice game, you'll be digging up barrels of gems. But, in the real game, you'll be digging up the gems themselves. </p>",,,,,,,0,,,,,,,,,,,,,,,,,,
quiz_q_1_ask,46,260010,0.0-16.0-3.0,"""event"",""trial"",""time""
""fullscreenenter"",""1"",""1910""
","
","
","""event"",""trial"",""time""
""fullscreenenter"",""1"",""1910""
","
",,2551.2,run_exp/static/audio/clip_11_q1_ask.m4a,,,,,,,2,,,,,,,,,,,,,,,,,,
quiz_q_1_fb_correct,47,263854,0.0-17.0-0.0,"""event"",""trial"",""time""
""fullscreenenter"",""1"",""1910""
","
","
","""event"",""trial"",""time""
""fullscreenenter"",""1"",""1910""
","
",,null,run_exp/static/audio/clip_12_q1_correct.m4a,null,<p>That’s correct. You win extra money by collecting more gems.</p>,,,,,,,,,,,,,,,,,,,,,,,
quiz_q_2_ask,48,266754,0.0-17.0-1.0,"""event"",""trial"",""time""
""fullscreenenter"",""1"",""1910""
","
","
","""event"",""trial"",""time""
""fullscreenenter"",""1"",""1910""
","
",,2897.1,run_exp/static/audio/clip_14_q2_ask.m4a,,,,,,,1,,,,,,,,,,,,,,,,,,
quiz_q_2_fb_correct,49,270754,0.0-18.0-0.0,"""event"",""trial"",""time""
""fullscreenenter"",""1"",""1910""
","
","
","""event"",""trial"",""time""
""fullscreenenter"",""1"",""1910""
","
",,null,run_exp/static/audio/clip_15_q2_correct.m4a,null,<p>That’s correct. The experiment is 20 minutes no matter what.</p>,,,,,,,,,,,,,,,,,,,,,,,
quiz_q_3_ask,50,282026,0.0-18.0-1.0,"""event"",""trial"",""time""
""fullscreenenter"",""1"",""1910""
","
","
","""event"",""trial"",""time""
""fullscreenenter"",""1"",""1910""
","
",,11270.9,run_exp/static/audio/clip_17_q3_ask.m4a,,,,,,,1,,,,,,,,,,,,,,,,,,
quiz_q_3_fb_correct,51,286015,0.0-19.0-0.0,"""event"",""trial"",""time""
""fullscreenenter"",""1"",""1910""
","
","
","""event"",""trial"",""time""
""fullscreenenter"",""1"",""1910""
","
",,null,run_exp/static/audio/clip_18_q3_correct.m4a,null,<p> That’s correct. You press the letter L to travel to a new planet.</p>,,,,,,,,,,,,,,,,,,,,,,,
quiz_q_4_ask,52,290459,0.0-19.0-1.0,"""event"",""trial"",""time""
""fullscreenenter"",""1"",""1910""
","
","
","""event"",""trial"",""time""
""fullscreenenter"",""1"",""1910""
","
",,4441.9,run_exp/static/audio/clip_20_q4_ask.m4a,,,,,,,0,,,,,,,,,,,,,,,,,,
quiz_q_4_fb_correct,53,295795,0.0-20.0-0.0,"""event"",""trial"",""time""
""fullscreenenter"",""1"",""1910""
","
","
","""event"",""trial"",""time""
""fullscreenenter"",""1"",""1910""
","
",,null,run_exp/static/audio/clip_21_q4_correct.m4a,null,<p> That’s correct. The more you dig on a planet the fewer gems you’ll get with each dig. </p>,,,,,,,,,,,,,,,,,,,,,,,
quiz_q_5_ask,54,299939,0.0-20.0-1.0,"""event"",""trial"",""time""
""fullscreenenter"",""1"",""1910""
","
","
","""event"",""trial"",""time""
""fullscreenenter"",""1"",""1910""
","
",,4141.6,run_exp/static/audio/clip_23_q5_ask.m4a,,,,,,,1,,,,,,,,,,,,,,,,,,
quiz_q_5_fb_correct,55,304955,0.0-21.0-0.0,"""event"",""trial"",""time""
""fullscreenenter"",""1"",""1910""
","
","
","""event"",""trial"",""time""
""fullscreenenter"",""1"",""1910""
","
",,null,run_exp/static/audio/clip_24_q5_correct.m4a,null,<p> That’s correct. The alien tells you nothing about how much treasure is on the planet.</p>,,,,,,,,,,,,,,,,,,,,,,,
quiz_correct,56,308455,0.0-22.0-0.0,"""event"",""trial"",""time""
""fullscreenenter"",""1"",""1910""
","
","
","""event"",""trial"",""time""
""fullscreenenter"",""1"",""1910""
","
",,null,run_exp/static/audio/clip_26_correct_quiz.m4a,null,,,,,,,,,,,,,,,,,,,,,,,,
quiz_correct_continue,57,310971,0.0-22.0-1.0,"""event"",""trial"",""time""
""fullscreenenter"",""1"",""1910""
","
","
","""event"",""trial"",""time""
""fullscreenenter"",""1"",""1910""
","
",,2514.5,<p>Good job! You're now ready to move on to the real game!</p>,,,,,,,0,,,,,,,,,,,,,,,,,,
audio-keyboard-response,58,321095,0.0-22.0-2.0,"""event"",""trial"",""time""
""fullscreenenter"",""1"",""1910""
","
","
","""event"",""trial"",""time""
""fullscreenenter"",""1"",""1910""
","
",,null,run_exp/static/audio/clip_28_real_game.m4a,null,,,,,,,,,,,,,,,,,,,,,,,,
instruc_begin_exp_contine,59,325395,0.0-22.0-3.0,"""event"",""trial"",""time""
""fullscreenenter"",""1"",""1910""
","
","
","""event"",""trial"",""time""
""fullscreenenter"",""1"",""1910""
","
",,4297.6,"<p>Now that you know how  to dig for space treasure and travel to new planets,you can start exploring! </p><p>Do you want to go over the instructions again or get started with the real game?</p>",,,,,,,1,,,,,,1,,,,,,,,,,,,
alien_welcome,60,330400,0.0-23.0-0.0,"""event"",""trial"",""time""
""fullscreenenter"",""1"",""1910""
","
","
","""event"",""trial"",""time""
""fullscreenenter"",""1"",""1910""
","
",,null,run_exp/static/images/task_images/aliens/old_aliens/planet/alien_planet-44.jpg,null,,,,,,,,,,,,,44,"44,29,12,51,25,61,53,69,75,37,72,74,33,54,1,41,36,46,70,23,3,31,52,60,57,17,59,77,26,68,48,43,20,5,22,6,42,63,18,21",,,,,,,,,,
land,61,330916,0.0-23.0-1.0,"""event"",""trial"",""time""
""fullscreenenter"",""1"",""1910""
","
","
","""event"",""trial"",""time""
""fullscreenenter"",""1"",""1910""
","
",,null,run_exp/static/images/task_images/land.jpg,null,,,,,,,93,,,1,,,,,,,,,,,,,,
dig,62,332934,0.0-23.0-2.0,"""event"",""trial"",""time""
""fullscreenenter"",""1"",""1910""
","
","
","""event"",""trial"",""time""
""fullscreenenter"",""1"",""1910""
","
",,,,,,,,,,,,"[{""stimulus"":""run_exp/static/images/task_images/dig.jpg"",""time"":0.5999999940395355},{""stimulus"":""run_exp/static/images/task_images/land.jpg"",""time"":678.2999999970198},{""stimulus"":""run_exp/static/images/task_images/dig.jpg"",""time"":1347.0999999940395}]",[],1,,,,,,,,,,,,,,
harvest,63,333940,0.0-23.0-3.0,"""event"",""trial"",""time""
""fullscreenenter"",""1"",""1910""
","
","
","""event"",""trial"",""time""
""fullscreenenter"",""1"",""1910""
","
",,null,run_exp/static/images/task_images/gems/93.jpg,null,,,,,,,26,,,1,,,,,93,0.282689511,0.279569892,,,,,,,
decision,64,334060,0.0-23.0-4.0,"""event"",""trial"",""time""
""fullscreenenter"",""1"",""1910""
","
","
","""event"",""trial"",""time""
""fullscreenenter"",""1"",""1910""
","
",,117.6,run_exp/static/images/task_images/land.jpg,65,,,,,,,26,,,1,,,,,,,,8665,1,0,FALSE,,,
dig,65,336954,0.0-24.0-0.0,"""event"",""trial"",""time""
""fullscreenenter"",""1"",""1910""
","
","
","""event"",""trial"",""time""
""fullscreenenter"",""1"",""1910""
","
",,,,,,,,,,,,"[{""stimulus"":""run_exp/static/images/task_images/dig.jpg"",""time"":0.29999999701976776},{""stimulus"":""run_exp/static/images/task_images/land.jpg"",""time"":968},{""stimulus"":""run_exp/static/images/task_images/dig.jpg"",""time"":1925.7999999970198}]",[],1,,,,,,,,,,,,,,
harvest,66,337963,0.0-24.0-1.0,"""event"",""trial"",""time""
""fullscreenenter"",""1"",""1910""
","
","
","""event"",""trial"",""time""
""fullscreenenter"",""1"",""1910""
","
",,null,run_exp/static/images/task_images/gems/26.jpg,null,,,,,,,7,,,1,,,,,26,0.260849433,0.269230769,,,,,,,
decision,67,338668,0.0-24.0-2.0,"""event"",""trial"",""time""
""fullscreenenter"",""1"",""1910""
","
","
","""event"",""trial"",""time""
""fullscreenenter"",""1"",""1910""
","
",,702.8,run_exp/static/images/task_images/land.jpg,65,,,,,,,7,,,1,,,,,,,,13272,1,1,FALSE,,,
dig,68,340974,0.0-25.0-0.0,"""event"",""trial"",""time""
""fullscreenenter"",""1"",""1910""
","
","
","""event"",""trial"",""time""
""fullscreenenter"",""1"",""1910""
","
",,,,,,,,,,,,"[{""stimulus"":""run_exp/static/images/task_images/dig.jpg"",""time"":0.4000000059604645},{""stimulus"":""run_exp/static/images/task_images/land.jpg"",""time"":780.8000000119209},{""stimulus"":""run_exp/static/images/task_images/dig.jpg"",""time"":1540.6000000089407}]",[],1,,,,,,,,,,,,,,
harvest,69,341987,0.0-25.0-1.0,"""event"",""trial"",""time""
""fullscreenenter"",""1"",""1910""
","
","
","""event"",""trial"",""time""
""fullscreenenter"",""1"",""1910""
","
",,null,run_exp/static/images/task_images/gems/7.jpg,null,,,,,,,1,,,1,,,,,7,0.143136893,0.142857143,,,,,,,
decision,70,342027,0.0-25.0-2.0,"""event"",""trial"",""time""
""fullscreenenter"",""1"",""1910""
","
","
","""event"",""trial"",""time""
""fullscreenenter"",""1"",""1910""
","
",,38.8,run_exp/static/images/task_images/land.jpg,76,,,,,,,1,,,1,,,,,,,,16631,1,2,TRUE,,,
travel,71,351990,0.0-26.0-0.0,"""event"",""trial"",""time""
""fullscreenenter"",""1"",""1910""
","
","
","""event"",""trial"",""time""
""fullscreenenter"",""1"",""1910""
","
",,,,,,,,,,,,"[{""stimulus"":""run_exp/static/images/task_images/rocket-01.jpg"",""time"":0.20000000298023224},{""stimulus"":""run_exp/static/images/task_images/rocket-02.jpg"",""time"":1119.300000011921},{""stimulus"":""run_exp/static/images/task_images/rocket-03.jpg"",""time"":2218.7000000029802},{""stimulus"":""run_exp/static/images/task_images/rocket-04.jpg"",""time"":3333.9000000059605},{""stimulus"":""run_exp/static/images/task_images/rocket-05.jpg"",""time"":4434.100000008941},{""stimulus"":""run_exp/static/images/task_images/rocket-06.jpg"",""time"":5543},{""stimulus"":""run_exp/static/images/task_images/rocket-07.jpg"",""time"":6642.800000011921},{""stimulus"":""run_exp/static/images/task_images/rocket-08.jpg"",""time"":7745.800000011921},{""stimulus"":""run_exp/static/images/task_images/rocket-09.jpg"",""time"":8859.300000011921}]",[],1,,,,,,,,,,,,,,
alien_welcome,72,357000,0.0-26.0-1.0,"""event"",""trial"",""time""
""fullscreenenter"",""1"",""1910""
","
","
","""event"",""trial"",""time""
""fullscreenenter"",""1"",""1910""
","
",,null,run_exp/static/images/task_images/aliens/old_aliens/planet/alien_planet-29.jpg,null,,,,,,,,,,,,,29,"44,29,12,51,25,61,53,69,75,37,72,74,33,54,1,41,36,46,70,23,3,31,52,60,57,17,59,77,26,68,48,43,20,5,22,6,42,63,18,21",,,,,,,,,,
land,73,357507,0.0-26.0-2.0,"""event"",""trial"",""time""
""fullscreenenter"",""1"",""1910""
","
","
","""event"",""trial"",""time""
""fullscreenenter"",""1"",""1910""
","
",,null,run_exp/static/images/task_images/land.jpg,null,,,,,,,96,,,2,,,,,,,,,,,,,,
dig,74,359528,0.0-26.0-3.0,"""event"",""trial"",""time""
""fullscreenenter"",""1"",""1910""
","
","
","""event"",""trial"",""time""
""fullscreenenter"",""1"",""1910""
","
",,,,,,,,,,,,"[{""stimulus"":""run_exp/static/images/task_images/dig.jpg"",""time"":0.5},{""stimulus"":""run_exp/static/images/task_images/land.jpg"",""time"":671.0999999940395},{""stimulus"":""run_exp/static/images/task_images/dig.jpg"",""time"":1340.7999999970198}]",[],2,,,,,,,,,,,,,,
harvest,75,360539,0.0-26.0-4.0,"""event"",""trial"",""time""
""fullscreenenter"",""1"",""1910""
","
","
","""event"",""trial"",""time""
""fullscreenenter"",""1"",""1910""
","
",,null,run_exp/static/images/task_images/gems/96.jpg,null,,,,,,,25,,,2,,,,,96,0.265298228,0.260416667,,,,,,,
decision,76,361387,0.0-26.0-5.0,"""event"",""trial"",""time""
""fullscreenenter"",""1"",""1910""
","
","
","""event"",""trial"",""time""
""fullscreenenter"",""1"",""1910""
","
",,846.6,run_exp/static/images/task_images/land.jpg,65,,,,,,,25,,,2,,,,,,,,35991,1,0,FALSE,,,
dig,77,363547,0.0-27.0-0.0,"""event"",""trial"",""time""
""fullscreenenter"",""1"",""1910""
","
","
","""event"",""trial"",""time""
""fullscreenenter"",""1"",""1910""
","
",,,,,,,,,,,,"[{""stimulus"":""run_exp/static/images/task_images/dig.jpg"",""time"":0.3999999910593033},{""stimulus"":""run_exp/static/images/task_images/land.jpg"",""time"":727.3999999910593},{""stimulus"":""run_exp/static/images/task_images/dig.jpg"",""time"":1436.8999999910593}]",[],2,,,,,,,,,,,,,,
harvest,78,364559,0.0-27.0-1.0,"""event"",""trial"",""time""
""fullscreenenter"",""1"",""1910""
","
","
","""event"",""trial"",""time""
""fullscreenenter"",""1"",""1910""
","
",,null,run_exp/static/images/task_images/gems/25.jpg,null,,,,,,,5,,,2,,,,,25,0.210242271,0.2,,,,,,,
decision,79,366132,0.0-27.0-2.0,"""event"",""trial"",""time""
""fullscreenenter"",""1"",""1910""
","
","
","""event"",""trial"",""time""
""fullscreenenter"",""1"",""1910""
","
",,1571.6,run_exp/static/images/task_images/land.jpg,76,,,,,,,5,,,2,,,,,,,,40736,1,1,TRUE,,,
travel,80,374568,0.0-28.0-0.0,"""event"",""trial"",""time""
""fullscreenenter"",""1"",""1910""
","
","
","""event"",""trial"",""time""
""fullscreenenter"",""1"",""1910""
","
",,,,,,,,,,,,"[{""stimulus"":""run_exp/static/images/task_images/rocket-01.jpg"",""time"":0.4000000059604645},{""stimulus"":""run_exp/static/images/task_images/rocket-02.jpg"",""time"":938.7999999970198},{""stimulus"":""run_exp/static/images/task_images/rocket-03.jpg"",""time"":1883.2000000029802},{""stimulus"":""run_exp/static/images/task_images/rocket-04.jpg"",""time"":2810.9000000059605},{""stimulus"":""run_exp/static/images/task_images/rocket-05.jpg"",""time"":3756.4000000059605},{""stimulus"":""run_exp/static/images/task_images/rocket-06.jpg"",""time"":4697.4000000059605},{""stimulus"":""run_exp/static/images/task_images/rocket-07.jpg"",""time"":5625.79999999702},{""stimulus"":""run_exp/static/images/task_images/rocket-08.jpg"",""time"":6567.79999999702},{""stimulus"":""run_exp/static/images/task_images/rocket-09.jpg"",""time"":7495.5}]",[],2,,,,,,,,,,,,,,
alien_welcome,81,379573,0.0-28.0-1.0,"""event"",""trial"",""time""
""fullscreenenter"",""1"",""1910""
","
","
","""event"",""trial"",""time""
""fullscreenenter"",""1"",""1910""
","
",,null,run_exp/static/images/task_images/aliens/old_aliens/planet/alien_planet-12.jpg,null,,,,,,,,,,,,,12,"44,29,12,51,25,61,53,69,75,37,72,74,33,54,1,41,36,46,70,23,3,31,52,60,57,17,59,77,26,68,48,43,20,5,22,6,42,63,18,21",,,,,,,,,,
land,82,380086,0.0-28.0-2.0,"""event"",""trial"",""time""
""fullscreenenter"",""1"",""1910""
","
","
","""event"",""trial"",""time""
""fullscreenenter"",""1"",""1910""
","
",,null,run_exp/static/images/task_images/land.jpg,null,,,,,,,94,,,3,,,,,,,,,,,,,,
dig,83,382101,0.0-28.0-3.0,"""event"",""trial"",""time""
""fullscreenenter"",""1"",""1910""
","
","
","""event"",""trial"",""time""
""fullscreenenter"",""1"",""1910""
","
",,,,,,,,,,,,"[{""stimulus"":""run_exp/static/images/task_images/dig.jpg"",""time"":0.29999999701976776},{""stimulus"":""run_exp/static/images/task_images/land.jpg"",""time"":679.7000000029802},{""stimulus"":""run_exp/static/images/task_images/dig.jpg"",""time"":1346.7000000029802}]",[],3,,,,,,,,,,,,,,
harvest,84,383110,0.0-28.0-4.0,"""event"",""trial"",""time""
""fullscreenenter"",""1"",""1910""
","
","
","""event"",""trial"",""time""
""fullscreenenter"",""1"",""1910""
","
",,null,run_exp/static/images/task_images/gems/94.jpg,null,,,,,,,52,,,3,,,,,94,0.557689229,0.553191489,,,,,,,
decision,85,383499,0.0-28.0-5.0,"""event"",""trial"",""time""
""fullscreenenter"",""1"",""1910""
","
","
","""event"",""trial"",""time""
""fullscreenenter"",""1"",""1910""
","
",,387,run_exp/static/images/task_images/land.jpg,65,,,,,,,52,,,3,,,,,,,,58103,1,0,FALSE,,,
dig,86,386119,0.0-29.0-0.0,"""event"",""trial"",""time""
""fullscreenenter"",""1"",""1910""
","
","
","""event"",""trial"",""time""
""fullscreenenter"",""1"",""1910""
","
",,,,,,,,,,,,"[{""stimulus"":""run_exp/static/images/task_images/dig.jpg"",""time"":0.20000000298023224},{""stimulus"":""run_exp/static/images/task_images/land.jpg"",""time"":879.0999999940395},{""stimulus"":""run_exp/static/images/task_images/dig.jpg"",""time"":1748.9000000059605}]",[],3,,,,,,,,,,,,,,
harvest,87,387130,0.0-29.0-1.0,"""event"",""trial"",""time""
""fullscreenenter"",""1"",""1910""
","
","
","""event"",""trial"",""time""
""fullscreenenter"",""1"",""1910""
","
",,null,run_exp/static/images/task_images/gems/52.jpg,null,,,,,,,25,,,3,,,,,52,0.479082831,0.480769231,,,,,,,
decision,88,387187,0.0-29.0-2.0,"""event"",""trial"",""time""
""fullscreenenter"",""1"",""1910""
","
","
","""event"",""trial"",""time""
""fullscreenenter"",""1"",""1910""
","
",,55.5,run_exp/static/images/task_images/land.jpg,65,,,,,,,25,,,3,,,,,,,,61791,1,1,FALSE,,,
dig,89,390146,0.0-30.0-0.0,"""event"",""trial"",""time""
""fullscreenenter"",""1"",""1910""
","
","
","""event"",""trial"",""time""
""fullscreenenter"",""1"",""1910""
","
",,,,,,,,,,,,"[{""stimulus"":""run_exp/static/images/task_images/dig.jpg"",""time"":0.3999999910593033},{""stimulus"":""run_exp/static/images/task_images/land.jpg"",""time"":991.8999999910593},{""stimulus"":""run_exp/static/images/task_images/dig.jpg"",""time"":1973}]",[],3,,,,,,,,,,,,,,
harvest,90,391153,0.0-30.0-1.0,"""event"",""trial"",""time""
""fullscreenenter"",""1"",""1910""
","
","
","""event"",""trial"",""time""
""fullscreenenter"",""1"",""1910""
","
",,null,run_exp/static/images/task_images/gems/25.jpg,null,,,,,,,13,,,3,,,,,25,0.505445854,0.52,,,,,,,
decision,91,391916,0.0-30.0-2.0,"""event"",""trial"",""time""
""fullscreenenter"",""1"",""1910""
","
","
","""event"",""trial"",""time""
""fullscreenenter"",""1"",""1910""
","
",,760.8,run_exp/static/images/task_images/land.jpg,76,,,,,,,13,,,3,,,,,,,,66520,1,2,TRUE,,,
travel,92,401159,0.0-31.0-0.0,"""event"",""trial"",""time""
""fullscreenenter"",""1"",""1910""
","
","
","""event"",""trial"",""time""
""fullscreenenter"",""1"",""1910""
","
",,,,,,,,,,,,"[{""stimulus"":""run_exp/static/images/task_images/rocket-01.jpg"",""time"":0.4000000059604645},{""stimulus"":""run_exp/static/images/task_images/rocket-02.jpg"",""time"":1042.5},{""stimulus"":""run_exp/static/images/task_images/rocket-03.jpg"",""time"":2062.7000000029802},{""stimulus"":""run_exp/static/images/task_images/rocket-04.jpg"",""time"":3083},{""stimulus"":""run_exp/static/images/task_images/rocket-05.jpg"",""time"":4106.300000011921},{""stimulus"":""run_exp/static/images/task_images/rocket-06.jpg"",""time"":5132.20000000298},{""stimulus"":""run_exp/static/images/task_images/rocket-07.jpg"",""time"":6171.800000011921},{""stimulus"":""run_exp/static/images/task_images/rocket-08.jpg"",""time"":7195.300000011921},{""stimulus"":""run_exp/static/images/task_images/rocket-09.jpg"",""time"":8216.70000000298}]",[],3,,,,,,,,,,,,,,
alien_welcome,93,406174,0.0-31.0-1.0,"""event"",""trial"",""time""
""fullscreenenter"",""1"",""1910""
","
","
","""event"",""trial"",""time""
""fullscreenenter"",""1"",""1910""
","
",,null,run_exp/static/images/task_images/aliens/old_aliens/planet/alien_planet-51.jpg,null,,,,,,,,,,,,,51,"44,29,12,51,25,61,53,69,75,37,72,74,33,54,1,41,36,46,70,23,3,31,52,60,57,17,59,77,26,68,48,43,20,5,22,6,42,63,18,21",,,,,,,,,,
land,94,406688,0.0-31.0-2.0,"""event"",""trial"",""time""
""fullscreenenter"",""1"",""1910""
","
","
","""event"",""trial"",""time""
""fullscreenenter"",""1"",""1910""
","
",,null,run_exp/static/images/task_images/land.jpg,null,,,,,,,103,,,4,,,,,,,,,,,,,,
dig,95,408701,0.0-31.0-3.0,"""event"",""trial"",""time""
""fullscreenenter"",""1"",""1910""
","
","
","""event"",""trial"",""time""
""fullscreenenter"",""1"",""1910""
","
",,,,,,,,,,,,"[{""stimulus"":""run_exp/static/images/task_images/dig.jpg"",""time"":0.20000000298023224},{""stimulus"":""run_exp/static/images/task_images/land.jpg"",""time"":681.8999999910593},{""stimulus"":""run_exp/static/images/task_images/dig.jpg"",""time"":1349.0999999940395}]",[],4,,,,,,,,,,,,,,
harvest,96,409711,0.0-31.0-4.0,"""event"",""trial"",""time""
""fullscreenenter"",""1"",""1910""
","
","
","""event"",""trial"",""time""
""fullscreenenter"",""1"",""1910""
","
",,null,run_exp/static/images/task_images/gems/103.jpg,null,,,,,,,49,,,4,,,,,103,0.477447314,0.475728155,,,,,,,
decision,97,410739,0.0-31.0-5.0,"""event"",""trial"",""time""
""fullscreenenter"",""1"",""1910""
","
","
","""event"",""trial"",""time""
""fullscreenenter"",""1"",""1910""
","
",,1027.2,run_exp/static/images/task_images/land.jpg,65,,,,,,,49,,,4,,,,,,,,85343,1,0,FALSE,,,
dig,98,412726,0.0-32.0-0.0,"""event"",""trial"",""time""
""fullscreenenter"",""1"",""1910""
","
","
","""event"",""trial"",""time""
""fullscreenenter"",""1"",""1910""
","
",,,,,,,,,,,,"[{""stimulus"":""run_exp/static/images/task_images/dig.jpg"",""time"":0.20000000298023224},{""stimulus"":""run_exp/static/images/task_images/land.jpg"",""time"":661.9000000059605},{""stimulus"":""run_exp/static/images/task_images/dig.jpg"",""time"":1316.9000000059605}]",[],4,,,,,,,,,,,,,,
harvest,99,413734,0.0-32.0-1.0,"""event"",""trial"",""time""
""fullscreenenter"",""1"",""1910""
","
","
","""event"",""trial"",""time""
""fullscreenenter"",""1"",""1910""
","
",,null,run_exp/static/images/task_images/gems/49.jpg,null,,,,,,,25,,,4,,,,,49,0.514962118,0.510204082,,,,,,,
decision,100,413828,0.0-32.0-2.0,"""event"",""trial"",""time""
""fullscreenenter"",""1"",""1910""
","
","
","""event"",""trial"",""time""
""fullscreenenter"",""1"",""1910""
","
",,91.8,run_exp/static/images/task_images/land.jpg,65,,,,,,,25,,,4,,,,,,,,88432,1,1,FALSE,,,
dig,101,416756,0.0-33.0-0.0,"""event"",""trial"",""time""
""fullscreenenter"",""1"",""1910""
","
","
","""event"",""trial"",""time""
""fullscreenenter"",""1"",""1910""
","
",,,,,,,,,,,,"[{""stimulus"":""run_exp/static/images/task_images/dig.jpg"",""time"":0.3999999910593033},{""stimulus"":""run_exp/static/images/task_images/land.jpg"",""time"":971.5},{""stimulus"":""run_exp/static/images/task_images/dig.jpg"",""time"":1947}]",[],4,,,,,,,,,,,,,,
harvest,102,417762,0.0-33.0-1.0,"""event"",""trial"",""time""
""fullscreenenter"",""1"",""1910""
","
","
","""event"",""trial"",""time""
""fullscreenenter"",""1"",""1910""
","
",,null,run_exp/static/images/task_images/gems/25.jpg,null,,,,,,,15,,,4,,,,,25,0.617584588,0.6,,,,,,,
decision,103,418636,0.0-33.0-2.0,"""event"",""trial"",""time""
""fullscreenenter"",""1"",""1910""
","
","
","""event"",""trial"",""time""
""fullscreenenter"",""1"",""1910""
","
",,871.6,run_exp/static/images/task_images/land.jpg,76,,,,,,,15,,,4,,,,,,,,93240,1,2,TRUE,,,
travel,104,427773,0.0-34.0-0.0,"""event"",""trial"",""time""
""fullscreenenter"",""1"",""1910""
","
","
","""event"",""trial"",""time""
""fullscreenenter"",""1"",""1910""
","
",,,,,,,,,,,,"[{""stimulus"":""run_exp/static/images/task_images/rocket-01.jpg"",""time"":0.4000000059604645},{""stimulus"":""run_exp/static/images/task_images/rocket-02.jpg"",""time"":1019},{""stimulus"":""run_exp/static/images/task_images/rocket-03.jpg"",""time"":2030.4000000059605},{""stimulus"":""run_exp/static/images/task_images/rocket-04.jpg"",""time"":3057.2000000029802},{""stimulus"":""run_exp/static/images/task_images/rocket-05.jpg"",""time"":4067.5},{""stimulus"":""run_exp/static/images/task_images/rocket-06.jpg"",""time"":5077.5999999940395},{""stimulus"":""run_exp/static/images/task_images/rocket-07.jpg"",""time"":6086.20000000298},{""stimulus"":""run_exp/static/images/task_images/rocket-08.jpg"",""time"":7111.5999999940395},{""stimulus"":""run_exp/static/images/task_images/rocket-09.jpg"",""time"":8120.20000000298}]",[],4,,,,,,,,,,,,,,
alien_welcome,105,432782,0.0-34.0-1.0,"""event"",""trial"",""time""
""fullscreenenter"",""1"",""1910""
","
","
","""event"",""trial"",""time""
""fullscreenenter"",""1"",""1910""
","
",,null,run_exp/static/images/task_images/aliens/old_aliens/planet/alien_planet-25.jpg,null,,,,,,,,,,,,,25,"44,29,12,51,25,61,53,69,75,37,72,74,33,54,1,41,36,46,70,23,3,31,52,60,57,17,59,77,26,68,48,43,20,5,22,6,42,63,18,21",,,,,,,,,,
land,106,433293,0.0-34.0-2.0,"""event"",""trial"",""time""
""fullscreenenter"",""1"",""1910""
","
","
","""event"",""trial"",""time""
""fullscreenenter"",""1"",""1910""
","
",,null,run_exp/static/images/task_images/land.jpg,null,,,,,,,112,,,5,,,,,,,,,,,,,,
dig,107,435310,0.0-34.0-3.0,"""event"",""trial"",""time""
""fullscreenenter"",""1"",""1910""
","
","
","""event"",""trial"",""time""
""fullscreenenter"",""1"",""1910""
","
",,,,,,,,,,,,"[{""stimulus"":""run_exp/static/images/task_images/dig.jpg"",""time"":0.6000000089406967},{""stimulus"":""run_exp/static/images/task_images/land.jpg"",""time"":679},{""stimulus"":""run_exp/static/images/task_images/dig.jpg"",""time"":1349}]",[],5,,,,,,,,,,,,,,
harvest,108,436320,0.0-34.0-4.0,"""event"",""trial"",""time""
""fullscreenenter"",""1"",""1910""
","
","
","""event"",""trial"",""time""
""fullscreenenter"",""1"",""1910""
","
",,null,run_exp/static/images/task_images/gems/112.jpg,null,,,,,,,39,,,5,,,,,112,0.343815381,0.348214286,,,,,,,
decision,109,436916,0.0-34.0-5.0,"""event"",""trial"",""time""
""fullscreenenter"",""1"",""1910""
","
","
","""event"",""trial"",""time""
""fullscreenenter"",""1"",""1910""
","
",,593,run_exp/static/images/task_images/land.jpg,65,,,,,,,39,,,5,,,,,,,,111520,1,0,FALSE,,,
dig,110,439335,0.0-35.0-0.0,"""event"",""trial"",""time""
""fullscreenenter"",""1"",""1910""
","
","
","""event"",""trial"",""time""
""fullscreenenter"",""1"",""1910""
","
",,,,,,,,,,,,"[{""stimulus"":""run_exp/static/images/task_images/dig.jpg"",""time"":0.5},{""stimulus"":""run_exp/static/images/task_images/land.jpg"",""time"":819.0999999940395},{""stimulus"":""run_exp/static/images/task_images/dig.jpg"",""time"":1610.0999999940395}]",[],5,,,,,,,,,,,,,,
harvest,111,440346,0.0-35.0-1.0,"""event"",""trial"",""time""
""fullscreenenter"",""1"",""1910""
","
","
","""event"",""trial"",""time""
""fullscreenenter"",""1"",""1910""
","
",,null,run_exp/static/images/task_images/gems/39.jpg,null,,,,,,,15,,,5,,,,,39,0.37832702,0.384615385,,,,,,,
decision,112,441211,0.0-35.0-2.0,"""event"",""trial"",""time""
""fullscreenenter"",""1"",""1910""
","
","
","""event"",""trial"",""time""
""fullscreenenter"",""1"",""1910""
","
",,863.3,run_exp/static/images/task_images/land.jpg,76,,,,,,,15,,,5,,,,,,,,115815,1,1,TRUE,,,
travel,113,450365,0.0-36.0-0.0,"""event"",""trial"",""time""
""fullscreenenter"",""1"",""1910""
","
","
","""event"",""trial"",""time""
""fullscreenenter"",""1"",""1910""
","
",,,,,,,,,,,,"[{""stimulus"":""run_exp/static/images/task_images/rocket-01.jpg"",""time"":0.29999999701976776},{""stimulus"":""run_exp/static/images/task_images/rocket-02.jpg"",""time"":1029.4000000059605},{""stimulus"":""run_exp/static/images/task_images/rocket-03.jpg"",""time"":2044},{""stimulus"":""run_exp/static/images/task_images/rocket-04.jpg"",""time"":3054.1000000089407},{""stimulus"":""run_exp/static/images/task_images/rocket-05.jpg"",""time"":4063.1000000089407},{""stimulus"":""run_exp/static/images/task_images/rocket-06.jpg"",""time"":5087.600000008941},{""stimulus"":""run_exp/static/images/task_images/rocket-07.jpg"",""time"":6094},{""stimulus"":""run_exp/static/images/task_images/rocket-08.jpg"",""time"":7116.4000000059605},{""stimulus"":""run_exp/static/images/task_images/rocket-09.jpg"",""time"":8128.5}]",[],5,,,,,,,,,,,,,,
alien_welcome,114,455368,0.0-36.0-1.0,"""event"",""trial"",""time""
""fullscreenenter"",""1"",""1910""
","
","
","""event"",""trial"",""time""
""fullscreenenter"",""1"",""1910""
","
",,null,run_exp/static/images/task_images/aliens/old_aliens/planet/alien_planet-61.jpg,null,,,,,,,,,,,,,61,"44,29,12,51,25,61,53,69,75,37,72,74,33,54,1,41,36,46,70,23,3,31,52,60,57,17,59,77,26,68,48,43,20,5,22,6,42,63,18,21",,,,,,,,,,
land,115,455881,0.0-36.0-2.0,"""event"",""trial"",""time""
""fullscreenenter"",""1"",""1910""
","
","
","""event"",""trial"",""time""
""fullscreenenter"",""1"",""1910""
","
",,null,run_exp/static/images/task_images/land.jpg,null,,,,,,,97,,,6,,,,,,,,,,,,,,
dig,116,457892,0.0-36.0-3.0,"""event"",""trial"",""time""
""fullscreenenter"",""1"",""1910""
","
","
","""event"",""trial"",""time""
""fullscreenenter"",""1"",""1910""
","
",,,,,,,,,,,,"[{""stimulus"":""run_exp/static/images/task_images/dig.jpg"",""time"":0.5999999940395355},{""stimulus"":""run_exp/static/images/task_images/land.jpg"",""time"":680.7999999970198},{""stimulus"":""run_exp/static/images/task_images/dig.jpg"",""time"":1347.5999999940395}]",[],6,,,,,,,,,,,,,,
harvest,117,458895,0.0-36.0-4.0,"""event"",""trial"",""time""
""fullscreenenter"",""1"",""1910""
","
","
","""event"",""trial"",""time""
""fullscreenenter"",""1"",""1910""
","
",,null,run_exp/static/images/task_images/gems/97.jpg,null,,,,,,,71,,,6,,,,,97,0.733374295,0.731958763,,,,,,,
decision,118,459836,0.0-36.0-5.0,"""event"",""trial"",""time""
""fullscreenenter"",""1"",""1910""
","
","
","""event"",""trial"",""time""
""fullscreenenter"",""1"",""1910""
","
",,938.9,run_exp/static/images/task_images/land.jpg,65,,,,,,,71,,,6,,,,,,,,134440,1,0,FALSE,,,
dig,119,461910,0.0-37.0-0.0,"""event"",""trial"",""time""
""fullscreenenter"",""1"",""1910""
","
","
","""event"",""trial"",""time""
""fullscreenenter"",""1"",""1910""
","
",,,,,,,,,,,,"[{""stimulus"":""run_exp/static/images/task_images/dig.jpg"",""time"":0.3999999910593033},{""stimulus"":""run_exp/static/images/task_images/land.jpg"",""time"":692},{""stimulus"":""run_exp/static/images/task_images/dig.jpg"",""time"":1387.7000000029802}]",[],6,,,,,,,,,,,,,,
harvest,120,462922,0.0-37.0-1.0,"""event"",""trial"",""time""
""fullscreenenter"",""1"",""1910""
","
","
","""event"",""trial"",""time""
""fullscreenenter"",""1"",""1910""
","
",,null,run_exp/static/images/task_images/gems/71.jpg,null,,,,,,,59,,,6,,,,,71,0.835876573,0.830985915,,,,,,,
decision,121,462948,0.0-37.0-2.0,"""event"",""trial"",""time""
""fullscreenenter"",""1"",""1910""
","
","
","""event"",""trial"",""time""
""fullscreenenter"",""1"",""1910""
","
",,24.09999999,run_exp/static/images/task_images/land.jpg,65,,,,,,,59,,,6,,,,,,,,137552,1,1,FALSE,,,
dig,122,465944,0.0-38.0-0.0,"""event"",""trial"",""time""
""fullscreenenter"",""1"",""1910""
","
","
","""event"",""trial"",""time""
""fullscreenenter"",""1"",""1910""
","
",,,,,,,,,,,,"[{""stimulus"":""run_exp/static/images/task_images/dig.jpg"",""time"":0.3999999910593033},{""stimulus"":""run_exp/static/images/task_images/land.jpg"",""time"":1006.8999999910593},{""stimulus"":""run_exp/static/images/task_images/dig.jpg"",""time"":1998.199999988079}]",[],6,,,,,,,,,,,,,,
harvest,123,466955,0.0-38.0-1.0,"""event"",""trial"",""time""
""fullscreenenter"",""1"",""1910""
","
","
","""event"",""trial"",""time""
""fullscreenenter"",""1"",""1910""
","
",,null,run_exp/static/images/task_images/gems/59.jpg,null,,,,,,,50,,,6,,,,,59,0.846274498,0.847457627,,,,,,,
decision,124,467307,0.0-38.0-2.0,"""event"",""trial"",""time""
""fullscreenenter"",""1"",""1910""
","
","
","""event"",""trial"",""time""
""fullscreenenter"",""1"",""1910""
","
",,351.6,run_exp/static/images/task_images/land.jpg,65,,,,,,,50,,,6,,,,,,,,141912,1,2,FALSE,,,
dig,125,469973,0.0-39.0-0.0,"""event"",""trial"",""time""
""fullscreenenter"",""1"",""1910""
","
","
","""event"",""trial"",""time""
""fullscreenenter"",""1"",""1910""
","
",,,,,,,,,,,,"[{""stimulus"":""run_exp/static/images/task_images/dig.jpg"",""time"":0.4000000059604645},{""stimulus"":""run_exp/static/images/task_images/land.jpg"",""time"":891},{""stimulus"":""run_exp/static/images/task_images/dig.jpg"",""time"":1774.5999999940395}]",[],6,,,,,,,,,,,,,,
harvest,126,470987,0.0-39.0-1.0,"""event"",""trial"",""time""
""fullscreenenter"",""1"",""1910""
","
","
","""event"",""trial"",""time""
""fullscreenenter"",""1"",""1910""
","
",,null,run_exp/static/images/task_images/gems/50.jpg,null,,,,,,,40,,,6,,,,,50,0.791941183,0.8,,,,,,,
decision,127,471147,0.0-39.0-2.0,"""event"",""trial"",""time""
""fullscreenenter"",""1"",""1910""
","
","
","""event"",""trial"",""time""
""fullscreenenter"",""1"",""1910""
","
",,158.4,run_exp/static/images/task_images/land.jpg,65,,,,,,,40,,,6,,,,,,,,145751,1,3,FALSE,,,
dig,128,473998,0.0-40.0-0.0,"""event"",""trial"",""time""
""fullscreenenter"",""1"",""1910""
","
","
","""event"",""trial"",""time""
""fullscreenenter"",""1"",""1910""
","
",,,,,,,,,,,,"[{""stimulus"":""run_exp/static/images/task_images/dig.jpg"",""time"":0.29999999701976776},{""stimulus"":""run_exp/static/images/task_images/land.jpg"",""time"":949.4000000059605},{""stimulus"":""run_exp/static/images/task_images/dig.jpg"",""time"":1898.7000000029802}]",[],6,,,,,,,,,,,,,,
harvest,129,475012,0.0-40.0-1.0,"""event"",""trial"",""time""
""fullscreenenter"",""1"",""1910""
","
","
","""event"",""trial"",""time""
""fullscreenenter"",""1"",""1910""
","
",,null,run_exp/static/images/task_images/gems/40.jpg,null,,,,,,,32,,,6,,,,,40,0.789146175,0.8,,,,,,,
decision,130,475331,0.0-40.0-2.0,"""event"",""trial"",""time""
""fullscreenenter"",""1"",""1910""
","
","
","""event"",""trial"",""time""
""fullscreenenter"",""1"",""1910""
","
",,316.7,run_exp/static/images/task_images/land.jpg,65,,,,,,,32,,,6,,,,,,,,149935,1,4,FALSE,,,
dig,131,478035,0.0-41.0-0.0,"""event"",""trial"",""time""
""fullscreenenter"",""1"",""1910""
","
","
","""event"",""trial"",""time""
""fullscreenenter"",""1"",""1910""
","
",,,,,,,,,,,,"[{""stimulus"":""run_exp/static/images/task_images/dig.jpg"",""time"":0.4000000059604645},{""stimulus"":""run_exp/static/images/task_images/land.jpg"",""time"":901.6000000089407},{""stimulus"":""run_exp/static/images/task_images/dig.jpg"",""time"":1802.6000000089407}]",[],6,,,,,,,,,,,,,,
harvest,132,479049,0.0-41.0-1.0,"""event"",""trial"",""time""
""fullscreenenter"",""1"",""1910""
","
","
","""event"",""trial"",""time""
""fullscreenenter"",""1"",""1910""
","
",,null,run_exp/static/images/task_images/gems/32.jpg,null,,,,,,,23,,,6,,,,,32,0.721230688,0.71875,,,,,,,
decision,133,479722,0.0-41.0-2.0,"""event"",""trial"",""time""
""fullscreenenter"",""1"",""1910""
","
","
","""event"",""trial"",""time""
""fullscreenenter"",""1"",""1910""
","
",,671.8,run_exp/static/images/task_images/land.jpg,76,,,,,,,23,,,6,,,,,,,,154326,1,5,TRUE,,,
travel,134,489065,0.0-42.0-0.0,"""event"",""trial"",""time""
""fullscreenenter"",""1"",""1910""
","
","
","""event"",""trial"",""time""
""fullscreenenter"",""1"",""1910""
","
",,,,,,,,,,,,"[{""stimulus"":""run_exp/static/images/task_images/rocket-01.jpg"",""time"":0.29999999701976776},{""stimulus"":""run_exp/static/images/task_images/rocket-02.jpg"",""time"":1046},{""stimulus"":""run_exp/static/images/task_images/rocket-03.jpg"",""time"":2087.2000000029802},{""stimulus"":""run_exp/static/images/task_images/rocket-04.jpg"",""time"":3114},{""stimulus"":""run_exp/static/images/task_images/rocket-05.jpg"",""time"":4154.899999991059},{""stimulus"":""run_exp/static/images/task_images/rocket-06.jpg"",""time"":5191.79999999702},{""stimulus"":""run_exp/static/images/task_images/rocket-07.jpg"",""time"":6217.399999991059},{""stimulus"":""run_exp/static/images/task_images/rocket-08.jpg"",""time"":7258.29999999702},{""stimulus"":""run_exp/static/images/task_images/rocket-09.jpg"",""time"":8300.20000000298}]",[],6,,,,,,,,,,,,,,
alien_welcome,135,494074,0.0-42.0-1.0,"""event"",""trial"",""time""
""fullscreenenter"",""1"",""1910""
","
","
","""event"",""trial"",""time""
""fullscreenenter"",""1"",""1910""
","
",,null,run_exp/static/images/task_images/aliens/old_aliens/planet/alien_planet-53.jpg,null,,,,,,,,,,,,,53,"44,29,12,51,25,61,53,69,75,37,72,74,33,54,1,41,36,46,70,23,3,31,52,60,57,17,59,77,26,68,48,43,20,5,22,6,42,63,18,21",,,,,,,,,,
land,136,494588,0.0-42.0-2.0,"""event"",""trial"",""time""
""fullscreenenter"",""1"",""1910""
","
","
","""event"",""trial"",""time""
""fullscreenenter"",""1"",""1910""
","
",,null,run_exp/static/images/task_images/land.jpg,null,,,,,,,101,,,7,,,,,,,,,,,,,,
dig,137,496601,0.0-42.0-3.0,"""event"",""trial"",""time""
""fullscreenenter"",""1"",""1910""
","
","
","""event"",""trial"",""time""
""fullscreenenter"",""1"",""1910""
","
",,,,,,,,,,,,"[{""stimulus"":""run_exp/static/images/task_images/dig.jpg"",""time"":0.3999999910593033},{""stimulus"":""run_exp/static/images/task_images/land.jpg"",""time"":680.8999999910593},{""stimulus"":""run_exp/static/images/task_images/dig.jpg"",""time"":1344.5999999940395}]",[],7,,,,,,,,,,,,,,
harvest,138,497610,0.0-42.0-4.0,"""event"",""trial"",""time""
""fullscreenenter"",""1"",""1910""
","
","
","""event"",""trial"",""time""
""fullscreenenter"",""1"",""1910""
","
",,null,run_exp/static/images/task_images/gems/101.jpg,null,,,,,,,89,,,7,,,,,101,0.880695761,0.881188119,,,,,,,
decision,139,497698,0.0-42.0-5.0,"""event"",""trial"",""time""
""fullscreenenter"",""1"",""1910""
","
","
","""event"",""trial"",""time""
""fullscreenenter"",""1"",""1910""
","
",,85.8,run_exp/static/images/task_images/land.jpg,65,,,,,,,89,,,7,,,,,,,,172302,1,0,FALSE,,,
dig,140,500622,0.0-43.0-0.0,"""event"",""trial"",""time""
""fullscreenenter"",""1"",""1910""
","
","
","""event"",""trial"",""time""
""fullscreenenter"",""1"",""1910""
","
",,,,,,,,,,,,"[{""stimulus"":""run_exp/static/images/task_images/dig.jpg"",""time"":0.20000000298023224},{""stimulus"":""run_exp/static/images/task_images/land.jpg"",""time"":984},{""stimulus"":""run_exp/static/images/task_images/dig.jpg"",""time"":1955.5999999940395}]",[],7,,,,,,,,,,,,,,
harvest,141,501631,0.0-43.0-1.0,"""event"",""trial"",""time""
""fullscreenenter"",""1"",""1910""
","
","
","""event"",""trial"",""time""
""fullscreenenter"",""1"",""1910""
","
",,null,run_exp/static/images/task_images/gems/89.jpg,null,,,,,,,74,,,7,,,,,89,0.833748216,0.831460674,,,,,,,
decision,142,502299,0.0-43.0-2.0,"""event"",""trial"",""time""
""fullscreenenter"",""1"",""1910""
","
","
","""event"",""trial"",""time""
""fullscreenenter"",""1"",""1910""
","
",,666.5,run_exp/static/images/task_images/land.jpg,65,,,,,,,74,,,7,,,,,,,,176903,1,1,FALSE,,,
dig,143,504648,0.0-44.0-0.0,"""event"",""trial"",""time""
""fullscreenenter"",""1"",""1910""
","
","
","""event"",""trial"",""time""
""fullscreenenter"",""1"",""1910""
","
",,,,,,,,,,,,"[{""stimulus"":""run_exp/static/images/task_images/dig.jpg"",""time"":0.20000000298023224},{""stimulus"":""run_exp/static/images/task_images/land.jpg"",""time"":781.7999999970198},{""stimulus"":""run_exp/static/images/task_images/dig.jpg"",""time"":1570}]",[],7,,,,,,,,,,,,,,
harvest,144,505658,0.0-44.0-1.0,"""event"",""trial"",""time""
""fullscreenenter"",""1"",""1910""
","
","
","""event"",""trial"",""time""
""fullscreenenter"",""1"",""1910""
","
",,null,run_exp/static/images/task_images/gems/74.jpg,null,,,,,,,64,,,7,,,,,74,0.870007865,0.864864865,,,,,,,
decision,145,505819,0.0-44.0-2.0,"""event"",""trial"",""time""
""fullscreenenter"",""1"",""1910""
","
","
","""event"",""trial"",""time""
""fullscreenenter"",""1"",""1910""
","
",,159,run_exp/static/images/task_images/land.jpg,65,,,,,,,64,,,7,,,,,,,,180423,1,2,FALSE,,,
dig,146,508666,0.0-45.0-0.0,"""event"",""trial"",""time""
""fullscreenenter"",""1"",""1910""
","
","
","""event"",""trial"",""time""
""fullscreenenter"",""1"",""1910""
","
",,,,,,,,,,,,"[{""stimulus"":""run_exp/static/images/task_images/dig.jpg"",""time"":0.29999999701976776},{""stimulus"":""run_exp/static/images/task_images/land.jpg"",""time"":951.9000000059605},{""stimulus"":""run_exp/static/images/task_images/dig.jpg"",""time"":1899}]",[],7,,,,,,,,,,,,,,
harvest,147,509676,0.0-45.0-1.0,"""event"",""trial"",""time""
""fullscreenenter"",""1"",""1910""
","
","
","""event"",""trial"",""time""
""fullscreenenter"",""1"",""1910""
","
",,null,run_exp/static/images/task_images/gems/64.jpg,null,,,,,,,49,,,7,,,,,64,0.766022346,0.765625,,,,,,,
decision,148,511091,0.0-45.0-2.0,"""event"",""trial"",""time""
""fullscreenenter"",""1"",""1910""
","
","
","""event"",""trial"",""time""
""fullscreenenter"",""1"",""1910""
","
",,1413.3,run_exp/static/images/task_images/land.jpg,65,,,,,,,49,,,7,,,,,,,,185696,1,3,FALSE,,,
dig,149,512689,0.0-46.0-0.0,"""event"",""trial"",""time""
""fullscreenenter"",""1"",""1910""
","
","
","""event"",""trial"",""time""
""fullscreenenter"",""1"",""1910""
","
",,,,,,,,,,,,"[{""stimulus"":""run_exp/static/images/task_images/dig.jpg"",""time"":0.3999999910593033},{""stimulus"":""run_exp/static/images/task_images/land.jpg"",""time"":533.8999999910593},{""stimulus"":""run_exp/static/images/task_images/dig.jpg"",""time"":1062.5999999940395}]",[],7,,,,,,,,,,,,,,
harvest,150,513698,0.0-46.0-1.0,"""event"",""trial"",""time""
""fullscreenenter"",""1"",""1910""
","
","
","""event"",""trial"",""time""
""fullscreenenter"",""1"",""1910""
","
",,null,run_exp/static/images/task_images/gems/49.jpg,null,,,,,,,38,,,7,,,,,49,0.77528555,0.775510204,,,,,,,
decision,151,514083,0.0-46.0-2.0,"""event"",""trial"",""time""
""fullscreenenter"",""1"",""1910""
","
","
","""event"",""trial"",""time""
""fullscreenenter"",""1"",""1910""
","
",,383,run_exp/static/images/task_images/land.jpg,65,,,,,,,38,,,7,,,,,,,,188688,1,4,FALSE,,,
dig,152,516714,0.0-47.0-0.0,"""event"",""trial"",""time""
""fullscreenenter"",""1"",""1910""
","
","
","""event"",""trial"",""time""
""fullscreenenter"",""1"",""1910""
","
",,,,,,,,,,,,"[{""stimulus"":""run_exp/static/images/task_images/dig.jpg"",""time"":0.4000000059604645},{""stimulus"":""run_exp/static/images/task_images/land.jpg"",""time"":882.7000000029802},{""stimulus"":""run_exp/static/images/task_images/dig.jpg"",""time"":1752.9000000059605}]",[],7,,,,,,,,,,,,,,
harvest,153,517720,0.0-47.0-1.0,"""event"",""trial"",""time""
""fullscreenenter"",""1"",""1910""
","
","
","""event"",""trial"",""time""
""fullscreenenter"",""1"",""1910""
","
",,null,run_exp/static/images/task_images/gems/38.jpg,null,,,,,,,30,,,7,,,,,38,0.801012052,0.789473684,,,,,,,
decision,154,518759,0.0-47.0-2.0,"""event"",""trial"",""time""
""fullscreenenter"",""1"",""1910""
","
","
","""event"",""trial"",""time""
""fullscreenenter"",""1"",""1910""
","
",,1036.8,run_exp/static/images/task_images/land.jpg,76,,,,,,,30,,,7,,,,,,,,193363,1,5,TRUE,,,
travel,155,527723,0.0-48.0-0.0,"""event"",""trial"",""time""
""fullscreenenter"",""1"",""1910""
","
","
","""event"",""trial"",""time""
""fullscreenenter"",""1"",""1910""
","
",,,,,,,,,,,,"[{""stimulus"":""run_exp/static/images/task_images/rocket-01.jpg"",""time"":0.29999999701976776},{""stimulus"":""run_exp/static/images/task_images/rocket-02.jpg"",""time"":1000.2000000029802},{""stimulus"":""run_exp/static/images/task_images/rocket-03.jpg"",""time"":1994.5999999940395},{""stimulus"":""run_exp/static/images/task_images/rocket-04.jpg"",""time"":2988.2999999970198},{""stimulus"":""run_exp/static/images/task_images/rocket-05.jpg"",""time"":3982.8999999910593},{""stimulus"":""run_exp/static/images/task_images/rocket-06.jpg"",""time"":4988.0999999940395},{""stimulus"":""run_exp/static/images/task_images/rocket-07.jpg"",""time"":5981.5999999940395},{""stimulus"":""run_exp/static/images/task_images/rocket-08.jpg"",""time"":6970.0999999940395},{""stimulus"":""run_exp/static/images/task_images/rocket-09.jpg"",""time"":7964.29999999702}]",[],7,,,,,,,,,,,,,,
alien_welcome,156,532731,0.0-48.0-1.0,"""event"",""trial"",""time""
""fullscreenenter"",""1"",""1910""
","
","
","""event"",""trial"",""time""
""fullscreenenter"",""1"",""1910""
","
",,null,run_exp/static/images/task_images/aliens/old_aliens/planet/alien_planet-69.jpg,null,,,,,,,,,,,,,69,"44,29,12,51,25,61,53,69,75,37,72,74,33,54,1,41,36,46,70,23,3,31,52,60,57,17,59,77,26,68,48,43,20,5,22,6,42,63,18,21",,,,,,,,,,
land,157,533234,0.0-48.0-2.0,"""event"",""trial"",""time""
""fullscreenenter"",""1"",""1910""
","
","
","""event"",""trial"",""time""
""fullscreenenter"",""1"",""1910""
","
",,null,run_exp/static/images/task_images/land.jpg,null,,,,,,,90,,,8,,,,,,,,,,,,,,
dig,158,535241,0.0-48.0-3.0,"""event"",""trial"",""time""
""fullscreenenter"",""1"",""1910""
","
","
","""event"",""trial"",""time""
""fullscreenenter"",""1"",""1910""
","
",,,,,,,,,,,,"[{""stimulus"":""run_exp/static/images/task_images/dig.jpg"",""time"":0.5},{""stimulus"":""run_exp/static/images/task_images/land.jpg"",""time"":670.5999999940395},{""stimulus"":""run_exp/static/images/task_images/dig.jpg"",""time"":1337.7000000029802}]",[],8,,,,,,,,,,,,,,
harvest,159,536250,0.0-48.0-4.0,"""event"",""trial"",""time""
""fullscreenenter"",""1"",""1910""
","
","
","""event"",""trial"",""time""
""fullscreenenter"",""1"",""1910""
","
",,null,run_exp/static/images/task_images/gems/90.jpg,null,,,,,,,81,,,8,,,,,90,0.901571395,0.9,,,,,,,
decision,160,536388,0.0-48.0-5.0,"""event"",""trial"",""time""
""fullscreenenter"",""1"",""1910""
","
","
","""event"",""trial"",""time""
""fullscreenenter"",""1"",""1910""
","
",,136.6,run_exp/static/images/task_images/land.jpg,65,,,,,,,81,,,8,,,,,,,,210992,1,0,FALSE,,,
dig,161,539263,0.0-49.0-0.0,"""event"",""trial"",""time""
""fullscreenenter"",""1"",""1910""
","
","
","""event"",""trial"",""time""
""fullscreenenter"",""1"",""1910""
","
",,,,,,,,,,,,"[{""stimulus"":""run_exp/static/images/task_images/dig.jpg"",""time"":0.29999999701976776},{""stimulus"":""run_exp/static/images/task_images/land.jpg"",""time"":958},{""stimulus"":""run_exp/static/images/task_images/dig.jpg"",""time"":1919.4000000059605}]",[],8,,,,,,,,,,,,,,
harvest,162,540271,0.0-49.0-1.0,"""event"",""trial"",""time""
""fullscreenenter"",""1"",""1910""
","
","
","""event"",""trial"",""time""
""fullscreenenter"",""1"",""1910""
","
",,null,run_exp/static/images/task_images/gems/81.jpg,null,,,,,,,63,,,8,,,,,81,0.78050859,0.777777778,,,,,,,
decision,163,541836,0.0-49.0-2.0,"""event"",""trial"",""time""
""fullscreenenter"",""1"",""1910""
","
","
","""event"",""trial"",""time""
""fullscreenenter"",""1"",""1910""
","
",,1563.3,run_exp/static/images/task_images/land.jpg,65,,,,,,,63,,,8,,,,,,,,216440,1,1,FALSE,,,
dig,164,543287,0.0-50.0-0.0,"""event"",""trial"",""time""
""fullscreenenter"",""1"",""1910""
","
","
","""event"",""trial"",""time""
""fullscreenenter"",""1"",""1910""
","
",,,,,,,,,,,,"[{""stimulus"":""run_exp/static/images/task_images/dig.jpg"",""time"":0.5},{""stimulus"":""run_exp/static/images/task_images/land.jpg"",""time"":486.29999999701977},{""stimulus"":""run_exp/static/images/task_images/dig.jpg"",""time"":965.5999999940395}]",[],8,,,,,,,,,,,,,,
harvest,165,544294,0.0-50.0-1.0,"""event"",""trial"",""time""
""fullscreenenter"",""1"",""1910""
","
","
","""event"",""trial"",""time""
""fullscreenenter"",""1"",""1910""
","
",,null,run_exp/static/images/task_images/gems/63.jpg,null,,,,,,,52,,,8,,,,,63,0.826939244,0.825396825,,,,,,,
decision,166,545068,0.0-50.0-2.0,"""event"",""trial"",""time""
""fullscreenenter"",""1"",""1910""
","
","
","""event"",""trial"",""time""
""fullscreenenter"",""1"",""1910""
","
",,772,run_exp/static/images/task_images/land.jpg,65,,,,,,,52,,,8,,,,,,,,219672,1,2,FALSE,,,
dig,167,547318,0.0-51.0-0.0,"""event"",""trial"",""time""
""fullscreenenter"",""1"",""1910""
","
","
","""event"",""trial"",""time""
""fullscreenenter"",""1"",""1910""
","
",,,,,,,,,,,,"[{""stimulus"":""run_exp/static/images/task_images/dig.jpg"",""time"":0.29999999701976776},{""stimulus"":""run_exp/static/images/task_images/land.jpg"",""time"":755.4000000059605},{""stimulus"":""run_exp/static/images/task_images/dig.jpg"",""time"":1497.2999999970198}]",[],8,,,,,,,,,,,,,,
harvest,168,548326,0.0-51.0-1.0,"""event"",""trial"",""time""
""fullscreenenter"",""1"",""1910""
","
","
","""event"",""trial"",""time""
""fullscreenenter"",""1"",""1910""
","
",,null,run_exp/static/images/task_images/gems/52.jpg,null,,,,,,,43,,,8,,,,,52,0.830627752,0.826923077,,,,,,,
decision,169,548443,0.0-51.0-2.0,"""event"",""trial"",""time""
""fullscreenenter"",""1"",""1910""
","
","
","""event"",""trial"",""time""
""fullscreenenter"",""1"",""1910""
","
",,115.3,run_exp/static/images/task_images/land.jpg,65,,,,,,,43,,,8,,,,,,,,223047,1,3,FALSE,,,
dig,170,551334,0.0-52.0-0.0,"""event"",""trial"",""time""
""fullscreenenter"",""1"",""1910""
","
","
","""event"",""trial"",""time""
""fullscreenenter"",""1"",""1910""
","
",,,,,,,,,,,,"[{""stimulus"":""run_exp/static/images/task_images/dig.jpg"",""time"":0.20000000298023224},{""stimulus"":""run_exp/static/images/task_images/land.jpg"",""time"":964.8000000119209},{""stimulus"":""run_exp/static/images/task_images/dig.jpg"",""time"":1938.4000000059605}]",[],8,,,,,,,,,,,,,,
harvest,171,552343,0.0-52.0-1.0,"""event"",""trial"",""time""
""fullscreenenter"",""1"",""1910""
","
","
","""event"",""trial"",""time""
""fullscreenenter"",""1"",""1910""
","
",,null,run_exp/static/images/task_images/gems/43.jpg,null,,,,,,,35,,,8,,,,,43,0.824780542,0.813953488,,,,,,,
decision,172,555346,0.0-52.0-2.0,"""event"",""trial"",""time""
""fullscreenenter"",""1"",""1910""
","
","
","""event"",""trial"",""time""
""fullscreenenter"",""1"",""1910""
","
",,null,run_exp/static/images/task_images/land.jpg,null,,,,,,,35,,,8,,,,,,,,229950,1,4,FALSE,,,
time_out,173,557363,0.0-53.0-0.0,"""event"",""trial"",""time""
""fullscreenenter"",""1"",""1910""
","
","
","""event"",""trial"",""time""
""fullscreenenter"",""1"",""1910""
","
",,null,run_exp/static/images/task_images/time_out.jpg,null,,,,,,,35,,,,,,,,,,,,,,,,,
decision,174,557508,0.0-53.0-1.0,"""event"",""trial"",""time""
""fullscreenenter"",""1"",""1910""
","
","
","""event"",""trial"",""time""
""fullscreenenter"",""1"",""1910""
","
",,142.7,run_exp/static/images/task_images/land.jpg,65,,,,,,,35,,,8,,,,,,,,232112,1,4,FALSE,,,
dig,175,560376,0.0-54.0-0.0,"""event"",""trial"",""time""
""fullscreenenter"",""1"",""1910""
","
","
","""event"",""trial"",""time""
""fullscreenenter"",""1"",""1910""
","
",,,,,,,,,,,,"[{""stimulus"":""run_exp/static/images/task_images/dig.jpg"",""time"":0.30000001192092896},{""stimulus"":""run_exp/static/images/task_images/land.jpg"",""time"":964.1000000089407},{""stimulus"":""run_exp/static/images/task_images/dig.jpg"",""time"":1913.5}]",[],8,,,,,,,,,,,,,,
harvest,176,561388,0.0-54.0-1.0,"""event"",""trial"",""time""
""fullscreenenter"",""1"",""1910""
","
","
","""event"",""trial"",""time""
""fullscreenenter"",""1"",""1910""
","
",,null,run_exp/static/images/task_images/gems/35.jpg,null,,,,,,,30,,,8,,,,,35,0.856566927,0.857142857,,,,,,,
decision,177,562189,0.0-54.0-2.0,"""event"",""trial"",""time""
""fullscreenenter"",""1"",""1910""
","
","
","""event"",""trial"",""time""
""fullscreenenter"",""1"",""1910""
","
",,799.5,run_exp/static/images/task_images/land.jpg,76,,,,,,,30,,,8,,,,,,,,236793,1,5,TRUE,,,
travel,178,571401,0.0-55.0-0.0,"""event"",""trial"",""time""
""fullscreenenter"",""1"",""1910""
","
","
","""event"",""trial"",""time""
""fullscreenenter"",""1"",""1910""
","
",,,,,,,,,,,,"[{""stimulus"":""run_exp/static/images/task_images/rocket-01.jpg"",""time"":0.4000000059604645},{""stimulus"":""run_exp/static/images/task_images/rocket-02.jpg"",""time"":1024.2999999970198},{""stimulus"":""run_exp/static/images/task_images/rocket-03.jpg"",""time"":2047.5999999940395},{""stimulus"":""run_exp/static/images/task_images/rocket-04.jpg"",""time"":3069},{""stimulus"":""run_exp/static/images/task_images/rocket-05.jpg"",""time"":4091.5999999940395},{""stimulus"":""run_exp/static/images/task_images/rocket-06.jpg"",""time"":5115.5999999940395},{""stimulus"":""run_exp/static/images/task_images/rocket-07.jpg"",""time"":6138.29999999702},{""stimulus"":""run_exp/static/images/task_images/rocket-08.jpg"",""time"":7161.5},{""stimulus"":""run_exp/static/images/task_images/rocket-09.jpg"",""time"":8181.0999999940395}]",[],8,,,,,,,,,,,,,,
alien_welcome,179,576416,0.0-55.0-1.0,"""event"",""trial"",""time""
""fullscreenenter"",""1"",""1910""
","
","
","""event"",""trial"",""time""
""fullscreenenter"",""1"",""1910""
","
",,null,run_exp/static/images/task_images/aliens/old_aliens/planet/alien_planet-75.jpg,null,,,,,,,,,,,,,75,"44,29,12,51,25,61,53,69,75,37,72,74,33,54,1,41,36,46,70,23,3,31,52,60,57,17,59,77,26,68,48,43,20,5,22,6,42,63,18,21",,,,,,,,,,
land,180,576918,0.0-55.0-2.0,"""event"",""trial"",""time""
""fullscreenenter"",""1"",""1910""
","
","
","""event"",""trial"",""time""
""fullscreenenter"",""1"",""1910""
","
",,null,run_exp/static/images/task_images/land.jpg,null,,,,,,,97,,,9,,,,,,,,,,,,,,
dig,181,578927,0.0-55.0-3.0,"""event"",""trial"",""time""
""fullscreenenter"",""1"",""1910""
","
","
","""event"",""trial"",""time""
""fullscreenenter"",""1"",""1910""
","
",,,,,,,,,,,,"[{""stimulus"":""run_exp/static/images/task_images/dig.jpg"",""time"":0.5999999940395355},{""stimulus"":""run_exp/static/images/task_images/land.jpg"",""time"":674.0999999940395},{""stimulus"":""run_exp/static/images/task_images/dig.jpg"",""time"":1337.5}]",[],9,,,,,,,,,,,,,,
harvest,182,579937,0.0-55.0-4.0,"""event"",""trial"",""time""
""fullscreenenter"",""1"",""1910""
","
","
","""event"",""trial"",""time""
""fullscreenenter"",""1"",""1910""
","
",,null,run_exp/static/images/task_images/gems/97.jpg,null,,,,,,,25,,,9,,,,,97,0.259739959,0.257731959,,,,,,,
decision,183,580515,0.0-55.0-5.0,"""event"",""trial"",""time""
""fullscreenenter"",""1"",""1910""
","
","
","""event"",""trial"",""time""
""fullscreenenter"",""1"",""1910""
","
",,576,run_exp/static/images/task_images/land.jpg,65,,,,,,,25,,,9,,,,,,,,255119,1,0,FALSE,,,
dig,184,582953,0.0-56.0-0.0,"""event"",""trial"",""time""
""fullscreenenter"",""1"",""1910""
","
","
","""event"",""trial"",""time""
""fullscreenenter"",""1"",""1910""
","
",,,,,,,,,,,,"[{""stimulus"":""run_exp/static/images/task_images/dig.jpg"",""time"":0.29999999701976776},{""stimulus"":""run_exp/static/images/task_images/land.jpg"",""time"":819.7999999970198},{""stimulus"":""run_exp/static/images/task_images/dig.jpg"",""time"":1628.1000000089407}]",[],9,,,,,,,,,,,,,,
harvest,185,583961,0.0-56.0-1.0,"""event"",""trial"",""time""
""fullscreenenter"",""1"",""1910""
","
","
","""event"",""trial"",""time""
""fullscreenenter"",""1"",""1910""
","
",,null,run_exp/static/images/task_images/gems/25.jpg,null,,,,,,,5,,,9,,,,,25,0.181416957,0.2,,,,,,,
decision,186,584779,0.0-56.0-2.0,"""event"",""trial"",""time""
""fullscreenenter"",""1"",""1910""
","
","
","""event"",""trial"",""time""
""fullscreenenter"",""1"",""1910""
","
",,815.8,run_exp/static/images/task_images/land.jpg,76,,,,,,,5,,,9,,,,,,,,259383,1,1,TRUE,,,
travel,187,593977,0.0-57.0-0.0,"""event"",""trial"",""time""
""fullscreenenter"",""1"",""1910""
","
","
","""event"",""trial"",""time""
""fullscreenenter"",""1"",""1910""
","
",,,,,,,,,,,,"[{""stimulus"":""run_exp/static/images/task_images/rocket-01.jpg"",""time"":0},{""stimulus"":""run_exp/static/images/task_images/rocket-02.jpg"",""time"":1028.800000011921},{""stimulus"":""run_exp/static/images/task_images/rocket-03.jpg"",""time"":2051.9000000059605},{""stimulus"":""run_exp/static/images/task_images/rocket-04.jpg"",""time"":3075.9000000059605},{""stimulus"":""run_exp/static/images/task_images/rocket-05.jpg"",""time"":4095.800000011921},{""stimulus"":""run_exp/static/images/task_images/rocket-06.jpg"",""time"":5105.9000000059605},{""stimulus"":""run_exp/static/images/task_images/rocket-07.jpg"",""time"":6131},{""stimulus"":""run_exp/static/images/task_images/rocket-08.jpg"",""time"":7142.300000011921},{""stimulus"":""run_exp/static/images/task_images/rocket-09.jpg"",""time"":8170.70000000298}]",[],9,,,,,,,,,,,,,,
alien_welcome,188,598985,0.0-57.0-1.0,"""event"",""trial"",""time""
""fullscreenenter"",""1"",""1910""
","
","
","""event"",""trial"",""time""
""fullscreenenter"",""1"",""1910""
","
",,null,run_exp/static/images/task_images/aliens/old_aliens/planet/alien_planet-37.jpg,null,,,,,,,,,,,,,37,"44,29,12,51,25,61,53,69,75,37,72,74,33,54,1,41,36,46,70,23,3,31,52,60,57,17,59,77,26,68,48,43,20,5,22,6,42,63,18,21",,,,,,,,,,
land,189,599495,0.0-57.0-2.0,"""event"",""trial"",""time""
""fullscreenenter"",""1"",""1910""
","
","
","""event"",""trial"",""time""
""fullscreenenter"",""1"",""1910""
","
",,null,run_exp/static/images/task_images/land.jpg,null,,,,,,,104,,,10,,,,,,,,,,,,,,
dig,190,601514,0.0-57.0-3.0,"""event"",""trial"",""time""
""fullscreenenter"",""1"",""1910""
","
","
","""event"",""trial"",""time""
""fullscreenenter"",""1"",""1910""
","
",,,,,,,,,,,,"[{""stimulus"":""run_exp/static/images/task_images/dig.jpg"",""time"":0.5},{""stimulus"":""run_exp/static/images/task_images/land.jpg"",""time"":679.7000000029802},{""stimulus"":""run_exp/static/images/task_images/dig.jpg"",""time"":1349.2999999970198}]",[],10,,,,,,,,,,,,,,
harvest,191,602527,0.0-57.0-4.0,"""event"",""trial"",""time""
""fullscreenenter"",""1"",""1910""
","
","
","""event"",""trial"",""time""
""fullscreenenter"",""1"",""1910""
","
",,null,run_exp/static/images/task_images/gems/104.jpg,null,,,,,,,22,,,10,,,,,104,0.210089432,0.211538462,,,,,,,
decision,192,603531,0.0-57.0-5.0,"""event"",""trial"",""time""
""fullscreenenter"",""1"",""1910""
","
","
","""event"",""trial"",""time""
""fullscreenenter"",""1"",""1910""
","
",,1001.4,run_exp/static/images/task_images/land.jpg,65,,,,,,,22,,,10,,,,,,,,278135,1,0,FALSE,,,
dig,193,605539,0.0-58.0-0.0,"""event"",""trial"",""time""
""fullscreenenter"",""1"",""1910""
","
","
","""event"",""trial"",""time""
""fullscreenenter"",""1"",""1910""
","
",,,,,,,,,,,,"[{""stimulus"":""run_exp/static/images/task_images/dig.jpg"",""time"":0.29999999701976776},{""stimulus"":""run_exp/static/images/task_images/land.jpg"",""time"":682.7999999970198},{""stimulus"":""run_exp/static/images/task_images/dig.jpg"",""time"":1335.2999999970198}]",[],10,,,,,,,,,,,,,,
harvest,194,606551,0.0-58.0-1.0,"""event"",""trial"",""time""
""fullscreenenter"",""1"",""1910""
","
","
","""event"",""trial"",""time""
""fullscreenenter"",""1"",""1910""
","
",,null,run_exp/static/images/task_images/gems/22.jpg,null,,,,,,,3,,,10,,,,,22,0.119128367,0.136363636,,,,,,,
decision,195,606612,0.0-58.0-2.0,"""event"",""trial"",""time""
""fullscreenenter"",""1"",""1910""
","
","
","""event"",""trial"",""time""
""fullscreenenter"",""1"",""1910""
","
",,58.60000001,run_exp/static/images/task_images/land.jpg,65,,,,,,,3,,,10,,,,,,,,281216,1,1,FALSE,,,
dig,196,609560,0.0-59.0-0.0,"""event"",""trial"",""time""
""fullscreenenter"",""1"",""1910""
","
","
","""event"",""trial"",""time""
""fullscreenenter"",""1"",""1910""
","
",,,,,,,,,,,,"[{""stimulus"":""run_exp/static/images/task_images/dig.jpg"",""time"":0.4000000059604645},{""stimulus"":""run_exp/static/images/task_images/land.jpg"",""time"":988.6000000089407},{""stimulus"":""run_exp/static/images/task_images/dig.jpg"",""time"":1965.4000000059605}]",[],10,,,,,,,,,,,,,,
harvest,197,610573,0.0-59.0-1.0,"""event"",""trial"",""time""
""fullscreenenter"",""1"",""1910""
","
","
","""event"",""trial"",""time""
""fullscreenenter"",""1"",""1910""
","
",,null,run_exp/static/images/task_images/gems/3.jpg,null,,,,,,,1,,,10,,,,,3,0.31466857,0.333333333,,,,,,,
decision,198,610676,0.0-59.0-2.0,"""event"",""trial"",""time""
""fullscreenenter"",""1"",""1910""
","
","
","""event"",""trial"",""time""
""fullscreenenter"",""1"",""1910""
","
",,101.3,run_exp/static/images/task_images/land.jpg,65,,,,,,,1,,,10,,,,,,,,285280,1,2,FALSE,,,
dig,199,613596,0.0-60.0-0.0,"""event"",""trial"",""time""
""fullscreenenter"",""1"",""1910""
","
","
","""event"",""trial"",""time""
""fullscreenenter"",""1"",""1910""
","
",,,,,,,,,,,,"[{""stimulus"":""run_exp/static/images/task_images/dig.jpg"",""time"":0.29999999701976776},{""stimulus"":""run_exp/static/images/task_images/land.jpg"",""time"":976},{""stimulus"":""run_exp/static/images/task_images/dig.jpg"",""time"":1934.2999999970198}]",[],10,,,,,,,,,,,,,,
harvest,200,614607,0.0-60.0-1.0,"""event"",""trial"",""time""
""fullscreenenter"",""1"",""1910""
","
","
","""event"",""trial"",""time""
""fullscreenenter"",""1"",""1910""
","
",,null,run_exp/static/images/task_images/gems/1.jpg,null,,,,,,,0,,,10,,,,,1,0.190766737,0,,,,,,,
decision,201,615108,0.0-60.0-2.0,"""event"",""trial"",""time""
""fullscreenenter"",""1"",""1910""
","
","
","""event"",""trial"",""time""
""fullscreenenter"",""1"",""1910""
","
",,499.6,run_exp/static/images/task_images/land.jpg,76,,,,,,,0,,,10,,,,,,,,289712,1,3,TRUE,,,
travel,202,624617,0.0-61.0-0.0,"""event"",""trial"",""time""
""fullscreenenter"",""1"",""1910""
","
","
","""event"",""trial"",""time""
""fullscreenenter"",""1"",""1910""
","
",,,,,,,,,,,,"[{""stimulus"":""run_exp/static/images/task_images/rocket-01.jpg"",""time"":0.29999999701976776},{""stimulus"":""run_exp/static/images/task_images/rocket-02.jpg"",""time"":1071.4000000059605},{""stimulus"":""run_exp/static/images/task_images/rocket-03.jpg"",""time"":2125.7000000029802},{""stimulus"":""run_exp/static/images/task_images/rocket-04.jpg"",""time"":3168.2999999970198},{""stimulus"":""run_exp/static/images/task_images/rocket-05.jpg"",""time"":4225.5},{""stimulus"":""run_exp/static/images/task_images/rocket-06.jpg"",""time"":5281.29999999702},{""stimulus"":""run_exp/static/images/task_images/rocket-07.jpg"",""time"":6336.4000000059605},{""stimulus"":""run_exp/static/images/task_images/rocket-08.jpg"",""time"":7392.29999999702},{""stimulus"":""run_exp/static/images/task_images/rocket-09.jpg"",""time"":8449.10000000894}]",[],10,,,,,,,,,,,,,,
alien_welcome,203,629622,0.0-61.0-1.0,"""event"",""trial"",""time""
""fullscreenenter"",""1"",""1910""
","
","
","""event"",""trial"",""time""
""fullscreenenter"",""1"",""1910""
","
",,null,run_exp/static/images/task_images/aliens/old_aliens/planet/alien_planet-72.jpg,null,,,,,,,,,,,,,72,"44,29,12,51,25,61,53,69,75,37,72,74,33,54,1,41,36,46,70,23,3,31,52,60,57,17,59,77,26,68,48,43,20,5,22,6,42,63,18,21",,,,,,,,,,
land,204,630133,0.0-61.0-2.0,"""event"",""trial"",""time""
""fullscreenenter"",""1"",""1910""
","
","
","""event"",""trial"",""time""
""fullscreenenter"",""1"",""1910""
","
",,null,run_exp/static/images/task_images/land.jpg,null,,,,,,,96,,,11,,,,,,,,,,,,,,
dig,205,632144,0.0-61.0-3.0,"""event"",""trial"",""time""
""fullscreenenter"",""1"",""1910""
","
","
","""event"",""trial"",""time""
""fullscreenenter"",""1"",""1910""
","
",,,,,,,,,,,,"[{""stimulus"":""run_exp/static/images/task_images/dig.jpg"",""time"":0.29999999701976776},{""stimulus"":""run_exp/static/images/task_images/land.jpg"",""time"":681.1000000089407},{""stimulus"":""run_exp/static/images/task_images/dig.jpg"",""time"":1344.5}]",[],11,,,,,,,,,,,,,,
harvest,206,633153,0.0-61.0-4.0,"""event"",""trial"",""time""
""fullscreenenter"",""1"",""1910""
","
","
","""event"",""trial"",""time""
""fullscreenenter"",""1"",""1910""
","
",,null,run_exp/static/images/task_images/gems/96.jpg,null,,,,,,,13,,,11,,,,,96,0.131640414,0.135416667,,,,,,,
decision,207,634036,0.0-61.0-5.0,"""event"",""trial"",""time""
""fullscreenenter"",""1"",""1910""
","
","
","""event"",""trial"",""time""
""fullscreenenter"",""1"",""1910""
","
",,880.1,run_exp/static/images/task_images/land.jpg,65,,,,,,,13,,,11,,,,,,,,308640,1,0,TRUE,,,
end_of_block_continue,208,638467,0.0-62.0-0.0,"""event"",""trial"",""time""
""fullscreenenter"",""1"",""1910""
","
","
","""event"",""trial"",""time""
""fullscreenenter"",""1"",""1910""
","
",,4423.6,run_exp/static/audio/clip_32_block_end.m4a,,,,,,,0,,,,,,,,,,,,,,,,,,
alien_welcome,209,643482,0.0-63.0-0.0,"""event"",""trial"",""time""
""fullscreenenter"",""1"",""1910""
","
","
","""event"",""trial"",""time""
""fullscreenenter"",""1"",""1910""
","
",,null,run_exp/static/images/task_images/aliens/old_aliens/planet/alien_planet-74.jpg,null,,,,,,,,,,,,,74,"44,29,12,51,25,61,53,69,75,37,72,74,33,54,1,41,36,46,70,23,3,31,52,60,57,17,59,77,26,68,48,43,20,5,22,6,42,63,18,21",,,,,,,,,,
land,210,643991,0.0-63.0-1.0,"""event"",""trial"",""time""
""fullscreenenter"",""1"",""1910""
","
","
","""event"",""trial"",""time""
""fullscreenenter"",""1"",""1910""
","
",,null,run_exp/static/images/task_images/land.jpg,null,,,,,,,103,,,12,,,,,,,,,,,,,,
dig,211,645999,0.0-63.0-2.0,"""event"",""trial"",""time""
""fullscreenenter"",""1"",""1910""
","
","
","""event"",""trial"",""time""
""fullscreenenter"",""1"",""1910""
","
",,,,,,,,,,,,"[{""stimulus"":""run_exp/static/images/task_images/dig.jpg"",""time"":0.5},{""stimulus"":""run_exp/static/images/task_images/land.jpg"",""time"":682.8999999910593},{""stimulus"":""run_exp/static/images/task_images/dig.jpg"",""time"":1336.3999999910593}]",[],12,,,,,,,,,,,,,,
harvest,212,647007,0.0-63.0-3.0,"""event"",""trial"",""time""
""fullscreenenter"",""1"",""1910""
","
","
","""event"",""trial"",""time""
""fullscreenenter"",""1"",""1910""
","
",,null,run_exp/static/images/task_images/gems/103.jpg,null,,,,,,,18,,,12,,,,,103,0.179464712,0.174757282,,,,,,,
decision,213,647420,0.0-63.0-4.0,"""event"",""trial"",""time""
""fullscreenenter"",""1"",""1910""
","
","
","""event"",""trial"",""time""
""fullscreenenter"",""1"",""1910""
","
",,410.7,run_exp/static/images/task_images/land.jpg,65,,,,,,,18,,,12,,,,,,,,8952,2,0,FALSE,,,
dig,214,650033,0.0-64.0-0.0,"""event"",""trial"",""time""
""fullscreenenter"",""1"",""1910""
","
","
","""event"",""trial"",""time""
""fullscreenenter"",""1"",""1910""
","
",,,,,,,,,,,,"[{""stimulus"":""run_exp/static/images/task_images/dig.jpg"",""time"":0.4000000059604645},{""stimulus"":""run_exp/static/images/task_images/land.jpg"",""time"":872.5},{""stimulus"":""run_exp/static/images/task_images/dig.jpg"",""time"":1737.6000000089407}]",[],12,,,,,,,,,,,,,,
harvest,215,651045,0.0-64.0-1.0,"""event"",""trial"",""time""
""fullscreenenter"",""1"",""1910""
","
","
","""event"",""trial"",""time""
""fullscreenenter"",""1"",""1910""
","
",,null,run_exp/static/images/task_images/gems/18.jpg,null,,,,,,,6,,,12,,,,,18,0.33447042,0.333333333,,,,,,,
decision,216,651870,0.0-64.0-2.0,"""event"",""trial"",""time""
""fullscreenenter"",""1"",""1910""
","
","
","""event"",""trial"",""time""
""fullscreenenter"",""1"",""1910""
","
",,823.5,run_exp/static/images/task_images/land.jpg,65,,,,,,,6,,,12,,,,,,,,13402,2,1,FALSE,,,
dig,217,654069,0.0-65.0-0.0,"""event"",""trial"",""time""
""fullscreenenter"",""1"",""1910""
","
","
","""event"",""trial"",""time""
""fullscreenenter"",""1"",""1910""
","
",,,,,,,,,,,,"[{""stimulus"":""run_exp/static/images/task_images/dig.jpg"",""time"":0.4000000059604645},{""stimulus"":""run_exp/static/images/task_images/land.jpg"",""time"":733.2000000029802},{""stimulus"":""run_exp/static/images/task_images/dig.jpg"",""time"":1461.2000000029802}]",[],12,,,,,,,,,,,,,,
harvest,218,655085,0.0-65.0-1.0,"""event"",""trial"",""time""
""fullscreenenter"",""1"",""1910""
","
","
","""event"",""trial"",""time""
""fullscreenenter"",""1"",""1910""
","
",,null,run_exp/static/images/task_images/gems/6.jpg,null,,,,,,,1,,,12,,,,,6,0.176319375,0.166666667,,,,,,,
decision,219,655540,0.0-65.0-2.0,"""event"",""trial"",""time""
""fullscreenenter"",""1"",""1910""
","
","
","""event"",""trial"",""time""
""fullscreenenter"",""1"",""1910""
","
",,453.1,run_exp/static/images/task_images/land.jpg,76,,,,,,,1,,,12,,,,,,,,17072,2,2,TRUE,,,
travel,220,665104,0.0-66.0-0.0,"""event"",""trial"",""time""
""fullscreenenter"",""1"",""1910""
","
","
","""event"",""trial"",""time""
""fullscreenenter"",""1"",""1910""
","
",,,,,,,,,,,,"[{""stimulus"":""run_exp/static/images/task_images/rocket-01.jpg"",""time"":0.4000000059604645},{""stimulus"":""run_exp/static/images/task_images/rocket-02.jpg"",""time"":1073},{""stimulus"":""run_exp/static/images/task_images/rocket-03.jpg"",""time"":2128.300000011921},{""stimulus"":""run_exp/static/images/task_images/rocket-04.jpg"",""time"":3184.4000000059605},{""stimulus"":""run_exp/static/images/task_images/rocket-05.jpg"",""time"":4249.300000011921},{""stimulus"":""run_exp/static/images/task_images/rocket-06.jpg"",""time"":5305.100000008941},{""stimulus"":""run_exp/static/images/task_images/rocket-07.jpg"",""time"":6376.70000000298},{""stimulus"":""run_exp/static/images/task_images/rocket-08.jpg"",""time"":7434.300000011921},{""stimulus"":""run_exp/static/images/task_images/rocket-09.jpg"",""time"":8488.20000000298}]",[],12,,,,,,,,,,,,,,
alien_welcome,221,670122,0.0-66.0-1.0,"""event"",""trial"",""time""
""fullscreenenter"",""1"",""1910""
","
","
","""event"",""trial"",""time""
""fullscreenenter"",""1"",""1910""
","
",,null,run_exp/static/images/task_images/aliens/old_aliens/planet/alien_planet-33.jpg,null,,,,,,,,,,,,,33,"44,29,12,51,25,61,53,69,75,37,72,74,33,54,1,41,36,46,70,23,3,31,52,60,57,17,59,77,26,68,48,43,20,5,22,6,42,63,18,21",,,,,,,,,,
land,222,670633,0.0-66.0-2.0,"""event"",""trial"",""time""
""fullscreenenter"",""1"",""1910""
","
","
","""event"",""trial"",""time""
""fullscreenenter"",""1"",""1910""
","
",,null,run_exp/static/images/task_images/land.jpg,null,,,,,,,91,,,13,,,,,,,,,,,,,,
dig,223,672649,0.0-66.0-3.0,"""event"",""trial"",""time""
""fullscreenenter"",""1"",""1910""
","
","
","""event"",""trial"",""time""
""fullscreenenter"",""1"",""1910""
","
",,,,,,,,,,,,"[{""stimulus"":""run_exp/static/images/task_images/dig.jpg"",""time"":0.20000000298023224},{""stimulus"":""run_exp/static/images/task_images/land.jpg"",""time"":668.5},{""stimulus"":""run_exp/static/images/task_images/dig.jpg"",""time"":1335.5}]",[],13,,,,,,,,,,,,,,
harvest,224,673658,0.0-66.0-4.0,"""event"",""trial"",""time""
""fullscreenenter"",""1"",""1910""
","
","
","""event"",""trial"",""time""
""fullscreenenter"",""1"",""1910""
","
",,null,run_exp/static/images/task_images/gems/91.jpg,null,,,,,,,20,,,13,,,,,91,0.222057688,0.21978022,,,,,,,
decision,225,674092,0.0-66.0-5.0,"""event"",""trial"",""time""
""fullscreenenter"",""1"",""1910""
","
","
","""event"",""trial"",""time""
""fullscreenenter"",""1"",""1910""
","
",,432.3,run_exp/static/images/task_images/land.jpg,65,,,,,,,20,,,13,,,,,,,,35624,2,0,FALSE,,,
dig,226,676670,0.0-67.0-0.0,"""event"",""trial"",""time""
""fullscreenenter"",""1"",""1910""
","
","
","""event"",""trial"",""time""
""fullscreenenter"",""1"",""1910""
","
",,,,,,,,,,,,"[{""stimulus"":""run_exp/static/images/task_images/dig.jpg"",""time"":0.4000000059604645},{""stimulus"":""run_exp/static/images/task_images/land.jpg"",""time"":861.7000000029802},{""stimulus"":""run_exp/static/images/task_images/dig.jpg"",""time"":1717.4000000059605}]",[],13,,,,,,,,,,,,,,
harvest,227,677680,0.0-67.0-1.0,"""event"",""trial"",""time""
""fullscreenenter"",""1"",""1910""
","
","
","""event"",""trial"",""time""
""fullscreenenter"",""1"",""1910""
","
",,null,run_exp/static/images/task_images/gems/20.jpg,null,,,,,,,5,,,13,,,,,20,0.267275358,0.25,,,,,,,
decision,228,678044,0.0-67.0-2.0,"""event"",""trial"",""time""
""fullscreenenter"",""1"",""1910""
","
","
","""event"",""trial"",""time""
""fullscreenenter"",""1"",""1910""
","
",,361.7,run_exp/static/images/task_images/land.jpg,76,,,,,,,5,,,13,,,,,,,,39576,2,1,TRUE,,,
travel,229,687694,0.0-68.0-0.0,"""event"",""trial"",""time""
""fullscreenenter"",""1"",""1910""
","
","
","""event"",""trial"",""time""
""fullscreenenter"",""1"",""1910""
","
",,,,,,,,,,,,"[{""stimulus"":""run_exp/static/images/task_images/rocket-01.jpg"",""time"":0.29999999701976776},{""stimulus"":""run_exp/static/images/task_images/rocket-02.jpg"",""time"":1071.5},{""stimulus"":""run_exp/static/images/task_images/rocket-03.jpg"",""time"":2155.5},{""stimulus"":""run_exp/static/images/task_images/rocket-04.jpg"",""time"":3222.2000000029802},{""stimulus"":""run_exp/static/images/task_images/rocket-05.jpg"",""time"":4292.70000000298},{""stimulus"":""run_exp/static/images/task_images/rocket-06.jpg"",""time"":5366.70000000298},{""stimulus"":""run_exp/static/images/task_images/rocket-07.jpg"",""time"":6436.5},{""stimulus"":""run_exp/static/images/task_images/rocket-08.jpg"",""time"":7505},{""stimulus"":""run_exp/static/images/task_images/rocket-09.jpg"",""time"":8576}]",[],13,,,,,,,,,,,,,,
alien_welcome,230,692700,0.0-68.0-1.0,"""event"",""trial"",""time""
""fullscreenenter"",""1"",""1910""
","
","
","""event"",""trial"",""time""
""fullscreenenter"",""1"",""1910""
","
",,null,run_exp/static/images/task_images/aliens/old_aliens/planet/alien_planet-54.jpg,null,,,,,,,,,,,,,54,"44,29,12,51,25,61,53,69,75,37,72,74,33,54,1,41,36,46,70,23,3,31,52,60,57,17,59,77,26,68,48,43,20,5,22,6,42,63,18,21",,,,,,,,,,
land,231,693211,0.0-68.0-2.0,"""event"",""trial"",""time""
""fullscreenenter"",""1"",""1910""
","
","
","""event"",""trial"",""time""
""fullscreenenter"",""1"",""1910""
","
",,null,run_exp/static/images/task_images/land.jpg,null,,,,,,,98,,,14,,,,,,,,,,,,,,
dig,232,695217,0.0-68.0-3.0,"""event"",""trial"",""time""
""fullscreenenter"",""1"",""1910""
","
","
","""event"",""trial"",""time""
""fullscreenenter"",""1"",""1910""
","
",,,,,,,,,,,,"[{""stimulus"":""run_exp/static/images/task_images/dig.jpg"",""time"":0.29999999701976776},{""stimulus"":""run_exp/static/images/task_images/land.jpg"",""time"":669.2999999970198},{""stimulus"":""run_exp/static/images/task_images/dig.jpg"",""time"":1337.7999999970198}]",[],14,,,,,,,,,,,,,,
harvest,233,696224,0.0-68.0-4.0,"""event"",""trial"",""time""
""fullscreenenter"",""1"",""1910""
","
","
","""event"",""trial"",""time""
""fullscreenenter"",""1"",""1910""
","
",,null,run_exp/static/images/task_images/gems/98.jpg,null,,,,,,,19,,,14,,,,,98,0.192649005,0.193877551,,,,,,,
decision,234,696636,0.0-68.0-5.0,"""event"",""trial"",""time""
""fullscreenenter"",""1"",""1910""
","
","
","""event"",""trial"",""time""
""fullscreenenter"",""1"",""1910""
","
",,409.9,run_exp/static/images/task_images/land.jpg,65,,,,,,,19,,,14,,,,,,,,58168,2,0,FALSE,,,
dig,235,699239,0.0-69.0-0.0,"""event"",""trial"",""time""
""fullscreenenter"",""1"",""1910""
","
","
","""event"",""trial"",""time""
""fullscreenenter"",""1"",""1910""
","
",,,,,,,,,,,,"[{""stimulus"":""run_exp/static/images/task_images/dig.jpg"",""time"":0.5999999940395355},{""stimulus"":""run_exp/static/images/task_images/land.jpg"",""time"":867},{""stimulus"":""run_exp/static/images/task_images/dig.jpg"",""time"":1732.0999999940395}]",[],14,,,,,,,,,,,,,,
harvest,236,700250,0.0-69.0-1.0,"""event"",""trial"",""time""
""fullscreenenter"",""1"",""1910""
","
","
","""event"",""trial"",""time""
""fullscreenenter"",""1"",""1910""
","
",,null,run_exp/static/images/task_images/gems/19.jpg,null,,,,,,,3,,,14,,,,,19,0.150726617,0.157894737,,,,,,,
decision,237,700828,0.0-69.0-2.0,"""event"",""trial"",""time""
""fullscreenenter"",""1"",""1910""
","
","
","""event"",""trial"",""time""
""fullscreenenter"",""1"",""1910""
","
",,576.3,run_exp/static/images/task_images/land.jpg,76,,,,,,,3,,,14,,,,,,,,62360,2,1,TRUE,,,
travel,238,710268,0.0-70.0-0.0,"""event"",""trial"",""time""
""fullscreenenter"",""1"",""1910""
","
","
","""event"",""trial"",""time""
""fullscreenenter"",""1"",""1910""
","
",,,,,,,,,,,,"[{""stimulus"":""run_exp/static/images/task_images/rocket-01.jpg"",""time"":0.29999999701976776},{""stimulus"":""run_exp/static/images/task_images/rocket-02.jpg"",""time"":1050.8999999910593},{""stimulus"":""run_exp/static/images/task_images/rocket-03.jpg"",""time"":2105.2999999970198},{""stimulus"":""run_exp/static/images/task_images/rocket-04.jpg"",""time"":3143.699999988079},{""stimulus"":""run_exp/static/images/task_images/rocket-05.jpg"",""time"":4196.79999999702},{""stimulus"":""run_exp/static/images/task_images/rocket-06.jpg"",""time"":5249},{""stimulus"":""run_exp/static/images/task_images/rocket-07.jpg"",""time"":6290.399999991059},{""stimulus"":""run_exp/static/images/task_images/rocket-08.jpg"",""time"":7344},{""stimulus"":""run_exp/static/images/task_images/rocket-09.jpg"",""time"":8384}]",[],14,,,,,,,,,,,,,,
alien_welcome,239,715271,0.0-70.0-1.0,"""event"",""trial"",""time""
""fullscreenenter"",""1"",""1910""
","
","
","""event"",""trial"",""time""
""fullscreenenter"",""1"",""1910""
","
",,null,run_exp/static/images/task_images/aliens/old_aliens/planet/alien_planet-1.jpg,null,,,,,,,,,,,,,1,"44,29,12,51,25,61,53,69,75,37,72,74,33,54,1,41,36,46,70,23,3,31,52,60,57,17,59,77,26,68,48,43,20,5,22,6,42,63,18,21",,,,,,,,,,
land,240,715785,0.0-70.0-2.0,"""event"",""trial"",""time""
""fullscreenenter"",""1"",""1910""
","
","
","""event"",""trial"",""time""
""fullscreenenter"",""1"",""1910""
","
",,null,run_exp/static/images/task_images/land.jpg,null,,,,,,,102,,,15,,,,,,,,,,,,,,
dig,241,717804,0.0-70.0-3.0,"""event"",""trial"",""time""
""fullscreenenter"",""1"",""1910""
","
","
","""event"",""trial"",""time""
""fullscreenenter"",""1"",""1910""
","
",,,,,,,,,,,,"[{""stimulus"":""run_exp/static/images/task_images/dig.jpg"",""time"":0.5},{""stimulus"":""run_exp/static/images/task_images/land.jpg"",""time"":684.2999999970198},{""stimulus"":""run_exp/static/images/task_images/dig.jpg"",""time"":1349.1000000089407}]",[],15,,,,,,,,,,,,,,
