trial_type,trial_index,time_elapsed,internal_node_id,success,rt,stimulus,key_press,prompt,subject_id,age,gender,button_pressed,next_reward,animation_sequence,responses,planet,curr_prac_trial,n_prac_rounds,alien,aliens,reward_received,decay_rate_actual,decay_rate_exp,time_in_block,block_num,prt,last_trial_on_planet,button_html,bonus,num_failures
pavlovia,0,5,0.0-0.0,,,,,,,,,,,,,,,,,,,,,,,,,,,
fullscreen,1,4800,0.0-1.0,TRUE,,,,,,,,,,,,,,,,,,,,,,,,,,
instruc_welcome,2,14536,0.0-2.0,,null,run_exp/static/audio/clip_1_welcome.m4a,null,"<p>Howdy! In this experiment, you’ll be an explorer traveling through space to collect space treasure.</p><p>Your mission is to collect as much treasure as possible.</p><br><br><p><img src='run_exp/static/images/task_images/opening_img-01.jpg' height='300' width='auto'></p>",trEiwhVO8K99ZMh_a5Ke5UddwllDBGZ_MLRP_ex7dHIhv7dbRuN8,9.38,female,,,,,,,,,,,,,,,,,,,
audio-keyboard-response,3,31135,0.0-3.0,,null,run_exp/static/audio/clip_2_move.m4a,null,,,,,,,,,,,,,,,,,,,,,,,
welcome_dec,4,38255,0.0-4.0,,7117.455,"<p>Howdy! In this experiment, you’ll be an explorer traveling through space to collect space treasure.</p><p>Your mission is to collect as much treasure as possible.</p><br><br><p><img src='run_exp/static/images/task_images/opening_img-01.jpg' height='300' width='auto'></p>",,,,,,0,,,,,,,,,,,,,,,,,,
html-keyboard-response,5,40319,0.0-5.0,,2061.79,"<p>Howdy! In this experiment, you’ll be an explorer traveling through space to collect space treasure.</p><p>Your mission is to collect as much treasure as possible.</p><br><br><p><img src='run_exp/static/images/task_images/opening_img-01.jpg' height='300' width='auto'></p><button class=""jspsych-html-btn-chosen""><img src=""run_exp/static/images/task_images/planet-01.jpg"" height=""50""></button><button class=""jspsych-html-btn-unchosen""><img src=""run_exp/static/images/task_images/planet-02.jpg"" height=""50""></button><p><b>[press the space bar to lock in your answer]<b><br></p>",32,,,,,,,,,,,,,,,,,,,,,,,
instruc_welcome,6,50075,0.0-6.0-0.0,,null,run_exp/static/audio/clip_1_welcome.m4a,null,"<p>Howdy! In this experiment, you’ll be an explorer traveling through space to collect space treasure.</p><p>Your mission is to collect as much treasure as possible.</p><br><br><p><img src='run_exp/static/images/task_images/opening_img-01.jpg' height='300' width='auto'></p>",trEiwhVO8K99ZMh_a5Ke5UddwllDBGZ_MLRP_ex7dHIhv7dbRuN8,,,,,,,,,,,,,,,,,,,,,
audio-keyboard-response,7,66656,0.0-6.0-1.0,,null,run_exp/static/audio/clip_2_move.m4a,null,,,,,,,,,,,,,,,,,,,,,,,
welcome_dec,8,69217,0.0-6.0-2.0,,2558.945,"<p>Howdy! In this experiment, you’ll be an explorer traveling through space to collect space treasure.</p><p>Your mission is to collect as much treasure as possible.</p><br><br><p><img src='run_exp/static/images/task_images/opening_img-01.jpg' height='300' width='auto'></p>",,,,,,1,,,,,,,,,,,,,,,,,,
html-keyboard-response,9,70254,0.0-6.0-3.0,,1036.755,"<p>Howdy! In this experiment, you’ll be an explorer traveling through space to collect space treasure.</p><p>Your mission is to collect as much treasure as possible.</p><br><br><p><img src='run_exp/static/images/task_images/opening_img-01.jpg' height='300' width='auto'></p><button class=""jspsych-html-btn-unchosen""><img src=""run_exp/static/images/task_images/planet-01.jpg"" height=""50""></button><button class=""jspsych-html-btn-chosen""><img src=""run_exp/static/images/task_images/planet-02.jpg"" height=""50""></button><p><b>[press the space bar to lock in your answer]<b><br></p>",32,,,,,,,,,,,,,,,,,,,,,,,
instruc_goal,10,80315,0.0-7.0-0.0,,null,run_exp/static/audio/clip_3_goal.m4a,null,"<p> As a space explorer, you’ll visit different planets to dig for space treasure, these pink gems.</p> <p> The more treasure you dig up, the more bonus money you’ll win! </p><br><br><p><img src='run_exp/static/images/task_images/pink_gem.jpg' height='300' width='auto'></p>",,,,,,,,,,,,,,,,,,,,,,
instruc_goal,11,81970,0.0-7.0-1.0,,1652.85,"<p> As a space explorer, you’ll visit different planets to dig for space treasure, these pink gems.</p> <p> The more treasure you dig up, the more bonus money you’ll win! </p><br><br><p><img src='run_exp/static/images/task_images/pink_gem.jpg' height='300' width='auto'></p>",,,,,,1,,,,,,,,,,,,,,,,,,
html-keyboard-response,12,82934,0.0-7.0-2.0,,962.94,"<p> As a space explorer, you’ll visit different planets to dig for space treasure, these pink gems.</p> <p> The more treasure you dig up, the more bonus money you’ll win! </p><br><br><p><img src='run_exp/static/images/task_images/pink_gem.jpg' height='300' width='auto'></p><button class=""jspsych-html-btn-unchosen""><img src=""run_exp/static/images/task_images/planet-01.jpg"" height=""50""></button><button class=""jspsych-html-btn-chosen""><img src=""run_exp/static/images/task_images/planet-02.jpg"" height=""50""></button><p><b>[press the space bar to lock in your answer]<b><br></p>",32,,,,,,,,,,,,,,,,,,,,,,,
instruc_dig,13,98935,0.0-8.0-0.0,,null,run_exp/static/audio/clip_4_dig.m4a,null,,,,,,100,,,,,,,,,,,,,,,,,
instruc_dig_try,14,99630,0.0-8.0-1.0,,693.5799997,"<p> When you’ve arrived at a new planet, you will dig once. </p> <p>Then, you get to decide if you want to stay on the planet and dig again or travel to a new planet and dig there.</p> <p> To stay and dig, press the letter <strong>‘A’</strong> on your keyboard. Try pressing it now! </p><p><img src='run_exp/static/images/task_images/land.jpg'  height='700' width='auto'></p>",65,"<p> When you’ve arrived at a new planet, you will dig once. </p> <p>Then, you get to decide if you want to stay on the planet and dig again or travel to a new planet and dig there.</p> <p> To stay and dig, press the letter <strong>‘A’</strong> on your keyboard. Try pressing it now! </p><p><img src='run_exp/static/images/task_images/land.jpg'  height='700' width='auto'></p>",,,,,100,,,,,,,,,,,,,,,,,
dig_prac,15,101638,0.0-8.0-2.0,,,,,,,,,,,"[{""stimulus"":""run_exp/static/images/task_images/dig.jpg"",""time"":0.2200002782046795},{""stimulus"":""run_exp/static/images/task_images/land.jpg"",""time"":681.4650003798306},{""stimulus"":""run_exp/static/images/task_images/dig.jpg"",""time"":1334.8350003361702}]",[],,,,,,,,,,,,,,,
instruc_travel,16,137875,0.0-8.0-3.0,,null,run_exp/static/audio/clip_5_travel.m4a,null,"<p>Every time you dig up gems, there are less gems on the planet, so the more you dig on a planet the fewer gems you’ll get with each dig.</p><p>When gems are running low, you may want to travel to a new planet. </p> <p>  Planets are very far apart in this galaxy, so it will take some time to travel between them. </p> <br><p>There are lots and lots of planets for you to visit, so you won’t be able to return to any planets you’ve seen before. </p><br><p>To leave this planet and travel to a new one, press the letter <strong>‘L’</strong> on your keyboard. Try pressing it now! </p><p><img src='run_exp/static/images/task_images/rocket-01.jpg'  height='600' width='auto'></p>",,,,,,,,,,,,,,,,,,,,,,
instruc_travel_try,17,138702,0.0-8.0-4.0,,825.125,"<p>Every time you dig up gems, there are less gems on the planet, so the more you dig on a planet the fewer gems you’ll get with each dig.</p><p>When gems are running low, you may want to travel to a new planet. </p> <p>  Planets are very far apart in this galaxy, so it will take some time to travel between them. </p> <br><p>There are lots and lots of planets for you to visit, so you won’t be able to return to any planets you’ve seen before. </p><br><p>To leave this planet and travel to a new one, press the letter <strong>‘L’</strong> on your keyboard. Try pressing it now! </p><p><img src='run_exp/static/images/task_images/rocket-01.jpg'  height='600' width='auto'></p>",76,"<p>Every time you dig up gems, there are less gems on the planet, so the more you dig on a planet the fewer gems you’ll get with each dig.</p><p>When gems are running low, you may want to travel to a new planet. </p> <p>  Planets are very far apart in this galaxy, so it will take some time to travel between them. </p> <br><p>There are lots and lots of planets for you to visit, so you won’t be able to return to any planets you’ve seen before. </p><br><p>To leave this planet and travel to a new one, press the letter <strong>‘L’</strong> on your keyboard. Try pressing it now! </p><p><img src='run_exp/static/images/task_images/rocket-01.jpg'  height='600' width='auto'></p>",,,,,,,,,,,,,,,,,,,,,,
travel_prac,18,148703,0.0-8.0-5.0,,,,,,,,,,,"[{""stimulus"":""run_exp/static/images/task_images/rocket-01.jpg"",""time"":0.1900000497698784},{""stimulus"":""run_exp/static/images/task_images/rocket-02.jpg"",""time"":1123.505000025034},{""stimulus"":""run_exp/static/images/task_images/rocket-03.jpg"",""time"":2237.4899997375906},{""stimulus"":""run_exp/static/images/task_images/rocket-04.jpg"",""time"":3334.2499998398125},{""stimulus"":""run_exp/static/images/task_images/rocket-05.jpg"",""time"":4452.879999764264},{""stimulus"":""run_exp/static/images/task_images/rocket-06.jpg"",""time"":5560.715000145137},{""stimulus"":""run_exp/static/images/task_images/rocket-07.jpg"",""time"":6681.489999871701},{""stimulus"":""run_exp/static/images/task_images/rocket-08.jpg"",""time"":7791.4399998262525},{""stimulus"":""run_exp/static/images/task_images/rocket-09.jpg"",""time"":8900.824999902397}]",[],0,,,,,,,,,,,,,,
instruc_alien_greet,19,175875,0.0-8.0-6.0,,null,run_exp/static/audio/clip_6_alien.m4a,null,"<p>When you arrive at a new planet, the alien who owns the treasure mine on that planet will greet you!</p><p>The better an alien takes care of their mine the easier it is to dig for gems. Some aliens take better care of their mine than others. So, you won’t get exactly the same amount of gems on each planet.</p><p>What the alien looks like does not tell you anything about how many gems there are on the planet.</p><br><p><img src=""run_exp/static/images/task_images/aliens/instructions_aliens/planet/alien_planet-1.jpg""  height=""600"" width=""auto""></p>",,,,,,,,,,,,,,,,,,,,,,
instruc_alien_greet,20,178060,0.0-8.0-7.0,,2182.755,"<p>When you arrive at a new planet, the alien who owns the treasure mine on that planet will greet you!</p><p>The better an alien takes care of their mine the easier it is to dig for gems. Some aliens take better care of their mine than others. So, you won’t get exactly the same amount of gems on each planet.</p><p>What the alien looks like does not tell you anything about how many gems there are on the planet.</p><br><p><img src=""run_exp/static/images/task_images/aliens/instructions_aliens/planet/alien_planet-1.jpg""  height=""600"" width=""auto""></p>",,,,,,1,,,,,,,,,,,,,,,,,,
html-keyboard-response,21,178998,0.0-8.0-8.0,,936.58,"<p>When you arrive at a new planet, the alien who owns the treasure mine on that planet will greet you!</p><p>The better an alien takes care of their mine the easier it is to dig for gems. Some aliens take better care of their mine than others. So, you won’t get exactly the same amount of gems on each planet.</p><p>What the alien looks like does not tell you anything about how many gems there are on the planet.</p><br><p><img src=""run_exp/static/images/task_images/aliens/instructions_aliens/planet/alien_planet-1.jpg""  height=""600"" width=""auto""></p><button class=""jspsych-html-btn-unchosen""><img src=""run_exp/static/images/task_images/planet-01.jpg"" height=""50""></button><button class=""jspsych-html-btn-chosen""><img src=""run_exp/static/images/task_images/planet-02.jpg"" height=""50""></button><p><b>[press the space bar to lock in your answer]<b><br></p>",32,,,,,,,,,,,,,,,,,,,,,,,
time_out,22,190075,0.0-9.0-0.0,,null,run_exp/static/audio/clip_7_timeout.m4a,null,"<p>If you don't make your choice fast enough, you’ll have to wait a few seconds before you can make another one.</p><p>You can’t dig for more gems or travel to new planets. You just have to sit and wait.</p><br><p><img src='run_exp/static/images/task_images/time_out.jpg'  height='600' width='auto'></p>",,,,,,,,,,,,,,,,,,,,,,
time_out,23,192182,0.0-9.0-1.0,,2105.79,"<p>If you don't make your choice fast enough, you’ll have to wait a few seconds before you can make another one.</p><p>You can’t dig for more gems or travel to new planets. You just have to sit and wait.</p><br><p><img src='run_exp/static/images/task_images/time_out.jpg'  height='600' width='auto'></p>",,,,,,1,,,,,,,,,,,,,,,,,,
html-keyboard-response,24,195630,0.0-9.0-2.0,,3446.625,"<p>If you don't make your choice fast enough, you’ll have to wait a few seconds before you can make another one.</p><p>You can’t dig for more gems or travel to new planets. You just have to sit and wait.</p><br><p><img src='run_exp/static/images/task_images/time_out.jpg'  height='600' width='auto'></p><button class=""jspsych-html-btn-unchosen""><img src=""run_exp/static/images/task_images/planet-01.jpg"" height=""50""></button><button class=""jspsych-html-btn-chosen""><img src=""run_exp/static/images/task_images/planet-02.jpg"" height=""50""></button><p><b>[press the space bar to lock in your answer]<b><br></p>",32,,,,,,,,,,,,,,,,,,,,,,,
instruc_break,25,211295,0.0-10.0-0.0,,null,run_exp/static/audio/clip_8_break.m4a,null,"<p> After digging and traveling for a while, you’ll be able to take a break at home base. </p><p>The game will last 20 minutes no matter what.</p><p>You will visit home base every 5 minutes, so, you will visit home base three times during the game.</p><br><p><img src='run_exp/static/images/task_images/home_base.jpg' height='600' width='auto'></p>",,,,,,,,,,,,,,,,,,,,,,
instruc_break,26,213612,0.0-10.0-1.0,,2315.815,"<p> After digging and traveling for a while, you’ll be able to take a break at home base. </p><p>The game will last 20 minutes no matter what.</p><p>You will visit home base every 5 minutes, so, you will visit home base three times during the game.</p><br><p><img src='run_exp/static/images/task_images/home_base.jpg' height='600' width='auto'></p>",,,,,,1,,,,,,,,,,,,,,,,,,
html-keyboard-response,27,215238,0.0-10.0-2.0,,1624.66,"<p> After digging and traveling for a while, you’ll be able to take a break at home base. </p><p>The game will last 20 minutes no matter what.</p><p>You will visit home base every 5 minutes, so, you will visit home base three times during the game.</p><br><p><img src='run_exp/static/images/task_images/home_base.jpg' height='600' width='auto'></p><button class=""jspsych-html-btn-unchosen""><img src=""run_exp/static/images/task_images/planet-01.jpg"" height=""50""></button><button class=""jspsych-html-btn-chosen""><img src=""run_exp/static/images/task_images/planet-02.jpg"" height=""50""></button><p><b>[press the space bar to lock in your answer]<b><br></p>",32,,,,,,,,,,,,,,,,,,,,,,,
instruc_prac_game,28,225355,0.0-11.0-0.0,,null,run_exp/static/audio/clip_9_practice.m4a,null,"<p> Are you ready to play a practice game? </p> <p>In this practice game, you'll be digging up barrels of gems. But, in the real game, you'll be digging up the gems themselves. </p>",,,,,,,,,,,,,,,,,,,,,,
html-button-response,29,228874,0.0-11.0-1.0,,3518.105,"<p> Are you ready to play a practice game? </p> <p>In this practice game, you'll be digging up barrels of gems. But, in the real game, you'll be digging up the gems themselves. </p>",,,,,,0,,,,,,,,,,,,,,,,,,
alien_welcome_prac,30,233883,0.0-12.0-0.0,,null,run_exp/static/images/task_images/aliens/practice_aliens/planet/alien_planet-5.jpg,null,,,,,,,,,,,,,,,,,,,,,,,
land_prac,31,234391,0.0-12.0-1.0,,null,run_exp/static/images/task_images/land.jpg,null,,,,,,100,,,0,,,,,,,,,,,,,,
dig_prac,32,236407,0.0-12.0-2.0,,,,,,,,,,,"[{""stimulus"":""run_exp/static/images/task_images/dig.jpg"",""time"":0.1550000160932541},{""stimulus"":""run_exp/static/images/task_images/land.jpg"",""time"":682.8850000165403},{""stimulus"":""run_exp/static/images/task_images/dig.jpg"",""time"":1336.5099998191}]",[],,,,,,,,,,,,,,,
harvest_prac,33,237413,0.0-12.0-3.0,,null,run_exp/static/images/task_images/barrel_text.jpg,null,,,,,,,,,,,,,,,,,,,,,,,
decision_prac,34,239766,0.0-12.0-4.0,,2352.755,run_exp/static/images/task_images/land.jpg,65,,,,,,,,,,1,,,,,,,,,,,,,
dig_prac,35,241777,0.0-13.0-0.0,,,,,,,,,,,"[{""stimulus"":""run_exp/static/images/task_images/dig.jpg"",""time"":0.1250002533197403},{""stimulus"":""run_exp/static/images/task_images/land.jpg"",""time"":678.0949998646975},{""stimulus"":""run_exp/static/images/task_images/dig.jpg"",""time"":1339.7300001233816}]",[],,,,,,,,,,,,,,,
harvest_prac,36,242793,0.0-13.0-1.0,,null,run_exp/static/images/task_images/barrel_text.jpg,null,,,,,,,,,,,,,,,,,,,,,,,
decision_prac,37,243382,0.0-13.0-2.0,,588.0999998,run_exp/static/images/task_images/land.jpg,65,,,,,,,,,,2,,,,,,,,,,,,,
dig_prac,38,245396,0.0-14.0-0.0,,,,,,,,,,,"[{""stimulus"":""run_exp/static/images/task_images/dig.jpg"",""time"":0.1150001771748066},{""stimulus"":""run_exp/static/images/task_images/land.jpg"",""time"":679.4850002042949},{""stimulus"":""run_exp/static/images/task_images/dig.jpg"",""time"":1347.4250002764165}]",[],,,,,,,,,,,,,,,
harvest_prac,39,246410,0.0-14.0-1.0,,null,run_exp/static/images/task_images/barrel_text.jpg,null,,,,,,,,,,,,,,,,,,,,,,,
decision_prac,40,247382,0.0-14.0-2.0,,970.9950001,run_exp/static/images/task_images/land.jpg,65,,,,,,,,,,3,,,,,,,,,,,,,
dig_prac,41,249391,0.0-15.0-0.0,,,,,,,,,,,"[{""stimulus"":""run_exp/static/images/task_images/dig.jpg"",""time"":0.1349998638033867},{""stimulus"":""run_exp/static/images/task_images/land.jpg"",""time"":682.9599998891354},{""stimulus"":""run_exp/static/images/task_images/dig.jpg"",""time"":1337.1600001119077}]",[],,,,,,,,,,,,,,,
harvest_prac,42,250403,0.0-15.0-1.0,,null,run_exp/static/images/task_images/barrel_text.jpg,null,,,,,,,,,,,,,,,,,,,,,,,
decision_prac,43,251223,0.0-15.0-2.0,,818.8299998,run_exp/static/images/task_images/land.jpg,65,,,,,,,,,,4,,,,,,,,,,,,,
dig_prac,44,253237,0.0-16.0-0.0,,,,,,,,,,,"[{""stimulus"":""run_exp/static/images/task_images/dig.jpg"",""time"":0.1449999399483204},{""stimulus"":""run_exp/static/images/task_images/land.jpg"",""time"":677.4999997578561},{""stimulus"":""run_exp/static/images/task_images/dig.jpg"",""time"":1342.5400000996888}]",[],,,,,,,,,,,,,,,
harvest_prac,45,254253,0.0-16.0-1.0,,null,run_exp/static/images/task_images/barrel_text.jpg,null,,,,,,,,,,,,,,,,,,,,,,,
decision_prac,46,254262,0.0-16.0-2.0,,7.974999957,run_exp/static/images/task_images/land.jpg,65,,,,,,,,,,,1,,,,,,,,,,,,
quiz_instruc,47,264064,0.0-17.0-0.0,,9800.39,run_exp/static/audio/clip_10_quiz.m4a,,,,,,0,,,,,,,,,,,,,,,,,,
instruc_repeat,48,306815,0.0-17.0-1.0,,null,"<p> Are you ready to play a practice game? </p> <p>In this practice game, you'll be digging up barrels of gems. But, in the real game, you'll be digging up the gems themselves. </p>",null,"<p>In this game, your goal is to collect as many gems as you can. That’s how you will win bonus money. </p> <p>The entire game will last 20 minutes no matter how many gems you collect or how many planets you visit. </p><p>To stay on a planet and dig again, press the letter A on your keyboard. To leave for a new planet, press the letter L.</p><p>The more you dig on a planet, the fewer gems you’ll get with each dig which is why you might consider leaving for a new planet. </p><p>When you arrive at a new planet, you’ll be greeted by an alien. What the alien looks like does not tell you anything about how much treasure is on the planet. </p>",,,,,,,,,,,,,,,,,,,,,,
instruc_repeat_continue,49,308750,0.0-17.0-2.0,,1934.225,"<p> Are you ready to play a practice game? </p> <p>In this practice game, you'll be digging up barrels of gems. But, in the real game, you'll be digging up the gems themselves. </p>",,,,,,0,,,,,,,,,,,,,,,,,,
quiz_q_1_ask,50,312566,0.0-17.0-3.0,,3815.21,run_exp/static/audio/clip_11_q1_ask.m4a,,,,,,2,,,,,,,,,,,,,,,,,,
quiz_q_1_fb_correct,51,316415,0.0-18.0-0.0,,null,run_exp/static/audio/clip_12_q1_corrrect.m4a,null,<p>That’s correct. You win extra money by collecting more gems.</p>,,,,,,,,,,,,,,,,,,,,,,
quiz_q_2_ask,52,319218,0.0-18.0-1.0,,2801.53,run_exp/static/audio/clip_14_q2_ask.m4a,,,,,,1,,,,,,,,,,,,,,,,,,
quiz_q_2_fb_correct,53,323215,0.0-19.0-0.0,,null,run_exp/static/audio/clip_15_q2_correct.m4a,null,<p>That’s correct. The experiment is 20 minutes no matter what.</p>,,,,,,,,,,,,,,,,,,,,,,
quiz_q_3_ask,54,326710,0.0-19.0-1.0,,3493.94,run_exp/static/audio/clip_17_q3_ask.m4a,,,,,,1,,,,,,,,,,,,,,,,,,
quiz_q_3_fb_correct,55,330695,0.0-20.0-0.0,,null,run_exp/static/audio/clip_18_q3_correct.m4a,null,<p> That’s correct. You press the letter L to travel to a new planet.</p>,,,,,,,,,,,,,,,,,,,,,,
quiz_q_4_ask,56,335446,0.0-20.0-1.0,,4749.65,run_exp/static/audio/clip_20_q4_ask.m4a,,,,,,0,,,,,,,,,,,,,,,,,,
quiz_q_4_fb_correct,57,340775,0.0-21.0-0.0,,null,run_exp/static/audio/clip_21_q4_correct.m4a,null,<p> That’s correct. The more you dig on a planet the fewer gems you’ll get with each dig. </p>,,,,,,,,,,,,,,,,,,,,,,
quiz_q_5_ask,58,345876,0.0-21.0-1.0,,5099.57,run_exp/static/audio/clip_23_q5_ask.m4a,,,,,,1,,,,,,,,,,,,,,,,,,
quiz_q_5_fb_correct,59,350895,0.0-22.0-0.0,,null,run_exp/static/audio/clip_24_q5_correct.m4a,null,<p> That’s correct. The alien tells you nothing about how much treasure is on the planet.</p>,,,,,,,,,,,,,,,,,,,,,,
quiz_correct,60,354355,0.0-23.0-0.0,,null,run_exp/static/audio/clip_26_correct_quiz.m4a,null,,,,,,,,,,,,,,,,,,,,,,,
quiz_correct_continue,61,355248,0.0-23.0-1.0,,891.8349999,<p>Good job! You're now ready to move on to the real game!</p>,,,,,,0,,,,,,,,,,,,,,,,,,
audio-keyboard-response,62,365374,0.0-23.0-2.0,,null,run_exp/static/audio/clip_28_real_game.m4a,null,,,,,,,,,,,,,,,,,,,,,,,
instruc_begin_exp_contine,63,367049,0.0-23.0-3.0,,1674.23,"<p>Now that you know how  to dig for space treasure and travel to new planets,you can start exploring! </p><p>Do you want to go over the instructions again or get started with the real game?</p>",,,,,,1,,,,,,1,,,,,,,,,,,,
alien_welcome,64,372059,0.0-24.0-0.0,,null,run_exp/static/images/task_images/aliens/old_aliens/planet/alien_planet-25.jpg,null,,,,,,,,,,,,25,"25,4,73,77,7,8,71,17,65,67,36,27,15,32,60,31,30,29,53,50,37,58,78,76,23,11,68,74,12,2,19,20,80,49,44,69,1,62,21,3,26,48,70",,,,,,,,,,
land,65,372570,0.0-24.0-1.0,,null,run_exp/static/images/task_images/land.jpg,null,,,,,,98,,,1,,,,,,,,,,,,,,
dig,66,374586,0.0-24.0-2.0,,,,,,,,,,,"[{""stimulus"":""run_exp/static/images/task_images/dig.jpg"",""time"":0.14999974519014359},{""stimulus"":""run_exp/static/images/task_images/land.jpg"",""time"":682.9349999316037},{""stimulus"":""run_exp/static/images/task_images/dig.jpg"",""time"":1350.3849999979138}]",[],1,,,,,,,,,,,,,,
harvest,67,375600,0.0-24.0-3.0,,null,run_exp/static/images/task_images/gems/98.jpg,null,,,,,,15,,,1,,,,,98,0.156142794,0.153061224,,,,,,,
decision,68,375997,0.0-24.0-4.0,,395.7799999,run_exp/static/images/task_images/land.jpg,65,,,,,,15,,,1,,,,,,,,8946,1,0,FALSE,,,
dig,69,378609,0.0-25.0-0.0,,,,,,,,,,,"[{""stimulus"":""run_exp/static/images/task_images/dig.jpg"",""time"":0.1000002957880497},{""stimulus"":""run_exp/static/images/task_images/land.jpg"",""time"":870.7100003957748},{""stimulus"":""run_exp/static/images/task_images/dig.jpg"",""time"":1743.9250000752509}]",[],1,,,,,,,,,,,,,,
harvest,70,379625,0.0-25.0-1.0,,null,run_exp/static/images/task_images/gems/15.jpg,null,,,,,,2,,,1,,,,,15,0.153925322,0.133333333,,,,,,,
decision,71,380181,0.0-25.0-2.0,,555.1399998,run_exp/static/images/task_images/land.jpg,65,,,,,,2,,,1,,,,,,,,13131,1,1,FALSE,,,
dig,72,382634,0.0-26.0-0.0,,,,,,,,,,,"[{""stimulus"":""run_exp/static/images/task_images/dig.jpg"",""time"":0.135000329464674},{""stimulus"":""run_exp/static/images/task_images/land.jpg"",""time"":817.6950002089143},{""stimulus"":""run_exp/static/images/task_images/dig.jpg"",""time"":1644.3549999967217}]",[],1,,,,,,,,,,,,,,
harvest,73,383640,0.0-26.0-1.0,,null,run_exp/static/images/task_images/gems/2.jpg,null,,,,,,0,,,1,,,,,2,0.139289819,0,,,,,,,
decision,74,383653,0.0-26.0-2.0,,12.81500002,run_exp/static/images/task_images/land.jpg,76,,,,,,0,,,1,,,,,,,,16603,1,2,TRUE,,,
travel,75,393651,0.0-27.0-0.0,,,,,,,,,,,"[{""stimulus"":""run_exp/static/images/task_images/rocket-01.jpg"",""time"":0.10999990627169609},{""stimulus"":""run_exp/static/images/task_images/rocket-02.jpg"",""time"":1117.5999999977648},{""stimulus"":""run_exp/static/images/task_images/rocket-03.jpg"",""time"":2224.485000129789},{""stimulus"":""run_exp/static/images/task_images/rocket-04.jpg"",""time"":3334.2550001107156},{""stimulus"":""run_exp/static/images/task_images/rocket-05.jpg"",""time"":4445.950000081211},{""stimulus"":""run_exp/static/images/task_images/rocket-06.jpg"",""time"":5560.484999790788},{""stimulus"":""run_exp/static/images/task_images/rocket-07.jpg"",""time"":6658.1500000320375},{""stimulus"":""run_exp/static/images/task_images/rocket-08.jpg"",""time"":7771.350000053644},{""stimulus"":""run_exp/static/images/task_images/rocket-09.jpg"",""time"":8881.889999844134}]",[],1,,,,,,,,,,,,,,
alien_welcome,76,398656,0.0-27.0-1.0,,null,run_exp/static/images/task_images/aliens/old_aliens/planet/alien_planet-4.jpg,null,,,,,,,,,,,,4,"25,4,73,77,7,8,71,17,65,67,36,27,15,32,60,31,30,29,53,50,37,58,78,76,23,11,68,74,12,2,19,20,80,49,44,69,1,62,21,3,26,48,70",,,,,,,,,,
land,77,399163,0.0-27.0-2.0,,null,run_exp/static/images/task_images/land.jpg,null,,,,,,88,,,2,,,,,,,,,,,,,,
dig,78,401177,0.0-27.0-3.0,,,,,,,,,,,"[{""stimulus"":""run_exp/static/images/task_images/dig.jpg"",""time"":0.18999958410859108},{""stimulus"":""run_exp/static/images/task_images/land.jpg"",""time"":681.4699997194111},{""stimulus"":""run_exp/static/images/task_images/dig.jpg"",""time"":1342.9649998433888}]",[],2,,,,,,,,,,,,,,
harvest,79,402181,0.0-27.0-4.0,,null,run_exp/static/images/task_images/gems/88.jpg,null,,,,,,18,,,2,,,,,88,0.201385228,0.204545455,,,,,,,
decision,80,403070,0.0-27.0-5.0,,888.57,run_exp/static/images/task_images/land.jpg,65,,,,,,18,,,2,,,,,,,,36019,1,0,FALSE,,,
dig,81,405193,0.0-28.0-0.0,,,,,,,,,,,"[{""stimulus"":""run_exp/static/images/task_images/dig.jpg"",""time"":0.2850000746548176},{""stimulus"":""run_exp/static/images/task_images/land.jpg"",""time"":718.0650001391768},{""stimulus"":""run_exp/static/images/task_images/dig.jpg"",""time"":1408.7800001725554}]",[],2,,,,,,,,,,,,,,
harvest,82,406197,0.0-28.0-1.0,,null,run_exp/static/images/task_images/gems/18.jpg,null,,,,,,4,,,2,,,,,18,0.215337328,0.222222222,,,,,,,
decision,83,406710,0.0-28.0-2.0,,511.2950001,run_exp/static/images/task_images/land.jpg,65,,,,,,4,,,2,,,,,,,,39659,1,1,FALSE,,,
dig,84,409202,0.0-29.0-0.0,,,,,,,,,,,"[{""stimulus"":""run_exp/static/images/task_images/dig.jpg"",""time"":0.135000329464674},{""stimulus"":""run_exp/static/images/task_images/land.jpg"",""time"":839.6550002507865},{""stimulus"":""run_exp/static/images/task_images/dig.jpg"",""time"":1664.9650000035763}]",[],2,,,,,,,,,,,,,,
harvest,85,410213,0.0-29.0-1.0,,null,run_exp/static/images/task_images/gems/4.jpg,null,,,,,,1,,,2,,,,,4,0.187057835,0.25,,,,,,,
decision,86,410358,0.0-29.0-2.0,,144.2299997,run_exp/static/images/task_images/land.jpg,76,,,,,,1,,,2,,,,,,,,43307,1,2,TRUE,,,
travel,87,420226,0.0-30.0-0.0,,,,,,,,,,,"[{""stimulus"":""run_exp/static/images/task_images/rocket-01.jpg"",""time"":0.1250002533197403},{""stimulus"":""run_exp/static/images/task_images/rocket-02.jpg"",""time"":1109.0100002475083},{""stimulus"":""run_exp/static/images/task_images/rocket-03.jpg"",""time"":2200.3399999812245},{""stimulus"":""run_exp/static/images/task_images/rocket-04.jpg"",""time"":3295.2399998903275},{""stimulus"":""run_exp/static/images/task_images/rocket-05.jpg"",""time"":4382.13500007987},{""stimulus"":""run_exp/static/images/task_images/rocket-06.jpg"",""time"":5491.365000139922},{""stimulus"":""run_exp/static/images/task_images/rocket-07.jpg"",""time"":6573.960000183433},{""stimulus"":""run_exp/static/images/task_images/rocket-08.jpg"",""time"":7679.384999908507},{""stimulus"":""run_exp/static/images/task_images/rocket-09.jpg"",""time"":8775.29999986291}]",[],2,,,,,,,,,,,,,,
alien_welcome,88,425231,0.0-30.0-1.0,,null,run_exp/static/images/task_images/aliens/old_aliens/planet/alien_planet-73.jpg,null,,,,,,,,,,,,73,"25,4,73,77,7,8,71,17,65,67,36,27,15,32,60,31,30,29,53,50,37,58,78,76,23,11,68,74,12,2,19,20,80,49,44,69,1,62,21,3,26,48,70",,,,,,,,,,
land,89,425739,0.0-30.0-2.0,,null,run_exp/static/images/task_images/land.jpg,null,,,,,,98,,,3,,,,,,,,,,,,,,
dig,90,427746,0.0-30.0-3.0,,,,,,,,,,,"[{""stimulus"":""run_exp/static/images/task_images/dig.jpg"",""time"":0.1750001683831215},{""stimulus"":""run_exp/static/images/task_images/land.jpg"",""time"":679.8700001090765},{""stimulus"":""run_exp/static/images/task_images/dig.jpg"",""time"":1339.5650000311434}]",[],3,,,,,,,,,,,,,,
harvest,91,428758,0.0-30.0-4.0,,null,run_exp/static/images/task_images/gems/98.jpg,null,,,,,,61,,,3,,,,,98,0.625447946,0.62244898,,,,,,,
decision,92,428942,0.0-30.0-5.0,,183.53,run_exp/static/images/task_images/land.jpg,65,,,,,,61,,,3,,,,,,,,61891,1,0,FALSE,,,
dig,93,431764,0.0-31.0-0.0,,,,,,,,,,,"[{""stimulus"":""run_exp/static/images/task_images/dig.jpg"",""time"":0.1300000585615635},{""stimulus"":""run_exp/static/images/task_images/land.jpg"",""time"":946.0400003008544},{""stimulus"":""run_exp/static/images/task_images/dig.jpg"",""time"":1885.3950002230704}]",[],3,,,,,,,,,,,,,,
harvest,94,432776,0.0-31.0-1.0,,null,run_exp/static/images/task_images/gems/61.jpg,null,,,,,,35,,,3,,,,,61,0.571941402,0.573770492,,,,,,,
decision,95,432822,0.0-31.0-2.0,,44.26999995,run_exp/static/images/task_images/land.jpg,65,,,,,,35,,,3,,,,,,,,65771,1,1,FALSE,,,
dig,96,435793,0.0-32.0-0.0,,,,,,,,,,,"[{""stimulus"":""run_exp/static/images/task_images/dig.jpg"",""time"":0.1300000585615635},{""stimulus"":""run_exp/static/images/task_images/land.jpg"",""time"":999.1299998946488},{""stimulus"":""run_exp/static/images/task_images/dig.jpg"",""time"":1971.7900003306568}]",[],3,,,,,,,,,,,,,,
harvest,97,436801,0.0-32.0-1.0,,null,run_exp/static/images/task_images/gems/35.jpg,null,,,,,,17,,,3,,,,,35,0.485888826,0.485714286,,,,,,,
decision,98,436846,0.0-32.0-2.0,,44.11499994,run_exp/static/images/task_images/land.jpg,65,,,,,,17,,,3,,,,,,,,69795,1,2,FALSE,,,
dig,99,439817,0.0-33.0-0.0,,,,,,,,,,,"[{""stimulus"":""run_exp/static/images/task_images/dig.jpg"",""time"":0.1550000160932541},{""stimulus"":""run_exp/static/images/task_images/land.jpg"",""time"":994.0250003710389},{""stimulus"":""run_exp/static/images/task_images/dig.jpg"",""time"":1982.0400001481175}]",[],3,,,,,,,,,,,,,,
harvest,100,440819,0.0-33.0-1.0,,null,run_exp/static/images/task_images/gems/17.jpg,null,,,,,,9,,,3,,,,,17,0.553787984,0.529411765,,,,,,,
decision,101,441158,0.0-33.0-2.0,,337.3999996,run_exp/static/images/task_images/land.jpg,65,,,,,,9,,,3,,,,,,,,74107,1,3,FALSE,,,
dig,102,443828,0.0-34.0-0.0,,,,,,,,,,,"[{""stimulus"":""run_exp/static/images/task_images/dig.jpg"",""time"":0.1950003206729889},{""stimulus"":""run_exp/static/images/task_images/land.jpg"",""time"":892.8700000979006},{""stimulus"":""run_exp/static/images/task_images/dig.jpg"",""time"":1780.89000005275}]",[],3,,,,,,,,,,,,,,
harvest,103,444842,0.0-34.0-1.0,,null,run_exp/static/images/task_images/gems/9.jpg,null,,,,,,5,,,3,,,,,9,0.509198098,0.555555556,,,,,,,
decision,104,445382,0.0-34.0-2.0,,538.2700004,run_exp/static/images/task_images/land.jpg,76,,,,,,5,,,3,,,,,,,,78331,1,4,TRUE,,,
travel,105,454848,0.0-35.0-0.0,,,,,,,,,,,"[{""stimulus"":""run_exp/static/images/task_images/rocket-01.jpg"",""time"":0.11499971151351929},{""stimulus"":""run_exp/static/images/task_images/rocket-02.jpg"",""time"":1066.5750000625849},{""stimulus"":""run_exp/static/images/task_images/rocket-03.jpg"",""time"":2113.954999949783},{""stimulus"":""run_exp/static/images/task_images/rocket-04.jpg"",""time"":3160.7999997213483},{""stimulus"":""run_exp/static/images/task_images/rocket-05.jpg"",""time"":4208.385000005364},{""stimulus"":""run_exp/static/images/task_images/rocket-06.jpg"",""time"":5271.375000011176},{""stimulus"":""run_exp/static/images/task_images/rocket-07.jpg"",""time"":6320.784999988973},{""stimulus"":""run_exp/static/images/task_images/rocket-08.jpg"",""time"":7370.409999974072},{""stimulus"":""run_exp/static/images/task_images/rocket-09.jpg"",""time"":8417.520000133663}]",[],3,,,,,,,,,,,,,,
alien_welcome,106,459851,0.0-35.0-1.0,,null,run_exp/static/images/task_images/aliens/old_aliens/planet/alien_planet-77.jpg,null,,,,,,,,,,,,77,"25,4,73,77,7,8,71,17,65,67,36,27,15,32,60,31,30,29,53,50,37,58,78,76,23,11,68,74,12,2,19,20,80,49,44,69,1,62,21,3,26,48,70",,,,,,,,,,
land,107,460355,0.0-35.0-2.0,,null,run_exp/static/images/task_images/land.jpg,null,,,,,,105,,,4,,,,,,,,,,,,,,
dig,108,462369,0.0-35.0-3.0,,,,,,,,,,,"[{""stimulus"":""run_exp/static/images/task_images/dig.jpg"",""time"":0.1550000160932541},{""stimulus"":""run_exp/static/images/task_images/land.jpg"",""time"":682.3450000956655},{""stimulus"":""run_exp/static/images/task_images/dig.jpg"",""time"":1347.650000359863}]",[],4,,,,,,,,,,,,,,
harvest,109,463385,0.0-35.0-4.0,,null,run_exp/static/images/task_images/gems/105.jpg,null,,,,,,62,,,4,,,,,105,0.593043452,0.59047619,,,,,,,
decision,110,463485,0.0-35.0-5.0,,99.33999972,run_exp/static/images/task_images/land.jpg,65,,,,,,62,,,4,,,,,,,,96434,1,0,FALSE,,,
dig,111,466398,0.0-36.0-0.0,,,,,,,,,,,"[{""stimulus"":""run_exp/static/images/task_images/dig.jpg"",""time"":0.1000002957880497},{""stimulus"":""run_exp/static/images/task_images/land.jpg"",""time"":973.7750003114343},{""stimulus"":""run_exp/static/images/task_images/dig.jpg"",""time"":1946.3800000958145}]",[],4,,,,,,,,,,,,,,
harvest,112,467411,0.0-36.0-1.0,,null,run_exp/static/images/task_images/gems/62.jpg,null,,,,,,32,,,4,,,,,62,0.508355685,0.516129032,,,,,,,
decision,113,467557,0.0-36.0-2.0,,146.1100001,run_exp/static/images/task_images/land.jpg,65,,,,,,32,,,4,,,,,,,,100506,1,1,FALSE,,,
dig,114,470418,0.0-37.0-0.0,,,,,,,,,,,"[{""stimulus"":""run_exp/static/images/task_images/dig.jpg"",""time"":0.09999983012676239},{""stimulus"":""run_exp/static/images/task_images/land.jpg"",""time"":964.2249997705221},{""stimulus"":""run_exp/static/images/task_images/dig.jpg"",""time"":1916.559999808669}]",[],4,,,,,,,,,,,,,,
harvest,115,471431,0.0-37.0-1.0,,null,run_exp/static/images/task_images/gems/32.jpg,null,,,,,,17,,,4,,,,,32,0.545573548,0.53125,,,,,,,
decision,116,471534,0.0-37.0-2.0,,101.7299998,run_exp/static/images/task_images/land.jpg,65,,,,,,17,,,4,,,,,,,,104483,1,2,FALSE,,,
dig,117,474444,0.0-38.0-0.0,,,,,,,,,,,"[{""stimulus"":""run_exp/static/images/task_images/dig.jpg"",""time"":0.1050001010298729},{""stimulus"":""run_exp/static/images/task_images/land.jpg"",""time"":978.9149998687208},{""stimulus"":""run_exp/static/images/task_images/dig.jpg"",""time"":1942.8949998691678}]",[],4,,,,,,,,,,,,,,
harvest,118,475457,0.0-38.0-1.0,,null,run_exp/static/images/task_images/gems/17.jpg,null,,,,,,9,,,4,,,,,17,0.532977491,0.529411765,,,,,,,
decision,119,475525,0.0-38.0-2.0,,67.25500012,run_exp/static/images/task_images/land.jpg,76,,,,,,9,,,4,,,,,,,,108474,1,3,TRUE,,,
travel,120,485470,0.0-39.0-0.0,,,,,,,,,,,"[{""stimulus"":""run_exp/static/images/task_images/rocket-01.jpg"",""time"":0.1799999736249447},{""stimulus"":""run_exp/static/images/task_images/rocket-02.jpg"",""time"":1118.1900002993643},{""stimulus"":""run_exp/static/images/task_images/rocket-03.jpg"",""time"":2213.4850001893938},{""stimulus"":""run_exp/static/images/task_images/rocket-04.jpg"",""time"":3323.0500002391636},{""stimulus"":""run_exp/static/images/task_images/rocket-05.jpg"",""time"":4422.009999863803},{""stimulus"":""run_exp/static/images/task_images/rocket-06.jpg"",""time"":5521.500000264496},{""stimulus"":""run_exp/static/images/task_images/rocket-07.jpg"",""time"":6622.625000309199},{""stimulus"":""run_exp/static/images/task_images/rocket-08.jpg"",""time"":7729.594999924302},{""stimulus"":""run_exp/static/images/task_images/rocket-09.jpg"",""time"":8830.779999960214}]",[],4,,,,,,,,,,,,,,
alien_welcome,121,490478,0.0-39.0-1.0,,null,run_exp/static/images/task_images/aliens/old_aliens/planet/alien_planet-7.jpg,null,,,,,,,,,,,,7,"25,4,73,77,7,8,71,17,65,67,36,27,15,32,60,31,30,29,53,50,37,58,78,76,23,11,68,74,12,2,19,20,80,49,44,69,1,62,21,3,26,48,70",,,,,,,,,,
land,122,490980,0.0-39.0-2.0,,null,run_exp/static/images/task_images/land.jpg,null,,,,,,104,,,5,,,,,,,,,,,,,,
dig,123,492984,0.0-39.0-3.0,,,,,,,,,,,"[{""stimulus"":""run_exp/static/images/task_images/dig.jpg"",""time"":0.1449999399483204},{""stimulus"":""run_exp/static/images/task_images/land.jpg"",""time"":668.864999897778},{""stimulus"":""run_exp/static/images/task_images/dig.jpg"",""time"":1336.06499992311}]",[],5,,,,,,,,,,,,,,
harvest,124,493999,0.0-39.0-4.0,,null,run_exp/static/images/task_images/gems/104.jpg,null,,,,,,45,,,5,,,,,104,0.433201707,0.432692308,,,,,,,
decision,125,494717,0.0-39.0-5.0,,716.9549996,run_exp/static/images/task_images/land.jpg,65,,,,,,45,,,5,,,,,,,,127666,1,0,FALSE,,,
dig,126,497006,0.0-40.0-0.0,,,,,,,,,,,"[{""stimulus"":""run_exp/static/images/task_images/dig.jpg"",""time"":0.12499978765845299},{""stimulus"":""run_exp/static/images/task_images/land.jpg"",""time"":776.3899997808039},{""stimulus"":""run_exp/static/images/task_images/dig.jpg"",""time"":1534.759999718517}]",[],5,,,,,,,,,,,,,,
harvest,127,498017,0.0-40.0-1.0,,null,run_exp/static/images/task_images/gems/45.jpg,null,,,,,,25,,,5,,,,,45,0.545697046,0.555555556,,,,,,,
decision,128,498341,0.0-40.0-2.0,,323.3050001,run_exp/static/images/task_images/land.jpg,65,,,,,,25,,,5,,,,,,,,131290,1,1,FALSE,,,
dig,129,501029,0.0-41.0-0.0,,,,,,,,,,,"[{""stimulus"":""run_exp/static/images/task_images/dig.jpg"",""time"":0.1100003719329834},{""stimulus"":""run_exp/static/images/task_images/land.jpg"",""time"":895.9000003524125},{""stimulus"":""run_exp/static/images/task_images/dig.jpg"",""time"":1797.4249999970198}]",[],5,,,,,,,,,,,,,,
harvest,130,502036,0.0-41.0-1.0,,null,run_exp/static/images/task_images/gems/25.jpg,null,,,,,,13,,,5,,,,,25,0.513455544,0.52,,,,,,,
decision,131,502102,0.0-41.0-2.0,,64.03000001,run_exp/static/images/task_images/land.jpg,65,,,,,,13,,,5,,,,,,,,135051,1,2,FALSE,,,
dig,132,505044,0.0-42.0-0.0,,,,,,,,,,,"[{""stimulus"":""run_exp/static/images/task_images/dig.jpg"",""time"":0.1650000922381878},{""stimulus"":""run_exp/static/images/task_images/land.jpg"",""time"":994.4050000049174},{""stimulus"":""run_exp/static/images/task_images/dig.jpg"",""time"":1971.8300001695752}]",[],5,,,,,,,,,,,,,,
harvest,133,506059,0.0-42.0-1.0,,null,run_exp/static/images/task_images/gems/13.jpg,null,,,,,,7,,,5,,,,,13,0.545058351,0.538461538,,,,,,,
decision,134,506486,0.0-42.0-2.0,,425.4600001,run_exp/static/images/task_images/land.jpg,76,,,,,,7,,,5,,,,,,,,139435,1,3,TRUE,,,
travel,135,516057,0.0-43.0-0.0,,,,,,,,,,,"[{""stimulus"":""run_exp/static/images/task_images/rocket-01.jpg"",""time"":0.12499978765845299},{""stimulus"":""run_exp/static/images/task_images/rocket-02.jpg"",""time"":1073.259999975562},{""stimulus"":""run_exp/static/images/task_images/rocket-03.jpg"",""time"":2131.1149997636676},{""stimulus"":""run_exp/static/images/task_images/rocket-04.jpg"",""time"":3194.5749996230006},{""stimulus"":""run_exp/static/images/task_images/rocket-05.jpg"",""time"":4255.494999699295},{""stimulus"":""run_exp/static/images/task_images/rocket-06.jpg"",""time"":5326.439999975264},{""stimulus"":""run_exp/static/images/task_images/rocket-07.jpg"",""time"":6389.344999566674},{""stimulus"":""run_exp/static/images/task_images/rocket-08.jpg"",""time"":7451.244999654591},{""stimulus"":""run_exp/static/images/task_images/rocket-09.jpg"",""time"":8520.204999949783}]",[],5,,,,,,,,,,,,,,
alien_welcome,136,521072,0.0-43.0-1.0,,null,run_exp/static/images/task_images/aliens/old_aliens/planet/alien_planet-8.jpg,null,,,,,,,,,,,,8,"25,4,73,77,7,8,71,17,65,67,36,27,15,32,60,31,30,29,53,50,37,58,78,76,23,11,68,74,12,2,19,20,80,49,44,69,1,62,21,3,26,48,70",,,,,,,,,,
land,137,521587,0.0-43.0-2.0,,null,run_exp/static/images/task_images/land.jpg,null,,,,,,100,,,6,,,,,,,,,,,,,,
dig,138,523599,0.0-43.0-3.0,,,,,,,,,,,"[{""stimulus"":""run_exp/static/images/task_images/dig.jpg"",""time"":0.1900000497698784},{""stimulus"":""run_exp/static/images/task_images/land.jpg"",""time"":669.6000001393259},{""stimulus"":""run_exp/static/images/task_images/dig.jpg"",""time"":1337.1850000694394}]",[],6,,,,,,,,,,,,,,
harvest,139,524602,0.0-43.0-4.0,,null,run_exp/static/images/task_images/gems/100.jpg,null,,,,,,77,,,6,,,,,100,0.765992523,0.77,,,,,,,
decision,140,524854,0.0-43.0-5.0,,250.7199999,run_exp/static/images/task_images/land.jpg,65,,,,,,77,,,6,,,,,,,,157803,1,0,FALSE,,,
dig,141,527609,0.0-44.0-0.0,,,,,,,,,,,"[{""stimulus"":""run_exp/static/images/task_images/dig.jpg"",""time"":0.1349998638033867},{""stimulus"":""run_exp/static/images/task_images/land.jpg"",""time"":922.5849998183548},{""stimulus"":""run_exp/static/images/task_images/dig.jpg"",""time"":1840.7899998128414}]",[],6,,,,,,,,,,,,,,
harvest,142,528625,0.0-44.0-1.0,,null,run_exp/static/images/task_images/gems/77.jpg,null,,,,,,65,,,6,,,,,77,0.843401612,0.844155844,,,,,,,
decision,143,528862,0.0-44.0-2.0,,235.6850002,run_exp/static/images/task_images/land.jpg,65,,,,,,65,,,6,,,,,,,,161811,1,1,FALSE,,,
dig,144,531641,0.0-45.0-0.0,,,,,,,,,,,"[{""stimulus"":""run_exp/static/images/task_images/dig.jpg"",""time"":0.169999897480011},{""stimulus"":""run_exp/static/images/task_images/land.jpg"",""time"":925.2849998883903},{""stimulus"":""run_exp/static/images/task_images/dig.jpg"",""time"":1848.4100000932813}]",[],6,,,,,,,,,,,,,,
harvest,145,532645,0.0-45.0-1.0,,null,run_exp/static/images/task_images/gems/65.jpg,null,,,,,,60,,,6,,,,,65,0.925014551,0.923076923,,,,,,,
decision,146,532894,0.0-45.0-2.0,,247.6349999,run_exp/static/images/task_images/land.jpg,65,,,,,,60,,,6,,,,,,,,165843,1,2,FALSE,,,
dig,147,535649,0.0-46.0-0.0,,,,,,,,,,,"[{""stimulus"":""run_exp/static/images/task_images/dig.jpg"",""time"":0.1400001347064972},{""stimulus"":""run_exp/static/images/task_images/land.jpg"",""time"":925.129999872297},{""stimulus"":""run_exp/static/images/task_images/dig.jpg"",""time"":1845.519999973476}]",[],6,,,,,,,,,,,,,,
harvest,148,536658,0.0-46.0-1.0,,null,run_exp/static/images/task_images/gems/60.jpg,null,,,,,,50,,,6,,,,,60,0.838095938,0.833333333,,,,,,,
decision,149,537046,0.0-46.0-2.0,,387.015,run_exp/static/images/task_images/land.jpg,65,,,,,,50,,,6,,,,,,,,169995,1,3,FALSE,,,
dig,150,539662,0.0-47.0-0.0,,,,,,,,,,,"[{""stimulus"":""run_exp/static/images/task_images/dig.jpg"",""time"":0.1000002957880497},{""stimulus"":""run_exp/static/images/task_images/land.jpg"",""time"":878.4699998795986},{""stimulus"":""run_exp/static/images/task_images/dig.jpg"",""time"":1754.9200002104044}]",[],6,,,,,,,,,,,,,,
harvest,151,540669,0.0-47.0-1.0,,null,run_exp/static/images/task_images/gems/50.jpg,null,,,,,,43,,,6,,,,,50,0.864382333,0.86,,,,,,,
decision,152,540686,0.0-47.0-2.0,,15.66000003,run_exp/static/images/task_images/land.jpg,65,,,,,,43,,,6,,,,,,,,173635,1,4,FALSE,,,
dig,153,543683,0.0-48.0-0.0,,,,,,,,,,,"[{""stimulus"":""run_exp/static/images/task_images/dig.jpg"",""time"":0.1050001010298729},{""stimulus"":""run_exp/static/images/task_images/land.jpg"",""time"":995.5649999901652},{""stimulus"":""run_exp/static/images/task_images/dig.jpg"",""time"":1996.894999872893}]",[],6,,,,,,,,,,,,,,
harvest,154,544686,0.0-48.0-1.0,,null,run_exp/static/images/task_images/gems/43.jpg,null,,,,,,35,,,6,,,,,43,0.823783119,0.813953488,,,,,,,
decision,155,545246,0.0-48.0-2.0,,558.3950002,run_exp/static/images/task_images/land.jpg,65,,,,,,35,,,6,,,,,,,,178195,1,5,FALSE,,,
dig,156,547700,0.0-49.0-0.0,,,,,,,,,,,"[{""stimulus"":""run_exp/static/images/task_images/dig.jpg"",""time"":0.10999990627169609},{""stimulus"":""run_exp/static/images/task_images/land.jpg"",""time"":827.7799999341369},{""stimulus"":""run_exp/static/images/task_images/dig.jpg"",""time"":1630.909999832511}]",[],6,,,,,,,,,,,,,,
harvest,157,548713,0.0-49.0-1.0,,null,run_exp/static/images/task_images/gems/35.jpg,null,,,,,,28,,,6,,,,,35,0.796864802,0.8,,,,,,,
decision,158,550078,0.0-49.0-2.0,,1363.105,run_exp/static/images/task_images/land.jpg,65,,,,,,28,,,6,,,,,,,,183027,1,6,FALSE,,,
dig,159,551727,0.0-50.0-0.0,,,,,,,,,,,"[{""stimulus"":""run_exp/static/images/task_images/dig.jpg"",""time"":0.1000002957880497},{""stimulus"":""run_exp/static/images/task_images/land.jpg"",""time"":551.7899999395013},{""stimulus"":""run_exp/static/images/task_images/dig.jpg"",""time"":1103.984999936074}]",[],6,,,,,,,,,,,,,,
harvest,160,552743,0.0-50.0-1.0,,null,run_exp/static/images/task_images/gems/28.jpg,null,,,,,,24,,,6,,,,,28,0.851508782,0.857142857,,,,,,,
decision,161,553150,0.0-50.0-2.0,,405.5050001,run_exp/static/images/task_images/land.jpg,65,,,,,,24,,,6,,,,,,,,186099,1,7,FALSE,,,
dig,162,555747,0.0-51.0-0.0,,,,,,,,,,,"[{""stimulus"":""run_exp/static/images/task_images/dig.jpg"",""time"":0.15999982133507729},{""stimulus"":""run_exp/static/images/task_images/land.jpg"",""time"":874.6099998243153},{""stimulus"":""run_exp/static/images/task_images/dig.jpg"",""time"":1730.0100000575185}]",[],6,,,,,,,,,,,,,,
harvest,163,556750,0.0-51.0-1.0,,null,run_exp/static/images/task_images/gems/24.jpg,null,,,,,,20,,,6,,,,,24,0.831281743,0.833333333,,,,,,,
decision,164,557358,0.0-51.0-2.0,,606.6300003,run_exp/static/images/task_images/land.jpg,76,,,,,,20,,,6,,,,,,,,190307,1,8,TRUE,,,
travel,165,566758,0.0-52.0-0.0,,,,,,,,,,,"[{""stimulus"":""run_exp/static/images/task_images/rocket-01.jpg"",""time"":0.1500002108514309},{""stimulus"":""run_exp/static/images/task_images/rocket-02.jpg"",""time"":1046.265000011772},{""stimulus"":""run_exp/static/images/task_images/rocket-03.jpg"",""time"":2093.8699999824166},{""stimulus"":""run_exp/static/images/task_images/rocket-04.jpg"",""time"":3140.459999907762},{""stimulus"":""run_exp/static/images/task_images/rocket-05.jpg"",""time"":4181.0250002890825},{""stimulus"":""run_exp/static/images/task_images/rocket-06.jpg"",""time"":5227.584999985993},{""stimulus"":""run_exp/static/images/task_images/rocket-07.jpg"",""time"":6272.635000292212},{""stimulus"":""run_exp/static/images/task_images/rocket-08.jpg"",""time"":7313.554999884218},{""stimulus"":""run_exp/static/images/task_images/rocket-09.jpg"",""time"":8345.870000310242}]",[],6,,,,,,,,,,,,,,
alien_welcome,166,571772,0.0-52.0-1.0,,null,run_exp/static/images/task_images/aliens/old_aliens/planet/alien_planet-71.jpg,null,,,,,,,,,,,,71,"25,4,73,77,7,8,71,17,65,67,36,27,15,32,60,31,30,29,53,50,37,58,78,76,23,11,68,74,12,2,19,20,80,49,44,69,1,62,21,3,26,48,70",,,,,,,,,,
land,167,572274,0.0-52.0-2.0,,null,run_exp/static/images/task_images/land.jpg,null,,,,,,93,,,7,,,,,,,,,,,,,,
dig,168,574287,0.0-52.0-3.0,,,,,,,,,,,"[{""stimulus"":""run_exp/static/images/task_images/dig.jpg"",""time"":0.1850002445280552},{""stimulus"":""run_exp/static/images/task_images/land.jpg"",""time"":677.0999999716878},{""stimulus"":""run_exp/static/images/task_images/dig.jpg"",""time"":1346.335000358522}]",[],7,,,,,,,,,,,,,,
harvest,169,575289,0.0-52.0-4.0,,null,run_exp/static/images/task_images/gems/93.jpg,null,,,,,,72,,,7,,,,,93,0.776894692,0.774193548,,,,,,,
decision,170,575373,0.0-52.0-5.0,,82.80499978,run_exp/static/images/task_images/land.jpg,65,,,,,,72,,,7,,,,,,,,208322,1,0,FALSE,,,
dig,171,578295,0.0-53.0-0.0,,,,,,,,,,,"[{""stimulus"":""run_exp/static/images/task_images/dig.jpg"",""time"":0.0950000248849392},{""stimulus"":""run_exp/static/images/task_images/land.jpg"",""time"":980.2000001072884},{""stimulus"":""run_exp/static/images/task_images/dig.jpg"",""time"":1958.1100000068545}]",[],7,,,,,,,,,,,,,,
harvest,172,579306,0.0-53.0-1.0,,null,run_exp/static/images/task_images/gems/72.jpg,null,,,,,,54,,,7,,,,,72,0.745893058,0.75,,,,,,,
decision,173,579413,0.0-53.0-2.0,,105.19,run_exp/static/images/task_images/land.jpg,65,,,,,,54,,,7,,,,,,,,212362,1,1,FALSE,,,
dig,174,582322,0.0-54.0-0.0,,,,,,,,,,,"[{""stimulus"":""run_exp/static/images/task_images/dig.jpg"",""time"":0.1000002957880497},{""stimulus"":""run_exp/static/images/task_images/land.jpg"",""time"":971.5100000612438},{""stimulus"":""run_exp/static/images/task_images/dig.jpg"",""time"":1934.584999922663}]",[],7,,,,,,,,,,,,,,
harvest,175,583324,0.0-54.0-1.0,,null,run_exp/static/images/task_images/gems/54.jpg,null,,,,,,44,,,7,,,,,54,0.806984871,0.814814815,,,,,,,
decision,176,586335,0.0-54.0-2.0,,null,run_exp/static/images/task_images/land.jpg,null,,,,,,44,,,7,,,,,,,,219284,1,2,FALSE,,,
time_out,177,588350,0.0-55.0-0.0,,null,run_exp/static/images/task_images/time_out.jpg,null,,,,,,44,,,,,,,,,,,,,,,,,
decision,178,588629,0.0-55.0-1.0,,276.9900002,run_exp/static/images/task_images/land.jpg,65,,,,,,44,,,7,,,,,,,,221578,1,2,FALSE,,,
dig,179,591355,0.0-56.0-0.0,,,,,,,,,,,"[{""stimulus"":""run_exp/static/images/task_images/dig.jpg"",""time"":0.169999897480011},{""stimulus"":""run_exp/static/images/task_images/land.jpg"",""time"":912.6499998383224},{""stimulus"":""run_exp/static/images/task_images/dig.jpg"",""time"":1828.4999998286366}]",[],7,,,,,,,,,,,,,,
harvest,180,592369,0.0-56.0-1.0,,null,run_exp/static/images/task_images/gems/44.jpg,null,,,,,,35,,,7,,,,,44,0.793656975,0.795454545,,,,,,,
decision,181,592661,0.0-56.0-2.0,,291.2499998,run_exp/static/images/task_images/land.jpg,65,,,,,,35,,,7,,,,,,,,225610,1,3,FALSE,,,
dig,182,595378,0.0-57.0-0.0,,,,,,,,,,,"[{""stimulus"":""run_exp/static/images/task_images/dig.jpg"",""time"":0.0950000248849392},{""stimulus"":""run_exp/static/images/task_images/land.jpg"",""time"":911.6850001737475},{""stimulus"":""run_exp/static/images/task_images/dig.jpg"",""time"":1818.2250000536442}]",[],7,,,,,,,,,,,,,,
harvest,183,596392,0.0-57.0-1.0,,null,run_exp/static/images/task_images/gems/35.jpg,null,,,,,,29,,,7,,,,,35,0.821197019,0.828571429,,,,,,,
decision,184,596989,0.0-57.0-2.0,,596.08,run_exp/static/images/task_images/land.jpg,76,,,,,,29,,,7,,,,,,,,229938,1,4,TRUE,,,
travel,185,606400,0.0-58.0-0.0,,,,,,,,,,,"[{""stimulus"":""run_exp/static/images/task_images/rocket-01.jpg"",""time"":0.09999983012676239},{""stimulus"":""run_exp/static/images/task_images/rocket-02.jpg"",""time"":1053.139999974519},{""stimulus"":""run_exp/static/images/task_images/rocket-03.jpg"",""time"":2096.134999766946},{""stimulus"":""run_exp/static/images/task_images/rocket-04.jpg"",""time"":3147.144999820739},{""stimulus"":""run_exp/static/images/task_images/rocket-05.jpg"",""time"":4182.144999969751},{""stimulus"":""run_exp/static/images/task_images/rocket-06.jpg"",""time"":5223.1149999424815},{""stimulus"":""run_exp/static/images/task_images/rocket-07.jpg"",""time"":6270.1699999161065},{""stimulus"":""run_exp/static/images/task_images/rocket-08.jpg"",""time"":7313.275000080466},{""stimulus"":""run_exp/static/images/task_images/rocket-09.jpg"",""time"":8356.879999861121}]",[],7,,,,,,,,,,,,,,
alien_welcome,186,611411,0.0-58.0-1.0,,null,run_exp/static/images/task_images/aliens/old_aliens/planet/alien_planet-17.jpg,null,,,,,,,,,,,,17,"25,4,73,77,7,8,71,17,65,67,36,27,15,32,60,31,30,29,53,50,37,58,78,76,23,11,68,74,12,2,19,20,80,49,44,69,1,62,21,3,26,48,70",,,,,,,,,,
land,187,611925,0.0-58.0-2.0,,null,run_exp/static/images/task_images/land.jpg,null,,,,,,99,,,8,,,,,,,,,,,,,,
dig,188,613935,0.0-58.0-3.0,,,,,,,,,,,"[{""stimulus"":""run_exp/static/images/task_images/dig.jpg"",""time"":0.2100002020597458},{""stimulus"":""run_exp/static/images/task_images/land.jpg"",""time"":677.0299999043345},{""stimulus"":""run_exp/static/images/task_images/dig.jpg"",""time"":1341.1949998699129}]",[],8,,,,,,,,,,,,,,
harvest,189,614951,0.0-58.0-4.0,,null,run_exp/static/images/task_images/gems/99.jpg,null,,,,,,87,,,8,,,,,99,0.874619513,0.878787879,,,,,,,
decision,190,615253,0.0-58.0-5.0,,301.07,run_exp/static/images/task_images/land.jpg,65,,,,,,87,,,8,,,,,,,,248202,1,0,FALSE,,,
dig,191,617962,0.0-59.0-0.0,,,,,,,,,,,"[{""stimulus"":""run_exp/static/images/task_images/dig.jpg"",""time"":0.1850002445280552},{""stimulus"":""run_exp/static/images/task_images/land.jpg"",""time"":903.0050002038479},{""stimulus"":""run_exp/static/images/task_images/dig.jpg"",""time"":1807.210000231862}]",[],8,,,,,,,,,,,,,,
harvest,192,618972,0.0-59.0-1.0,,null,run_exp/static/images/task_images/gems/87.jpg,null,,,,,,67,,,8,,,,,87,0.774288706,0.770114943,,,,,,,
decision,193,619133,0.0-59.0-2.0,,159.7850001,run_exp/static/images/task_images/land.jpg,65,,,,,,67,,,8,,,,,,,,252082,1,1,FALSE,,,
dig,194,621982,0.0-60.0-0.0,,,,,,,,,,,"[{""stimulus"":""run_exp/static/images/task_images/dig.jpg"",""time"":0.1050001010298729},{""stimulus"":""run_exp/static/images/task_images/land.jpg"",""time"":952.579999808222},{""stimulus"":""run_exp/static/images/task_images/dig.jpg"",""time"":1899.4700000621378}]",[],8,,,,,,,,,,,,,,
harvest,195,622998,0.0-60.0-1.0,,null,run_exp/static/images/task_images/gems/67.jpg,null,,,,,,61,,,8,,,,,67,0.908346897,0.910447761,,,,,,,
decision,196,623437,0.0-60.0-2.0,,437.8,run_exp/static/images/task_images/land.jpg,65,,,,,,61,,,8,,,,,,,,256386,1,2,FALSE,,,
dig,197,626014,0.0-61.0-0.0,,,,,,,,,,,"[{""stimulus"":""run_exp/static/images/task_images/dig.jpg"",""time"":0.1000002957880497},{""stimulus"":""run_exp/static/images/task_images/land.jpg"",""time"":859.03500020504},{""stimulus"":""run_exp/static/images/task_images/dig.jpg"",""time"":1716.8499999679625}]",[],8,,,,,,,,,,,,,,
harvest,198,627026,0.0-61.0-1.0,,null,run_exp/static/images/task_images/gems/61.jpg,null,,,,,,52,,,8,,,,,61,0.846692546,0.852459016,,,,,,,
decision,199,627141,0.0-61.0-2.0,,114.3400003,run_exp/static/images/task_images/land.jpg,65,,,,,,52,,,8,,,,,,,,260091,1,3,FALSE,,,
dig,200,630038,0.0-62.0-0.0,,,,,,,,,,,"[{""stimulus"":""run_exp/static/images/task_images/dig.jpg"",""time"":0.135000329464674},{""stimulus"":""run_exp/static/images/task_images/land.jpg"",""time"":976.0350002907217},{""stimulus"":""run_exp/static/images/task_images/dig.jpg"",""time"":1927.440000232309}]",[],8,,,,,,,,,,,,,,
harvest,201,631052,0.0-62.0-1.0,,null,run_exp/static/images/task_images/gems/52.jpg,null,,,,,,42,,,8,,,,,52,0.810805692,0.807692308,,,,,,,
decision,202,631357,0.0-62.0-2.0,,303.965,run_exp/static/images/task_images/land.jpg,65,,,,,,42,,,8,,,,,,,,264306,1,4,FALSE,,,
dig,203,634064,0.0-63.0-0.0,,,,,,,,,,,"[{""stimulus"":""run_exp/static/images/task_images/dig.jpg"",""time"":0.09999983012676239},{""stimulus"":""run_exp/static/images/task_images/land.jpg"",""time"":903.3999997191131},{""stimulus"":""run_exp/static/images/task_images/dig.jpg"",""time"":1807.1050001308322}]",[],8,,,,,,,,,,,,,,
harvest,204,635079,0.0-63.0-1.0,,null,run_exp/static/images/task_images/gems/42.jpg,null,,,,,,30,,,8,,,,,42,0.713323575,0.714285714,,,,,,,
decision,205,636286,0.0-63.0-2.0,,1205.435,run_exp/static/images/task_images/land.jpg,76,,,,,,30,,,8,,,,,,,,269235,1,5,TRUE,,,
travel,206,645085,0.0-64.0-0.0,,,,,,,,,,,"[{""stimulus"":""run_exp/static/images/task_images/rocket-01.jpg"",""time"":0.1300000585615635},{""stimulus"":""run_exp/static/images/task_images/rocket-02.jpg"",""time"":982.3449999094009},{""stimulus"":""run_exp/static/images/task_images/rocket-03.jpg"",""time"":1965.3449999168515},{""stimulus"":""run_exp/static/images/task_images/rocket-04.jpg"",""time"":2947.039999999106},{""stimulus"":""run_exp/static/images/task_images/rocket-05.jpg"",""time"":3915.969999972731},{""stimulus"":""run_exp/static/images/task_images/rocket-06.jpg"",""time"":4893.705000169575},{""stimulus"":""run_exp/static/images/task_images/rocket-07.jpg"",""time"":5879.240000154823},{""stimulus"":""run_exp/static/images/task_images/rocket-08.jpg"",""time"":6852.340000215918},{""stimulus"":""run_exp/static/images/task_images/rocket-09.jpg"",""time"":7824.9849998392165}]",[],8,,,,,,,,,,,,,,
alien_welcome,207,650095,0.0-64.0-1.0,,null,run_exp/static/images/task_images/aliens/old_aliens/planet/alien_planet-65.jpg,null,,,,,,,,,,,,65,"25,4,73,77,7,8,71,17,65,67,36,27,15,32,60,31,30,29,53,50,37,58,78,76,23,11,68,74,12,2,19,20,80,49,44,69,1,62,21,3,26,48,70",,,,,,,,,,
land,208,650605,0.0-64.0-2.0,,null,run_exp/static/images/task_images/land.jpg,null,,,,,,95,,,9,,,,,,,,,,,,,,
dig,209,652617,0.0-64.0-3.0,,,,,,,,,,,"[{""stimulus"":""run_exp/static/images/task_images/dig.jpg"",""time"":0.13999966904520988},{""stimulus"":""run_exp/static/images/task_images/land.jpg"",""time"":677.3999999277294},{""stimulus"":""run_exp/static/images/task_images/dig.jpg"",""time"":1343.5749998316169}]",[],9,,,,,,,,,,,,,,
harvest,210,653624,0.0-64.0-4.0,,null,run_exp/static/images/task_images/gems/95.jpg,null,,,,,,17,,,9,,,,,95,0.180954291,0.178947368,,,,,,,
decision,211,653853,0.0-64.0-5.0,,228.0100002,run_exp/static/images/task_images/land.jpg,65,,,,,,17,,,9,,,,,,,,286802,1,0,FALSE,,,
dig,212,656635,0.0-65.0-0.0,,,,,,,,,,,"[{""stimulus"":""run_exp/static/images/task_images/dig.jpg"",""time"":0.1349998638033867},{""stimulus"":""run_exp/static/images/task_images/land.jpg"",""time"":931.7649998702109},{""stimulus"":""run_exp/static/images/task_images/dig.jpg"",""time"":1854.3799999170005}]",[],9,,,,,,,,,,,,,,
harvest,213,657642,0.0-65.0-1.0,,null,run_exp/static/images/task_images/gems/17.jpg,null,,,,,,3,,,9,,,,,17,0.154284811,0.176470588,,,,,,,
decision,214,658373,0.0-65.0-2.0,,729.8249998,run_exp/static/images/task_images/land.jpg,76,,,,,,3,,,9,,,,,,,,291322,1,1,TRUE,,,
travel,215,667649,0.0-66.0-0.0,,,,,,,,,,,"[{""stimulus"":""run_exp/static/images/task_images/rocket-01.jpg"",""time"":0.10999990627169609},{""stimulus"":""run_exp/static/images/task_images/rocket-02.jpg"",""time"":1035.4299996979535},{""stimulus"":""run_exp/static/images/task_images/rocket-03.jpg"",""time"":2066.4049996994436},{""stimulus"":""run_exp/static/images/task_images/rocket-04.jpg"",""time"":3101.1299998499453},{""stimulus"":""run_exp/static/images/task_images/rocket-05.jpg"",""time"":4128.269999753684},{""stimulus"":""run_exp/static/images/task_images/rocket-06.jpg"",""time"":5151.179999578744},{""stimulus"":""run_exp/static/images/task_images/rocket-07.jpg"",""time"":6188.194999936968},{""stimulus"":""run_exp/static/images/task_images/rocket-08.jpg"",""time"":7219.180000014603},{""stimulus"":""run_exp/static/images/task_images/rocket-09.jpg"",""time"":8254.074999596924}]",[],9,,,,,,,,,,,,,,
alien_welcome,216,672664,0.0-66.0-1.0,,null,run_exp/static/images/task_images/aliens/old_aliens/planet/alien_planet-67.jpg,null,,,,,,,,,,,,67,"25,4,73,77,7,8,71,17,65,67,36,27,15,32,60,31,30,29,53,50,37,58,78,76,23,11,68,74,12,2,19,20,80,49,44,69,1,62,21,3,26,48,70",,,,,,,,,,
land,217,673166,0.0-66.0-2.0,,null,run_exp/static/images/task_images/land.jpg,null,,,,,,103,,,10,,,,,,,,,,,,,,
dig,218,675179,0.0-66.0-3.0,,,,,,,,,,,"[{""stimulus"":""run_exp/static/images/task_images/dig.jpg"",""time"":0.1500002108514309},{""stimulus"":""run_exp/static/images/task_images/land.jpg"",""time"":668.7300000339746},{""stimulus"":""run_exp/static/images/task_images/dig.jpg"",""time"":1345.2500002458692}]",[],10,,,,,,,,,,,,,,
harvest,219,676181,0.0-66.0-4.0,,null,run_exp/static/images/task_images/gems/103.jpg,null,,,,,,27,,,10,,,,,103,0.262737247,0.262135922,,,,,,,
decision,220,676741,0.0-66.0-5.0,,559.4600001,run_exp/static/images/task_images/land.jpg,65,,,,,,27,,,10,,,,,,,,309690,1,0,TRUE,,,
end_of_block_continue,221,685574,0.0-67.0-0.0,,null,run_exp/static/audio/clip_32_block_end.m4a,,,,,,null,,,,,,,,,,,,,,,,,,
alien_welcome,222,690594,0.0-68.0-0.0,,null,run_exp/static/images/task_images/aliens/old_aliens/planet/alien_planet-36.jpg,null,,,,,,,,,,,,36,"25,4,73,77,7,8,71,17,65,67,36,27,15,32,60,31,30,29,53,50,37,58,78,76,23,11,68,74,12,2,19,20,80,49,44,69,1,62,21,3,26,48,70",,,,,,,,,,
land,223,691101,0.0-68.0-1.0,,null,run_exp/static/images/task_images/land.jpg,null,,,,,,99,,,11,,,,,,,,,,,,,,
dig,224,693113,0.0-68.0-2.0,,,,,,,,,,,"[{""stimulus"":""run_exp/static/images/task_images/dig.jpg"",""time"":0.1500002108514309},{""stimulus"":""run_exp/static/images/task_images/land.jpg"",""time"":672.9800002649426},{""stimulus"":""run_exp/static/images/task_images/dig.jpg"",""time"":1340.570000000298}]",[],11,,,,,,,,,,,,,,
harvest,225,694117,0.0-68.0-3.0,,null,run_exp/static/images/task_images/gems/99.jpg,null,,,,,,20,,,11,,,,,99,0.204196353,0.202020202,,,,,,,
decision,226,694653,0.0-68.0-4.0,,534.68,run_exp/static/images/task_images/land.jpg,65,,,,,,20,,,11,,,,,,,,9074,2,0,FALSE,,,
dig,227,697135,0.0-69.0-0.0,,,,,,,,,,,"[{""stimulus"":""run_exp/static/images/task_images/dig.jpg"",""time"":0.1349998638033867},{""stimulus"":""run_exp/static/images/task_images/land.jpg"",""time"":827.1349999122322},{""stimulus"":""run_exp/static/images/task_images/dig.jpg"",""time"":1658.1549998372793}]",[],11,,,,,,,,,,,,,,
harvest,228,698150,0.0-69.0-1.0,,null,run_exp/static/images/task_images/gems/20.jpg,null,,,,,,3,,,11,,,,,20,0.166866006,0.15,,,,,,,
decision,229,698581,0.0-69.0-2.0,,429.6250003,run_exp/static/images/task_images/land.jpg,76,,,,,,3,,,11,,,,,,,,13002,2,1,TRUE,,,
travel,230,708159,0.0-70.0-0.0,,,,,,,,,,,"[{""stimulus"":""run_exp/static/images/task_images/rocket-01.jpg"",""time"":0.169999897480011},{""stimulus"":""run_exp/static/images/task_images/rocket-02.jpg"",""time"":1070.2849999070168},{""stimulus"":""run_exp/static/images/task_images/rocket-03.jpg"",""time"":2140.705000143498},{""stimulus"":""run_exp/static/images/task_images/rocket-04.jpg"",""time"":3191.7499997653067},{""stimulus"":""run_exp/static/images/task_images/rocket-05.jpg"",""time"":4257.809999864548},{""stimulus"":""run_exp/static/images/task_images/rocket-06.jpg"",""time"":5317.36999982968},{""stimulus"":""run_exp/static/images/task_images/rocket-07.jpg"",""time"":6380.214999895543},{""stimulus"":""run_exp/static/images/task_images/rocket-08.jpg"",""time"":7455.744999926537},{""stimulus"":""run_exp/static/images/task_images/rocket-09.jpg"",""time"":8510.615000035614}]",[],11,,,,,,,,,,,,,,
alien_welcome,231,713173,0.0-70.0-1.0,,null,run_exp/static/images/task_images/aliens/old_aliens/planet/alien_planet-27.jpg,null,,,,,,,,,,,,27,"25,4,73,77,7,8,71,17,65,67,36,27,15,32,60,31,30,29,53,50,37,58,78,76,23,11,68,74,12,2,19,20,80,49,44,69,1,62,21,3,26,48,70",,,,,,,,,,
land,232,713689,0.0-70.0-2.0,,null,run_exp/static/images/task_images/land.jpg,null,,,,,,97,,,12,,,,,,,,,,,,,,
dig,233,715708,0.0-70.0-3.0,,,,,,,,,,,"[{""stimulus"":""run_exp/static/images/task_images/dig.jpg"",""time"":0.1850002445280552},{""stimulus"":""run_exp/static/images/task_images/land.jpg"",""time"":678.4700001589954},{""stimulus"":""run_exp/static/images/task_images/dig.jpg"",""time"":1349.6300000697374}]",[],12,,,,,,,,,,,,,,
harvest,234,716721,0.0-70.0-4.0,,null,run_exp/static/images/task_images/gems/97.jpg,null,,,,,,16,,,12,,,,,97,0.163866199,0.164948454,,,,,,,
decision,235,717069,0.0-70.0-5.0,,346.5550002,run_exp/static/images/task_images/land.jpg,65,,,,,,16,,,12,,,,,,,,31490,2,0,FALSE,,,
dig,236,719730,0.0-71.0-0.0,,,,,,,,,,,"[{""stimulus"":""run_exp/static/images/task_images/dig.jpg"",""time"":0.1449999399483204},{""stimulus"":""run_exp/static/images/task_images/land.jpg"",""time"":899.3149995803833},{""stimulus"":""run_exp/static/images/task_images/dig.jpg"",""time"":1783.5649996995926}]",[],12,,,,,,,,,,,,,,
harvest,237,720742,0.0-71.0-1.0,,null,run_exp/static/images/task_images/gems/16.jpg,null,,,,,,2,,,12,,,,,16,0.155228316,0.125,,,,,,,
decision,238,720805,0.0-71.0-2.0,,61.33500021,run_exp/static/images/task_images/land.jpg,76,,,,,,2,,,12,,,,,,,,35226,2,1,TRUE,,,
travel,239,730747,0.0-72.0-0.0,,,,,,,,,,,"[{""stimulus"":""run_exp/static/images/task_images/rocket-01.jpg"",""time"":0.1900000497698784},{""stimulus"":""run_exp/static/images/task_images/rocket-02.jpg"",""time"":1117.240000050515},{""stimulus"":""run_exp/static/images/task_images/rocket-03.jpg"",""time"":2220.710000023246},{""stimulus"":""run_exp/static/images/task_images/rocket-04.jpg"",""time"":3316.2400000728667},{""stimulus"":""run_exp/static/images/task_images/rocket-05.jpg"",""time"":4425.370000302792},{""stimulus"":""run_exp/static/images/task_images/rocket-06.jpg"",""time"":5534.280000254512},{""stimulus"":""run_exp/static/images/task_images/rocket-07.jpg"",""time"":6635.149999987334},{""stimulus"":""run_exp/static/images/task_images/rocket-08.jpg"",""time"":7742.065000347793},{""stimulus"":""run_exp/static/images/task_images/rocket-09.jpg"",""time"":8848.415000364184}]",[],12,,,,,,,,,,,,,,
alien_welcome,240,735760,0.0-72.0-1.0,,null,run_exp/static/images/task_images/aliens/old_aliens/planet/alien_planet-15.jpg,null,,,,,,,,,,,,15,"25,4,73,77,7,8,71,17,65,67,36,27,15,32,60,31,30,29,53,50,37,58,78,76,23,11,68,74,12,2,19,20,80,49,44,69,1,62,21,3,26,48,70",,,,,,,,,,
land,241,736267,0.0-72.0-2.0,,null,run_exp/static/images/task_images/land.jpg,null,,,,,,102,,,13,,,,,,,,,,,,,,
dig,242,738278,0.0-72.0-3.0,,,,,,,,,,,"[{""stimulus"":""run_exp/static/images/task_images/dig.jpg"",""time"":0.1550000160932541},{""stimulus"":""run_exp/static/images/task_images/land.jpg"",""time"":680.6200002320111},{""stimulus"":""run_exp/static/images/task_images/dig.jpg"",""time"":1341.820000205189}]",[],13,,,,,,,,,,,,,,
harvest,243,739293,0.0-72.0-4.0,,null,run_exp/static/images/task_images/gems/102.jpg,null,,,,,,12,,,13,,,,,102,0.118811229,0.117647059,,,,,,,
decision,244,739749,0.0-72.0-5.0,,454.3650001,run_exp/static/images/task_images/land.jpg,65,,,,,,12,,,13,,,,,,,,54170,2,0,FALSE,,,
dig,245,742304,0.0-73.0-0.0,,,,,,,,,,,"[{""stimulus"":""run_exp/static/images/task_images/dig.jpg"",""time"":0.10999990627169609},{""stimulus"":""run_exp/static/images/task_images/land.jpg"",""time"":856.5050000324845},{""stimulus"":""run_exp/static/images/task_images/dig.jpg"",""time"":1710.1599997840822}]",[],13,,,,,,,,,,,,,,
harvest,246,743318,0.0-73.0-1.0,,null,run_exp/static/images/task_images/gems/12.jpg,null,,,,,,3,,,13,,,,,12,0.261652467,0.25,,,,,,,
decision,247,743397,0.0-73.0-2.0,,77.46000029,run_exp/static/images/task_images/land.jpg,76,,,,,,3,,,13,,,,,,,,57818,2,1,TRUE,,,
travel,248,753322,0.0-74.0-0.0,,,,,,,,,,,"[{""stimulus"":""run_exp/static/images/task_images/rocket-01.jpg"",""time"":0.09999983012676239},{""stimulus"":""run_exp/static/images/task_images/rocket-02.jpg"",""time"":1107.7449996955693},{""stimulus"":""run_exp/static/images/task_images/rocket-03.jpg"",""time"":2218.5799996368587},{""stimulus"":""run_exp/static/images/task_images/rocket-04.jpg"",""time"":3311.594999860972},{""stimulus"":""run_exp/static/images/task_images/rocket-05.jpg"",""time"":4422.549999784678},{""stimulus"":""run_exp/static/images/task_images/rocket-06.jpg"",""time"":5521.474999841303},{""stimulus"":""run_exp/static/images/task_images/rocket-07.jpg"",""time"":6619.799999985844},{""stimulus"":""run_exp/static/images/task_images/rocket-08.jpg"",""time"":7725.029999855906},{""stimulus"":""run_exp/static/images/task_images/rocket-09.jpg"",""time"":8817.884999793023}]",[],13,,,,,,,,,,,,,,
alien_welcome,249,758325,0.0-74.0-1.0,,null,run_exp/static/images/task_images/aliens/old_aliens/planet/alien_planet-32.jpg,null,,,,,,,,,,,,32,"25,4,73,77,7,8,71,17,65,67,36,27,15,32,60,31,30,29,53,50,37,58,78,76,23,11,68,74,12,2,19,20,80,49,44,69,1,62,21,3,26,48,70",,,,,,,,,,
land,250,758833,0.0-74.0-2.0,,null,run_exp/static/images/task_images/land.jpg,null,,,,,,96,,,14,,,,,,,,,,,,,,
dig,251,760839,0.0-74.0-3.0,,,,,,,,,,,"[{""stimulus"":""run_exp/static/images/task_images/dig.jpg"",""time"":0.1650000922381878},{""stimulus"":""run_exp/static/images/task_images/land.jpg"",""time"":680.9350000694394},{""stimulus"":""run_exp/static/images/task_images/dig.jpg"",""time"":1345.1000000350177}]",[],14,,,,,,,,,,,,,,
harvest,252,761840,0.0-74.0-4.0,,null,run_exp/static/images/task_images/gems/96.jpg,null,,,,,,76,,,14,,,,,96,0.789558878,0.791666667,,,,,,,
decision,253,762189,0.0-74.0-5.0,,347.8549998,run_exp/static/images/task_images/land.jpg,65,,,,,,76,,,14,,,,,,,,76610,2,0,FALSE,,,
dig,254,764850,0.0-75.0-0.0,,,,,,,,,,,"[{""stimulus"":""run_exp/static/images/task_images/dig.jpg"",""time"":0.1000002957880497},{""stimulus"":""run_exp/static/images/task_images/land.jpg"",""time"":891.7600000277162},{""stimulus"":""run_exp/static/images/task_images/dig.jpg"",""time"":1783.7499999441206}]",[],14,,,,,,,,,,,,,,
harvest,255,765860,0.0-75.0-1.0,,null,run_exp/static/images/task_images/gems/76.jpg,null,,,,,,62,,,14,,,,,76,0.815739442,0.815789474,,,,,,,
decision,256,766270,0.0-75.0-2.0,,408.14,run_exp/static/images/task_images/land.jpg,65,,,,,,62,,,14,,,,,,,,80691,2,1,FALSE,,,
dig,257,768867,0.0-76.0-0.0,,,,,,,,,,,"[{""stimulus"":""run_exp/static/images/task_images/dig.jpg"",""time"":0.09499955922365189},{""stimulus"":""run_exp/static/images/task_images/land.jpg"",""time"":869.7749995626509},{""stimulus"":""run_exp/static/images/task_images/dig.jpg"",""time"":1740.7049997709692}]",[],14,,,,,,,,,,,,,,
harvest,258,769882,0.0-76.0-1.0,,null,run_exp/static/images/task_images/gems/62.jpg,null,,,,,,54,,,14,,,,,62,0.874106315,0.870967742,,,,,,,
decision,259,770133,0.0-76.0-2.0,,250.1050001,run_exp/static/images/task_images/land.jpg,65,,,,,,54,,,14,,,,,,,,84554,2,2,FALSE,,,
dig,260,772898,0.0-77.0-0.0,,,,,,,,,,,"[{""stimulus"":""run_exp/static/images/task_images/dig.jpg"",""time"":0.339999794960022},{""stimulus"":""run_exp/static/images/task_images/land.jpg"",""time"":919.6949996985495},{""stimulus"":""run_exp/static/images/task_images/dig.jpg"",""time"":1836.7849998176098}]",[],14,,,,,,,,,,,,,,
harvest,261,773900,0.0-77.0-1.0,,null,run_exp/static/images/task_images/gems/54.jpg,null,,,,,,46,,,14,,,,,54,0.844100677,0.851851852,,,,,,,
decision,262,774245,0.0-77.0-2.0,,344.325,run_exp/static/images/task_images/land.jpg,65,,,,,,46,,,14,,,,,,,,88666,2,3,FALSE,,,
dig,263,776914,0.0-78.0-0.0,,,,,,,,,,,"[{""stimulus"":""run_exp/static/images/task_images/dig.jpg"",""time"":0.1050001010298729},{""stimulus"":""run_exp/static/images/task_images/land.jpg"",""time"":887.1400002390146},{""stimulus"":""run_exp/static/images/task_images/dig.jpg"",""time"":1780.5250003002584}]",[],14,,,,,,,,,,,,,,
harvest,264,777928,0.0-78.0-1.0,,null,run_exp/static/images/task_images/gems/46.jpg,null,,,,,,33,,,14,,,,,46,0.724216099,0.717391304,,,,,,,
decision,265,778326,0.0-78.0-2.0,,396.7300002,run_exp/static/images/task_images/land.jpg,65,,,,,,33,,,14,,,,,,,,92747,2,4,FALSE,,,
dig,266,780940,0.0-79.0-0.0,,,,,,,,,,,"[{""stimulus"":""run_exp/static/images/task_images/dig.jpg"",""time"":0.169999897480011},{""stimulus"":""run_exp/static/images/task_images/land.jpg"",""time"":883.5999998264015},{""stimulus"":""run_exp/static/images/task_images/dig.jpg"",""time"":1749.7849999926984}]",[],14,,,,,,,,,,,,,,
harvest,267,781942,0.0-79.0-1.0,,null,run_exp/static/images/task_images/gems/33.jpg,null,,,,,,28,,,14,,,,,33,0.86312101,0.848484848,,,,,,,
decision,268,782245,0.0-79.0-2.0,,302.4049997,run_exp/static/images/task_images/land.jpg,65,,,,,,28,,,14,,,,,,,,96667,2,5,FALSE,,,
dig,269,784949,0.0-80.0-0.0,,,,,,,,,,,"[{""stimulus"":""run_exp/static/images/task_images/dig.jpg"",""time"":0.09999983012676239},{""stimulus"":""run_exp/static/images/task_images/land.jpg"",""time"":913.840000052005},{""stimulus"":""run_exp/static/images/task_images/dig.jpg"",""time"":1807.3100000619888}]",[],14,,,,,,,,,,,,,,
harvest,270,785958,0.0-80.0-1.0,,null,run_exp/static/images/task_images/gems/28.jpg,null,,,,,,25,,,14,,,,,28,0.887680558,0.892857143,,,,,,,
decision,271,786813,0.0-80.0-2.0,,854.0650001,run_exp/static/images/task_images/land.jpg,76,,,,,,25,,,14,,,,,,,,101234,2,6,TRUE,,,
travel,272,795968,0.0-81.0-0.0,,,,,,,,,,,"[{""stimulus"":""run_exp/static/images/task_images/rocket-01.jpg"",""time"":0.1050001010298729},{""stimulus"":""run_exp/static/images/task_images/rocket-02.jpg"",""time"":1016.5699999779463},{""stimulus"":""run_exp/static/images/task_images/rocket-03.jpg"",""time"":2043.715000152588},{""stimulus"":""run_exp/static/images/task_images/rocket-04.jpg"",""time"":3053.6199999041855},{""stimulus"":""run_exp/static/images/task_images/rocket-05.jpg"",""time"":4070.280000101775},{""stimulus"":""run_exp/static/images/task_images/rocket-06.jpg"",""time"":5086.215000133961},{""stimulus"":""run_exp/static/images/task_images/rocket-07.jpg"",""time"":6111.390000209212},{""stimulus"":""run_exp/static/images/task_images/rocket-08.jpg"",""time"":7127.4199998006225},{""stimulus"":""run_exp/static/images/task_images/rocket-09.jpg"",""time"":8142.4400000832975}]",[],14,,,,,,,,,,,,,,
alien_welcome,273,800976,0.0-81.0-1.0,,null,run_exp/static/images/task_images/aliens/old_aliens/planet/alien_planet-60.jpg,null,,,,,,,,,,,,60,"25,4,73,77,7,8,71,17,65,67,36,27,15,32,60,31,30,29,53,50,37,58,78,76,23,11,68,74,12,2,19,20,80,49,44,69,1,62,21,3,26,48,70",,,,,,,,,,
land,274,801493,0.0-81.0-2.0,,null,run_exp/static/images/task_images/land.jpg,null,,,,,,94,,,15,,,,,,,,,,,,,,
dig,275,803512,0.0-81.0-3.0,,,,,,,,,,,"[{""stimulus"":""run_exp/static/images/task_images/dig.jpg"",""time"":0.1850002445280552},{""stimulus"":""run_exp/static/images/task_images/land.jpg"",""time"":671.4300001040101},{""stimulus"":""run_exp/static/images/task_images/dig.jpg"",""time"":1349.7450002469122}]",[],15,,,,,,,,,,,,,,
harvest,276,804522,0.0-81.0-4.0,,null,run_exp/static/images/task_images/gems/94.jpg,null,,,,,,81,,,15,,,,,94,0.859906844,0.861702128,,,,,,,
decision,277,804949,0.0-81.0-5.0,,426.465,run_exp/static/images/task_images/land.jpg,65,,,,,,81,,,15,,,,,,,,119370,2,0,FALSE,,,
dig,278,807529,0.0-82.0-0.0,,,,,,,,,,,"[{""stimulus"":""run_exp/static/images/task_images/dig.jpg"",""time"":0.1550000160932541},{""stimulus"":""run_exp/static/images/task_images/land.jpg"",""time"":867.7350003272295},{""stimulus"":""run_exp/static/images/task_images/dig.jpg"",""time"":1724.1850001737475}]",[],15,,,,,,,,,,,,,,
harvest,279,808534,0.0-82.0-1.0,,null,run_exp/static/images/task_images/gems/81.jpg,null,,,,,,72,,,15,,,,,81,0.88923448,0.888888889,,,,,,,
decision,280,808965,0.0-82.0-2.0,,430.675,run_exp/static/images/task_images/land.jpg,65,,,,,,72,,,15,,,,,,,,123387,2,1,FALSE,,,
dig,281,811546,0.0-83.0-0.0,,,,,,,,,,,"[{""stimulus"":""run_exp/static/images/task_images/dig.jpg"",""time"":0.09999983012676239},{""stimulus"":""run_exp/static/images/task_images/land.jpg"",""time"":863.3799999952316},{""stimulus"":""run_exp/static/images/task_images/dig.jpg"",""time"":1718.41000020504}]",[],15,,,,,,,,,,,,,,
harvest,282,812548,0.0-83.0-1.0,,null,run_exp/static/images/task_images/gems/72.jpg,null,,,,,,58,,,15,,,,,72,0.803752533,0.805555556,,,,,,,
decision,283,812845,0.0-83.0-2.0,,296.2599997,run_exp/static/images/task_images/land.jpg,65,,,,,,58,,,15,,,,,,,,127266,2,2,FALSE,,,
dig,284,815562,0.0-84.0-0.0,,,,,,,,,,,"[{""stimulus"":""run_exp/static/images/task_images/dig.jpg"",""time"":0.10499963536858559},{""stimulus"":""run_exp/static/images/task_images/land.jpg"",""time"":908.1500000320375},{""stimulus"":""run_exp/static/images/task_images/dig.jpg"",""time"":1807.7799999155104}]",[],15,,,,,,,,,,,,,,
harvest,285,816576,0.0-84.0-1.0,,null,run_exp/static/images/task_images/gems/58.jpg,null,,,,,,40,,,15,,,,,58,0.684844771,0.689655172,,,,,,,
decision,286,817509,0.0-84.0-2.0,,932.155,run_exp/static/images/task_images/land.jpg,65,,,,,,40,,,15,,,,,,,,131930,2,3,FALSE,,,
dig,287,819591,0.0-85.0-0.0,,,,,,,,,,,"[{""stimulus"":""run_exp/static/images/task_images/dig.jpg"",""time"":0.1000002957880497},{""stimulus"":""run_exp/static/images/task_images/land.jpg"",""time"":692.7400003187358},{""stimulus"":""run_exp/static/images/task_images/dig.jpg"",""time"":1385.6450002640486}]",[],15,,,,,,,,,,,,,,
harvest,288,820597,0.0-85.0-1.0,,null,run_exp/static/images/task_images/gems/40.jpg,null,,,,,,34,,,15,,,,,40,0.851251975,0.85,,,,,,,
decision,289,820605,0.0-85.0-2.0,,7.745000068,run_exp/static/images/task_images/land.jpg,76,,,,,,34,,,15,,,,,,,,135026,2,4,TRUE,,,
travel,290,830615,0.0-86.0-0.0,,,,,,,,,,,"[{""stimulus"":""run_exp/static/images/task_images/rocket-01.jpg"",""time"":0.11999998241662979},{""stimulus"":""run_exp/static/images/task_images/rocket-02.jpg"",""time"":1118.0500001646578},{""stimulus"":""run_exp/static/images/task_images/rocket-03.jpg"",""time"":2226.7249999567866},{""stimulus"":""run_exp/static/images/task_images/rocket-04.jpg"",""time"":3337.929999921471},{""stimulus"":""run_exp/static/images/task_images/rocket-05.jpg"",""time"":4448.89000011608},{""stimulus"":""run_exp/static/images/task_images/rocket-06.jpg"",""time"":5552.115000318736},{""stimulus"":""run_exp/static/images/task_images/rocket-07.jpg"",""time"":6673.635000362992},{""stimulus"":""run_exp/static/images/task_images/rocket-08.jpg"",""time"":7782.520000357181},{""stimulus"":""run_exp/static/images/task_images/rocket-09.jpg"",""time"":8893.35500029847}]",[],15,,,,,,,,,,,,,,
alien_welcome,291,835618,0.0-86.0-1.0,,null,run_exp/static/images/task_images/aliens/old_aliens/planet/alien_planet-31.jpg,null,,,,,,,,,,,,31,"25,4,73,77,7,8,71,17,65,67,36,27,15,32,60,31,30,29,53,50,37,58,78,76,23,11,68,74,12,2,19,20,80,49,44,69,1,62,21,3,26,48,70",,,,,,,,,,
land,292,836128,0.0-86.0-2.0,,null,run_exp/static/images/task_images/land.jpg,null,,,,,,94,,,16,,,,,,,,,,,,,,
dig,293,838139,0.0-86.0-3.0,,,,,,,,,,,"[{""stimulus"":""run_exp/static/images/task_images/dig.jpg"",""time"":0.19499985501170158},{""stimulus"":""run_exp/static/images/task_images/land.jpg"",""time"":680.1049998030066},{""stimulus"":""run_exp/static/images/task_images/dig.jpg"",""time"":1340.1750000193715}]",[],16,,,,,,,,,,,,,,
harvest,294,839155,0.0-86.0-4.0,,null,run_exp/static/images/task_images/gems/94.jpg,null,,,,,,75,,,16,,,,,94,0.797180593,0.79787234,,,,,,,
decision,295,839237,0.0-86.0-5.0,,80.44499997,run_exp/static/images/task_images/land.jpg,65,,,,,,75,,,16,,,,,,,,153658,2,0,FALSE,,,
dig,296,842171,0.0-87.0-0.0,,,,,,,,,,,"[{""stimulus"":""run_exp/static/images/task_images/dig.jpg"",""time"":0.090000219643116},{""stimulus"":""run_exp/static/images/task_images/land.jpg"",""time"":983.8649998418987},{""stimulus"":""run_exp/static/images/task_images/dig.jpg"",""time"":1952.8999999165535}]",[],16,,,,,,,,,,,,,,
harvest,297,843181,0.0-87.0-1.0,,null,run_exp/static/images/task_images/gems/75.jpg,null,,,,,,59,,,16,,,,,75,0.787628777,0.786666667,,,,,,,
decision,298,845269,0.0-87.0-2.0,,2087.12,run_exp/static/images/task_images/land.jpg,65,,,,,,59,,,16,,,,,,,,159690,2,1,FALSE,,,
dig,299,846197,0.0-88.0-0.0,,,,,,,,,,,"[{""stimulus"":""run_exp/static/images/task_images/dig.jpg"",""time"":0.1500002108514309},{""stimulus"":""run_exp/static/images/task_images/land.jpg"",""time"":319.92499995976686},{""stimulus"":""run_exp/static/images/task_images/dig.jpg"",""time"":621.7650002799928}]",[],16,,,,,,,,,,,,,,
harvest,300,847200,0.0-88.0-1.0,,null,run_exp/static/images/task_images/gems/59.jpg,null,,,,,,46,,,16,,,,,59,0.785822139,0.779661017,,,,,,,
decision,301,847629,0.0-88.0-2.0,,427.8099998,run_exp/static/images/task_images/land.jpg,65,,,,,,46,,,16,,,,,,,,162050,2,2,FALSE,,,
dig,302,850214,0.0-89.0-0.0,,,,,,,,,,,"[{""stimulus"":""run_exp/static/images/task_images/dig.jpg"",""time"":0.1449999399483204},{""stimulus"":""run_exp/static/images/task_images/land.jpg"",""time"":870.8000001497567},{""stimulus"":""run_exp/static/images/task_images/dig.jpg"",""time"":1723.329999949783}]",[],16,,,,,,,,,,,,,,
harvest,303,851227,0.0-89.0-1.0,,null,run_exp/static/images/task_images/gems/46.jpg,null,,,,,,38,,,16,,,,,46,0.822327147,0.826086957,,,,,,,
decision,304,851725,0.0-89.0-2.0,,497.0300002,run_exp/static/images/task_images/land.jpg,65,,,,,,38,,,16,,,,,,,,166146,2,3,FALSE,,,
dig,305,854237,0.0-90.0-0.0,,,,,,,,,,,"[{""stimulus"":""run_exp/static/images/task_images/dig.jpg"",""time"":0.1250002533197403},{""stimulus"":""run_exp/static/images/task_images/land.jpg"",""time"":847.8600000962615},{""stimulus"":""run_exp/static/images/task_images/dig.jpg"",""time"":1669.9649998918176}]",[],16,,,,,,,,,,,,,,
harvest,306,855243,0.0-90.0-1.0,,null,run_exp/static/images/task_images/gems/38.jpg,null,,,,,,30,,,16,,,,,38,0.801052763,0.789473684,,,,,,,
decision,307,855717,0.0-90.0-2.0,,472.455,run_exp/static/images/task_images/land.jpg,76,,,,,,30,,,16,,,,,,,,170138,2,4,TRUE,,,
travel,308,865249,0.0-91.0-0.0,,,,,,,,,,,"[{""stimulus"":""run_exp/static/images/task_images/rocket-01.jpg"",""time"":0.1050001010298729},{""stimulus"":""run_exp/static/images/task_images/rocket-02.jpg"",""time"":1060.485000256449},{""stimulus"":""run_exp/static/images/task_images/rocket-03.jpg"",""time"":2117.0399999246},{""stimulus"":""run_exp/static/images/task_images/rocket-04.jpg"",""time"":3181.265000253916},{""stimulus"":""run_exp/static/images/task_images/rocket-05.jpg"",""time"":4241.814999841154},{""stimulus"":""run_exp/static/images/task_images/rocket-06.jpg"",""time"":5300.689999945462},{""stimulus"":""run_exp/static/images/task_images/rocket-07.jpg"",""time"":6357.625000178814},{""stimulus"":""run_exp/static/images/task_images/rocket-08.jpg"",""time"":7421.95999994874},{""stimulus"":""run_exp/static/images/task_images/rocket-09.jpg"",""time"":8471.975000109524}]",[],16,,,,,,,,,,,,,,
alien_welcome,309,870253,0.0-91.0-1.0,,null,run_exp/static/images/task_images/aliens/old_aliens/planet/alien_planet-30.jpg,null,,,,,,,,,,,,30,"25,4,73,77,7,8,71,17,65,67,36,27,15,32,60,31,30,29,53,50,37,58,78,76,23,11,68,74,12,2,19,20,80,49,44,69,1,62,21,3,26,48,70",,,,,,,,,,
land,310,870764,0.0-91.0-2.0,,null,run_exp/static/images/task_images/land.jpg,null,,,,,,97,,,17,,,,,,,,,,,,,,
dig,311,872768,0.0-91.0-3.0,,,,,,,,,,,"[{""stimulus"":""run_exp/static/images/task_images/dig.jpg"",""time"":0.1550000160932541},{""stimulus"":""run_exp/static/images/task_images/land.jpg"",""time"":679.1850002482533},{""stimulus"":""run_exp/static/images/task_images/dig.jpg"",""time"":1339.9550002068281}]",[],17,,,,,,,,,,,,,,
harvest,312,873774,0.0-91.0-4.0,,null,run_exp/static/images/task_images/gems/97.jpg,null,,,,,,74,,,17,,,,,97,0.767312661,0.762886598,,,,,,,
decision,313,874373,0.0-91.0-5.0,,598.2850003,run_exp/static/images/task_images/land.jpg,65,,,,,,74,,,17,,,,,,,,188794,2,0,FALSE,,,
dig,314,876778,0.0-92.0-0.0,,,,,,,,,,,"[{""stimulus"":""run_exp/static/images/task_images/dig.jpg"",""time"":0.0950000248849392},{""stimulus"":""run_exp/static/images/task_images/land.jpg"",""time"":809.1250001452863},{""stimulus"":""run_exp/static/images/task_images/dig.jpg"",""time"":1604.774999897927}]",[],17,,,,,,,,,,,,,,
harvest,315,877784,0.0-92.0-1.0,,null,run_exp/static/images/task_images/gems/74.jpg,null,,,,,,62,,,17,,,,,74,0.832560011,0.837837838,,,,,,,
decision,316,877933,0.0-92.0-2.0,,148.2250001,run_exp/static/images/task_images/land.jpg,65,,,,,,62,,,17,,,,,,,,192354,2,1,FALSE,,,
dig,317,880801,0.0-93.0-0.0,,,,,,,,,,,"[{""stimulus"":""run_exp/static/images/task_images/dig.jpg"",""time"":0.135000329464674},{""stimulus"":""run_exp/static/images/task_images/land.jpg"",""time"":966.5300003252923},{""stimulus"":""run_exp/static/images/task_images/dig.jpg"",""time"":1907.930000219494}]",[],17,,,,,,,,,,,,,,
harvest,318,881815,0.0-93.0-1.0,,null,run_exp/static/images/task_images/gems/62.jpg,null,,,,,,54,,,17,,,,,62,0.8766866,0.870967742,,,,,,,
decision,319,882197,0.0-93.0-2.0,,381.5450002,run_exp/static/images/task_images/land.jpg,65,,,,,,54,,,17,,,,,,,,196618,2,2,FALSE,,,
dig,320,884817,0.0-94.0-0.0,,,,,,,,,,,"[{""stimulus"":""run_exp/static/images/task_images/dig.jpg"",""time"":0.1449999399483204},{""stimulus"":""run_exp/static/images/task_images/land.jpg"",""time"":883.0499998293817},{""stimulus"":""run_exp/static/images/task_images/dig.jpg"",""time"":1752.5999997742474}]",[],17,,,,,,,,,,,,,,
harvest,321,885829,0.0-94.0-1.0,,null,run_exp/static/images/task_images/gems/54.jpg,null,,,,,,47,,,17,,,,,54,0.872822508,0.87037037,,,,,,,
decision,322,887229,0.0-94.0-2.0,,1398.62,run_exp/static/images/task_images/land.jpg,65,,,,,,47,,,17,,,,,,,,201650,2,3,FALSE,,,
dig,323,888834,0.0-95.0-0.0,,,,,,,,,,,"[{""stimulus"":""run_exp/static/images/task_images/dig.jpg"",""time"":0.1550000160932541},{""stimulus"":""run_exp/static/images/task_images/land.jpg"",""time"":536.0900000669062},{""stimulus"":""run_exp/static/images/task_images/dig.jpg"",""time"":1081.0350002720952}]",[],17,,,,,,,,,,,,,,
harvest,324,889842,0.0-95.0-1.0,,null,run_exp/static/images/task_images/gems/47.jpg,null,,,,,,40,,,17,,,,,47,0.858572449,0.85106383,,,,,,,
decision,325,890477,0.0-95.0-2.0,,634.3950001,run_exp/static/images/task_images/land.jpg,65,,,,,,40,,,17,,,,,,,,204898,2,4,FALSE,,,
dig,326,892863,0.0-96.0-0.0,,,,,,,,,,,"[{""stimulus"":""run_exp/static/images/task_images/dig.jpg"",""time"":0.12999959290027618},{""stimulus"":""run_exp/static/images/task_images/land.jpg"",""time"":793.8099997118115},{""stimulus"":""run_exp/static/images/task_images/dig.jpg"",""time"":1588.2099997252226}]",[],17,,,,,,,,,,,,,,
harvest,327,893871,0.0-96.0-1.0,,null,run_exp/static/images/task_images/gems/40.jpg,null,,,,,,34,,,17,,,,,40,0.861326498,0.85,,,,,,,
decision,328,894837,0.0-96.0-2.0,,965.105,run_exp/static/images/task_images/land.jpg,65,,,,,,34,,,17,,,,,,,,209258,2,5,FALSE,,,
dig,329,896888,0.0-97.0-0.0,,,,,,,,,,,"[{""stimulus"":""run_exp/static/images/task_images/dig.jpg"",""time"":0.10999990627169609},{""stimulus"":""run_exp/static/images/task_images/land.jpg"",""time"":688.4649996645749},{""stimulus"":""run_exp/static/images/task_images/dig.jpg"",""time"":1366.6249997913837}]",[],17,,,,,,,,,,,,,,
harvest,330,897895,0.0-97.0-1.0,,null,run_exp/static/images/task_images/gems/34.jpg,null,,,,,,28,,,17,,,,,34,0.817429839,0.823529412,,,,,,,
decision,331,898725,0.0-97.0-2.0,,828.9199998,run_exp/static/images/task_images/land.jpg,76,,,,,,28,,,17,,,,,,,,213146,2,6,TRUE,,,
travel,332,907901,0.0-98.0-0.0,,,,,,,,,,,"[{""stimulus"":""run_exp/static/images/task_images/rocket-01.jpg"",""time"":0.09999983012676239},{""stimulus"":""run_exp/static/images/task_images/rocket-02.jpg"",""time"":1028.435000218451},{""stimulus"":""run_exp/static/images/task_images/rocket-03.jpg"",""time"":2046.3350000791252},{""stimulus"":""run_exp/static/images/task_images/rocket-04.jpg"",""time"":3062.33000010252},{""stimulus"":""run_exp/static/images/task_images/rocket-05.jpg"",""time"":4090.4350001364946},{""stimulus"":""run_exp/static/images/task_images/rocket-06.jpg"",""time"":5096.324999816716},{""stimulus"":""run_exp/static/images/task_images/rocket-07.jpg"",""time"":6118.269999977201},{""stimulus"":""run_exp/static/images/task_images/rocket-08.jpg"",""time"":7136.289999820292},{""stimulus"":""run_exp/static/images/task_images/rocket-09.jpg"",""time"":8158.470000140369}]",[],17,,,,,,,,,,,,,,
alien_welcome,333,912918,0.0-98.0-1.0,,null,run_exp/static/images/task_images/aliens/old_aliens/planet/alien_planet-29.jpg,null,,,,,,,,,,,,29,"25,4,73,77,7,8,71,17,65,67,36,27,15,32,60,31,30,29,53,50,37,58,78,76,23,11,68,74,12,2,19,20,80,49,44,69,1,62,21,3,26,48,70",,,,,,,,,,
land,334,913425,0.0-98.0-2.0,,null,run_exp/static/images/task_images/land.jpg,null,,,,,,102,,,18,,,,,,,,,,,,,,
dig,335,915437,0.0-98.0-3.0,,,,,,,,,,,"[{""stimulus"":""run_exp/static/images/task_images/dig.jpg"",""time"":0.1349998638033867},{""stimulus"":""run_exp/static/images/task_images/land.jpg"",""time"":681.3449999317527},{""stimulus"":""run_exp/static/images/task_images/dig.jpg"",""time"":1342.3049999400973}]",[],18,,,,,,,,,,,,,,
harvest,336,916449,0.0-98.0-4.0,,null,run_exp/static/images/task_images/gems/102.jpg,null,,,,,,83,,,18,,,,,102,0.808835749,0.81372549,,,,,,,
decision,337,916837,0.0-98.0-5.0,,386.1150001,run_exp/static/images/task_images/land.jpg,65,,,,,,83,,,18,,,,,,,,231258,2,0,FALSE,,,
dig,338,919468,0.0-99.0-0.0,,,,,,,,,,,"[{""stimulus"":""run_exp/static/images/task_images/dig.jpg"",""time"":0.1050001010298729},{""stimulus"":""run_exp/static/images/task_images/land.jpg"",""time"":874.9049999751151},{""stimulus"":""run_exp/static/images/task_images/dig.jpg"",""time"":1755.135000217706}]",[],18,,,,,,,,,,,,,,
harvest,339,920477,0.0-99.0-1.0,,null,run_exp/static/images/task_images/gems/83.jpg,null,,,,,,72,,,18,,,,,83,0.873413986,0.86746988,,,,,,,
decision,340,920989,0.0-99.0-2.0,,510.7650002,run_exp/static/images/task_images/land.jpg,65,,,,,,72,,,18,,,,,,,,235410,2,1,FALSE,,,
dig,341,923490,0.0-100.0-0.0,,,,,,,,,,,"[{""stimulus"":""run_exp/static/images/task_images/dig.jpg"",""time"":0.1150001771748066},{""stimulus"":""run_exp/static/images/task_images/land.jpg"",""time"":831.9449997507036},{""stimulus"":""run_exp/static/images/task_images/dig.jpg"",""time"":1670.7700002007186}]",[],18,,,,,,,,,,,,,,
harvest,342,924506,0.0-100.0-1.0,,null,run_exp/static/images/task_images/gems/72.jpg,null,,,,,,61,,,18,,,,,72,0.84340596,0.847222222,,,,,,,
decision,343,924526,0.0-100.0-2.0,,18.27999996,run_exp/static/images/task_images/land.jpg,65,,,,,,61,,,18,,,,,,,,238947,2,2,FALSE,,,
dig,344,927522,0.0-101.0-0.0,,,,,,,,,,,"[{""stimulus"":""run_exp/static/images/task_images/dig.jpg"",""time"":0.14999974519014359},{""stimulus"":""run_exp/static/images/task_images/land.jpg"",""time"":1006.5000001341105},{""stimulus"":""run_exp/static/images/task_images/dig.jpg"",""time"":1988.43999998644}]",[],18,,,,,,,,,,,,,,
harvest,345,928537,0.0-101.0-1.0,,null,run_exp/static/images/task_images/gems/61.jpg,null,,,,,,50,,,18,,,,,61,0.824592013,0.819672131,,,,,,,
decision,346,929117,0.0-101.0-2.0,,578.4200002,run_exp/static/images/task_images/land.jpg,65,,,,,,50,,,18,,,,,,,,243538,2,3,FALSE,,,
dig,347,931555,0.0-102.0-0.0,,,,,,,,,,,"[{""stimulus"":""run_exp/static/images/task_images/dig.jpg"",""time"":0.09999983012676239},{""stimulus"":""run_exp/static/images/task_images/land.jpg"",""time"":821.9850002788007},{""stimulus"":""run_exp/static/images/task_images/dig.jpg"",""time"":1627.824999857694}]",[],18,,,,,,,,,,,,,,
harvest,348,932565,0.0-102.0-1.0,,null,run_exp/static/images/task_images/gems/50.jpg,null,,,,,,42,,,18,,,,,50,0.849526007,0.84,,,,,,,
decision,349,933053,0.0-102.0-2.0,,487.1499999,run_exp/static/images/task_images/land.jpg,65,,,,,,42,,,18,,,,,,,,247474,2,4,FALSE,,,
dig,350,935579,0.0-103.0-0.0,,,,,,,,,,,"[{""stimulus"":""run_exp/static/images/task_images/dig.jpg"",""time"":0.1349998638033867},{""stimulus"":""run_exp/static/images/task_images/land.jpg"",""time"":841.7599997483194},{""stimulus"":""run_exp/static/images/task_images/dig.jpg"",""time"":1682.8649998642504}]",[],18,,,,,,,,,,,,,,
harvest,351,936592,0.0-103.0-1.0,,null,run_exp/static/images/task_images/gems/42.jpg,null,,,,,,33,,,18,,,,,42,0.78306859,0.785714286,,,,,,,
decision,352,938261,0.0-103.0-2.0,,1667.29,run_exp/static/images/task_images/land.jpg,76,,,,,,33,,,18,,,,,,,,252682,2,5,TRUE,,,
travel,353,946600,0.0-104.0-0.0,,,,,,,,,,,"[{""stimulus"":""run_exp/static/images/task_images/rocket-01.jpg"",""time"":0.10999990627169609},{""stimulus"":""run_exp/static/images/task_images/rocket-02.jpg"",""time"":934.4199998304248},{""stimulus"":""run_exp/static/images/task_images/rocket-03.jpg"",""time"":1866.3699999451637},{""stimulus"":""run_exp/static/images/task_images/rocket-04.jpg"",""time"":2785.8799998648465},{""stimulus"":""run_exp/static/images/task_images/rocket-05.jpg"",""time"":3714.0399999916553},{""stimulus"":""run_exp/static/images/task_images/rocket-06.jpg"",""time"":4634.674999862909},{""stimulus"":""run_exp/static/images/task_images/rocket-07.jpg"",""time"":5563.24000004679},{""stimulus"":""run_exp/static/images/task_images/rocket-08.jpg"",""time"":6487.325000111014},{""stimulus"":""run_exp/static/images/task_images/rocket-09.jpg"",""time"":7409.884999971837}]",[],18,,,,,,,,,,,,,,
alien_welcome,354,951607,0.0-104.0-1.0,,null,run_exp/static/images/task_images/aliens/old_aliens/planet/alien_planet-53.jpg,null,,,,,,,,,,,,53,"25,4,73,77,7,8,71,17,65,67,36,27,15,32,60,31,30,29,53,50,37,58,78,76,23,11,68,74,12,2,19,20,80,49,44,69,1,62,21,3,26,48,70",,,,,,,,,,
land,355,952115,0.0-104.0-2.0,,null,run_exp/static/images/task_images/land.jpg,null,,,,,,101,,,19,,,,,,,,,,,,,,
dig,356,954132,0.0-104.0-3.0,,,,,,,,,,,"[{""stimulus"":""run_exp/static/images/task_images/dig.jpg"",""time"":0.1449999399483204},{""stimulus"":""run_exp/static/images/task_images/land.jpg"",""time"":682.0300002582371},{""stimulus"":""run_exp/static/images/task_images/dig.jpg"",""time"":1349.8050002381206}]",[],19,,,,,,,,,,,,,,
harvest,357,955142,0.0-104.0-4.0,,null,run_exp/static/images/task_images/gems/101.jpg,null,,,,,,44,,,19,,,,,101,0.432729706,0.435643564,,,,,,,
decision,358,956029,0.0-104.0-5.0,,885.1500005,run_exp/static/images/task_images/land.jpg,65,,,,,,44,,,19,,,,,,,,270450,2,0,FALSE,,,
dig,359,958159,0.0-105.0-0.0,,,,,,,,,,,"[{""stimulus"":""run_exp/static/images/task_images/dig.jpg"",""time"":0.09999983012676239},{""stimulus"":""run_exp/static/images/task_images/land.jpg"",""time"":718.4600001201034},{""stimulus"":""run_exp/static/images/task_images/dig.jpg"",""time"":1411.1099997535348}]",[],19,,,,,,,,,,,,,,
harvest,360,959161,0.0-105.0-1.0,,null,run_exp/static/images/task_images/gems/44.jpg,null,,,,,,19,,,19,,,,,44,0.437791117,0.431818182,,,,,,,
decision,361,959541,0.0-105.0-2.0,,378.6749998,run_exp/static/images/task_images/land.jpg,65,,,,,,19,,,19,,,,,,,,273962,2,1,FALSE,,,
dig,362,962173,0.0-106.0-0.0,,,,,,,,,,,"[{""stimulus"":""run_exp/static/images/task_images/dig.jpg"",""time"":0.1550000160932541},{""stimulus"":""run_exp/static/images/task_images/land.jpg"",""time"":885.2850003167987},{""stimulus"":""run_exp/static/images/task_images/dig.jpg"",""time"":1757.4700000695884}]",[],19,,,,,,,,,,,,,,
harvest,363,963187,0.0-106.0-1.0,,null,run_exp/static/images/task_images/gems/19.jpg,null,,,,,,10,,,19,,,,,19,0.518624,0.526315789,,,,,,,
decision,364,963229,0.0-106.0-2.0,,40.62499991,run_exp/static/images/task_images/land.jpg,76,,,,,,10,,,19,,,,,,,,277650,2,2,TRUE,,,
travel,365,973191,0.0-107.0-0.0,,,,,,,,,,,"[{""stimulus"":""run_exp/static/images/task_images/rocket-01.jpg"",""time"":0.1400001347064972},{""stimulus"":""run_exp/static/images/task_images/rocket-02.jpg"",""time"":1112.9700001329184},{""stimulus"":""run_exp/static/images/task_images/rocket-03.jpg"",""time"":2227.225000038743},{""stimulus"":""run_exp/static/images/task_images/rocket-04.jpg"",""time"":3326.200000010431},{""stimulus"":""run_exp/static/images/task_images/rocket-05.jpg"",""time"":4440.25000045076},{""stimulus"":""run_exp/static/images/task_images/rocket-06.jpg"",""time"":5539.070000406355},{""stimulus"":""run_exp/static/images/task_images/rocket-07.jpg"",""time"":6643.705000169575},{""stimulus"":""run_exp/static/images/task_images/rocket-08.jpg"",""time"":7752.335000317544},{""stimulus"":""run_exp/static/images/task_images/rocket-09.jpg"",""time"":8863.260000012815}]",[],19,,,,,,,,,,,,,,
alien_welcome,366,978195,0.0-107.0-1.0,,null,run_exp/static/images/task_images/aliens/old_aliens/planet/alien_planet-50.jpg,null,,,,,,,,,,,,50,"25,4,73,77,7,8,71,17,65,67,36,27,15,32,60,31,30,29,53,50,37,58,78,76,23,11,68,74,12,2,19,20,80,49,44,69,1,62,21,3,26,48,70",,,,,,,,,,
land,367,978703,0.0-107.0-2.0,,null,run_exp/static/images/task_images/land.jpg,null,,,,,,103,,,20,,,,,,,,,,,,,,
dig,368,980713,0.0-107.0-3.0,,,,,,,,,,,"[{""stimulus"":""run_exp/static/images/task_images/dig.jpg"",""time"":0.1550000160932541},{""stimulus"":""run_exp/static/images/task_images/land.jpg"",""time"":678.2700000330806},{""stimulus"":""run_exp/static/images/task_images/dig.jpg"",""time"":1343.3699999004602}]",[],20,,,,,,,,,,,,,,
harvest,369,981721,0.0-107.0-4.0,,null,run_exp/static/images/task_images/gems/103.jpg,null,,,,,,82,,,20,,,,,103,0.798232614,0.796116505,,,,,,,
decision,370,982061,0.0-107.0-5.0,,338.585,run_exp/static/images/task_images/land.jpg,65,,,,,,82,,,20,,,,,,,,296482,2,0,FALSE,,,
dig,371,984733,0.0-108.0-0.0,,,,,,,,,,,"[{""stimulus"":""run_exp/static/images/task_images/dig.jpg"",""time"":0.1500002108514309},{""stimulus"":""run_exp/static/images/task_images/land.jpg"",""time"":888.865000102669},{""stimulus"":""run_exp/static/images/task_images/dig.jpg"",""time"":1788.5900000110269}]",[],20,,,,,,,,,,,,,,
harvest,372,985735,0.0-108.0-1.0,,null,run_exp/static/images/task_images/gems/82.jpg,null,,,,,,63,,,20,,,,,82,0.765845165,0.768292683,,,,,,,
decision,373,986149,0.0-108.0-2.0,,412.6250003,run_exp/static/images/task_images/land.jpg,65,,,,,,63,,,20,,,,,,,,300570,2,1,TRUE,,,
end_of_block_continue,374,994994,0.0-109.0-0.0,,null,run_exp/static/audio/clip_32_block_end.m4a,,,,,,null,,,,,,,,,,,,,,,,,,
alien_welcome,375,1000011,0.0-110.0-0.0,,null,run_exp/static/images/task_images/aliens/old_aliens/planet/alien_planet-37.jpg,null,,,,,,,,,,,,37,"25,4,73,77,7,8,71,17,65,67,36,27,15,32,60,31,30,29,53,50,37,58,78,76,23,11,68,74,12,2,19,20,80,49,44,69,1,62,21,3,26,48,70",,,,,,,,,,
land,376,1000514,0.0-110.0-1.0,,null,run_exp/static/images/task_images/land.jpg,null,,,,,,94,,,21,,,,,,,,,,,,,,
dig,377,1002519,0.0-110.0-2.0,,,,,,,,,,,"[{""stimulus"":""run_exp/static/images/task_images/dig.jpg"",""time"":0.1950003206729889},{""stimulus"":""run_exp/static/images/task_images/land.jpg"",""time"":675.3400000743568},{""stimulus"":""run_exp/static/images/task_images/dig.jpg"",""time"":1342.6650003530085}]",[],21,,,,,,,,,,,,,,
harvest,378,1003535,0.0-110.0-3.0,,null,run_exp/static/images/task_images/gems/94.jpg,null,,,,,,55,,,21,,,,,94,0.589850562,0.585106383,,,,,,,
decision,379,1004189,0.0-110.0-4.0,,651.6899997,run_exp/static/images/task_images/land.jpg,65,,,,,,55,,,21,,,,,,,,9190,3,0,FALSE,,,
dig,380,1006543,0.0-111.0-0.0,,,,,,,,,,,"[{""stimulus"":""run_exp/static/images/task_images/dig.jpg"",""time"":0.0950000248849392},{""stimulus"":""run_exp/static/images/task_images/land.jpg"",""time"":789.0050001442432},{""stimulus"":""run_exp/static/images/task_images/dig.jpg"",""time"":1568.4549999423325}]",[],21,,,,,,,,,,,,,,
harvest,381,1007550,0.0-111.0-1.0,,null,run_exp/static/images/task_images/gems/55.jpg,null,,,,,,29,,,21,,,,,55,0.531967762,0.527272727,,,,,,,
decision,382,1007869,0.0-111.0-2.0,,317.4000001,run_exp/static/images/task_images/land.jpg,65,,,,,,29,,,21,,,,,,,,12870,3,1,FALSE,,,
dig,383,1010555,0.0-112.0-0.0,,,,,,,,,,,"[{""stimulus"":""run_exp/static/images/task_images/dig.jpg"",""time"":0.1150001771748066},{""stimulus"":""run_exp/static/images/task_images/land.jpg"",""time"":907.2449998930097},{""stimulus"":""run_exp/static/images/task_images/dig.jpg"",""time"":1804.2649999260902}]",[],21,,,,,,,,,,,,,,
harvest,384,1011565,0.0-112.0-1.0,,null,run_exp/static/images/task_images/gems/29.jpg,null,,,,,,13,,,21,,,,,29,0.463496902,0.448275862,,,,,,,
decision,385,1011893,0.0-112.0-2.0,,327.1550001,run_exp/static/images/task_images/land.jpg,76,,,,,,13,,,21,,,,,,,,16894,3,2,TRUE,,,
travel,386,1021575,0.0-113.0-0.0,,,,,,,,,,,"[{""stimulus"":""run_exp/static/images/task_images/rocket-01.jpg"",""time"":0.1050001010298729},{""stimulus"":""run_exp/static/images/task_images/rocket-02.jpg"",""time"":1080.1699999719858},{""stimulus"":""run_exp/static/images/task_images/rocket-03.jpg"",""time"":2159.334999974817},{""stimulus"":""run_exp/static/images/task_images/rocket-04.jpg"",""time"":3223.955000285059},{""stimulus"":""run_exp/static/images/task_images/rocket-05.jpg"",""time"":4298.785000108182},{""stimulus"":""run_exp/static/images/task_images/rocket-06.jpg"",""time"":5378.130000084639},{""stimulus"":""run_exp/static/images/task_images/rocket-07.jpg"",""time"":6447.740000206977},{""stimulus"":""run_exp/static/images/task_images/rocket-08.jpg"",""time"":7523.5350001603365},{""stimulus"":""run_exp/static/images/task_images/rocket-09.jpg"",""time"":8605.975000187755}]",[],21,,,,,,,,,,,,,,
alien_welcome,387,1026579,0.0-113.0-1.0,,null,run_exp/static/images/task_images/aliens/old_aliens/planet/alien_planet-58.jpg,null,,,,,,,,,,,,58,"25,4,73,77,7,8,71,17,65,67,36,27,15,32,60,31,30,29,53,50,37,58,78,76,23,11,68,74,12,2,19,20,80,49,44,69,1,62,21,3,26,48,70",,,,,,,,,,
land,388,1027089,0.0-113.0-2.0,,null,run_exp/static/images/task_images/land.jpg,null,,,,,,102,,,22,,,,,,,,,,,,,,
dig,389,1029106,0.0-113.0-3.0,,,,,,,,,,,"[{""stimulus"":""run_exp/static/images/task_images/dig.jpg"",""time"":0.1550000160932541},{""stimulus"":""run_exp/static/images/task_images/land.jpg"",""time"":681.0599998570979},{""stimulus"":""run_exp/static/images/task_images/dig.jpg"",""time"":1344.964999705553}]",[],22,,,,,,,,,,,,,,
