trial_type,trial_index,time_elapsed,internal_node_id,interactions,blur_events,focus_events,fullscreenenter_events,fullscreenexit_events,success,rt,stimulus,key_press,prompt,subject_id,participant_id,age,gender,button_pressed,next_reward,animation_sequence,responses,planet,curr_prac_trial,n_prac_rounds,alien,aliens,reward_received,decay_rate_actual,decay_rate_exp,time_in_block,block_num,prt,last_trial_on_planet,button_html,bonus,num_failures
pavlovia,0,7,0.0-0.0,"""event"",""trial"",""time""
""fullscreenenter"",""1"",""11553""
","
","
","""event"",""trial"",""time""
""fullscreenenter"",""1"",""11553""
","
",,,,,,,,,,,,,,,,,,,,,,,,,,,,
fullscreen,1,12527,0.0-1.0,"""event"",""trial"",""time""
""fullscreenenter"",""1"",""11553""
","
","
","""event"",""trial"",""time""
""fullscreenenter"",""1"",""11553""
","
",TRUE,,,,,,,,,,,,,,,,,,,,,,,,,,,
instruc_welcome,2,22349,0.0-2.0,"""event"",""trial"",""time""
""fullscreenenter"",""1"",""11553""
","
","
","""event"",""trial"",""time""
""fullscreenenter"",""1"",""11553""
","
",,null,run_exp/static/audio/clip_1_welcome.m4a,null,"<p>Howdy! In this experiment, you’ll be an explorer traveling through space to collect space treasure.</p><p>Your mission is to collect as much treasure as possible.</p><br><br><p><img src='run_exp/static/images/task_images/opening_img-01.jpg' height='300' width='auto'></p>",7932,3112,20.24,Female,,,,,,,,,,,,,,,,,,,
audio-keyboard-response,3,38948,0.0-3.0,"""event"",""trial"",""time""
""fullscreenenter"",""1"",""11553""
","
","
","""event"",""trial"",""time""
""fullscreenenter"",""1"",""11553""
","
",,null,run_exp/static/audio/clip_2_move.m4a,null,,,,,,,,,,,,,,,,,,,,,,,,
welcome_dec,4,45062,0.0-4.0,"""event"",""trial"",""time""
""fullscreenenter"",""1"",""11553""
","
","
","""event"",""trial"",""time""
""fullscreenenter"",""1"",""11553""
","
",,6106.8,"<p>Howdy! In this experiment, you’ll be an explorer traveling through space to collect space treasure.</p><p>Your mission is to collect as much treasure as possible.</p><br><br><p><img src='run_exp/static/images/task_images/opening_img-01.jpg' height='300' width='auto'></p>",,,,,,,1,,,,,,,,,,,,,,,,,,
html-keyboard-response,5,46120,0.0-5.0,"""event"",""trial"",""time""
""fullscreenenter"",""1"",""11553""
","
","
","""event"",""trial"",""time""
""fullscreenenter"",""1"",""11553""
","
",,1055.1,"<p>Howdy! In this experiment, you’ll be an explorer traveling through space to collect space treasure.</p><p>Your mission is to collect as much treasure as possible.</p><br><br><p><img src='run_exp/static/images/task_images/opening_img-01.jpg' height='300' width='auto'></p><button class=""jspsych-html-btn-unchosen""><img src=""run_exp/static/images/task_images/planet-01.jpg"" height=""50""></button><button class=""jspsych-html-btn-chosen""><img src=""run_exp/static/images/task_images/planet-02.jpg"" height=""50""></button><p><b>[press the space bar to lock in your answer]<b><br></p>",32,,,,,,,,,,,,,,,,,,,,,,,,
instruc_goal,6,56187,0.0-6.0-0.0,"""event"",""trial"",""time""
""fullscreenenter"",""1"",""11553""
","
","
","""event"",""trial"",""time""
""fullscreenenter"",""1"",""11553""
","
",,null,run_exp/static/audio/clip_3_goal.m4a,null,"<p> As a space explorer, you’ll visit different planets to dig for space treasure, these pink gems.</p> <p> The more treasure you dig up, the more bonus money you’ll win! </p><br><br><p><img src='run_exp/static/images/task_images/pink_gem.jpg' height='300' width='auto'></p>",,,,,,,,,,,,,,,,,,,,,,,
instruc_goal,7,59352,0.0-6.0-1.0,"""event"",""trial"",""time""
""fullscreenenter"",""1"",""11553""
","
","
","""event"",""trial"",""time""
""fullscreenenter"",""1"",""11553""
","
",,3159.9,"<p> As a space explorer, you’ll visit different planets to dig for space treasure, these pink gems.</p> <p> The more treasure you dig up, the more bonus money you’ll win! </p><br><br><p><img src='run_exp/static/images/task_images/pink_gem.jpg' height='300' width='auto'></p>",,,,,,,1,,,,,,,,,,,,,,,,,,
html-keyboard-response,8,59500,0.0-6.0-2.0,"""event"",""trial"",""time""
""fullscreenenter"",""1"",""11553""
","
","
","""event"",""trial"",""time""
""fullscreenenter"",""1"",""11553""
","
",,145.9,"<p> As a space explorer, you’ll visit different planets to dig for space treasure, these pink gems.</p> <p> The more treasure you dig up, the more bonus money you’ll win! </p><br><br><p><img src='run_exp/static/images/task_images/pink_gem.jpg' height='300' width='auto'></p><button class=""jspsych-html-btn-unchosen""><img src=""run_exp/static/images/task_images/planet-01.jpg"" height=""50""></button><button class=""jspsych-html-btn-chosen""><img src=""run_exp/static/images/task_images/planet-02.jpg"" height=""50""></button><p><b>[press the space bar to lock in your answer]<b><br></p>",32,,,,,,,,,,,,,,,,,,,,,,,,
instruc_dig,9,75532,0.0-7.0-0.0,"""event"",""trial"",""time""
""fullscreenenter"",""1"",""11553""
","
","
","""event"",""trial"",""time""
""fullscreenenter"",""1"",""11553""
","
",,null,run_exp/static/audio/clip_4_dig.m4a,null,,,,,,,100,,,,,,,,,,,,,,,,,
instruc_dig_try,10,76482,0.0-7.0-1.0,"""event"",""trial"",""time""
""fullscreenenter"",""1"",""11553""
","
","
","""event"",""trial"",""time""
""fullscreenenter"",""1"",""11553""
","
",,946.4,"<p> When you’ve arrived at a new planet, you will dig once. </p> <p>Then, you get to decide if you want to stay on the planet and dig again or travel to a new planet and dig there.</p> <p> To stay and dig, press the letter <strong>‘A’</strong> on your keyboard. Try pressing it now! </p><p><img src='run_exp/static/images/task_images/land.jpg'  height='700' width='auto'></p>",65,"<p> When you’ve arrived at a new planet, you will dig once. </p> <p>Then, you get to decide if you want to stay on the planet and dig again or travel to a new planet and dig there.</p> <p> To stay and dig, press the letter <strong>‘A’</strong> on your keyboard. Try pressing it now! </p><p><img src='run_exp/static/images/task_images/land.jpg'  height='700' width='auto'></p>",,,,,,100,,,,,,,,,,,,,,,,,
dig_prac,11,78498,0.0-7.0-2.0,"""event"",""trial"",""time""
""fullscreenenter"",""1"",""11553""
","
","
","""event"",""trial"",""time""
""fullscreenenter"",""1"",""11553""
","
",,,,,,,,,,,,"[{""stimulus"":""run_exp/static/images/task_images/dig.jpg"",""time"":0.5},{""stimulus"":""run_exp/static/images/task_images/land.jpg"",""time"":670.3000000119209},{""stimulus"":""run_exp/static/images/task_images/dig.jpg"",""time"":1338.2000000178814}]",[],,,,,,,,,,,,,,,
instruc_travel,12,114746,0.0-7.0-3.0,"""event"",""trial"",""time""
""fullscreenenter"",""1"",""11553""
","
","
","""event"",""trial"",""time""
""fullscreenenter"",""1"",""11553""
","
",,null,run_exp/static/audio/clip_5_travel.m4a,null,"<p>Every time you dig up gems, there are less gems on the planet, so the more you dig on a planet the fewer gems you’ll get with each dig.</p><p>When gems are running low, you may want to travel to a new planet. </p> <p>  Planets are very far apart in this galaxy, so it will take some time to travel between them. </p> <br><p>There are lots and lots of planets for you to visit, so you won’t be able to return to any planets you’ve seen before. </p><br><p>To leave this planet and travel to a new one, press the letter <strong>‘L’</strong> on your keyboard. Try pressing it now! </p><p><img src='run_exp/static/images/task_images/rocket-01.jpg'  height='600' width='auto'></p>",,,,,,,,,,,,,,,,,,,,,,,
instruc_travel_try,13,116395,0.0-7.0-4.0,"""event"",""trial"",""time""
""fullscreenenter"",""1"",""11553""
","
","
","""event"",""trial"",""time""
""fullscreenenter"",""1"",""11553""
","
",,1644.4,"<p>Every time you dig up gems, there are less gems on the planet, so the more you dig on a planet the fewer gems you’ll get with each dig.</p><p>When gems are running low, you may want to travel to a new planet. </p> <p>  Planets are very far apart in this galaxy, so it will take some time to travel between them. </p> <br><p>There are lots and lots of planets for you to visit, so you won’t be able to return to any planets you’ve seen before. </p><br><p>To leave this planet and travel to a new one, press the letter <strong>‘L’</strong> on your keyboard. Try pressing it now! </p><p><img src='run_exp/static/images/task_images/rocket-01.jpg'  height='600' width='auto'></p>",76,"<p>Every time you dig up gems, there are less gems on the planet, so the more you dig on a planet the fewer gems you’ll get with each dig.</p><p>When gems are running low, you may want to travel to a new planet. </p> <p>  Planets are very far apart in this galaxy, so it will take some time to travel between them. </p> <br><p>There are lots and lots of planets for you to visit, so you won’t be able to return to any planets you’ve seen before. </p><br><p>To leave this planet and travel to a new one, press the letter <strong>‘L’</strong> on your keyboard. Try pressing it now! </p><p><img src='run_exp/static/images/task_images/rocket-01.jpg'  height='600' width='auto'></p>",,,,,,,,,,,,,,,,,,,,,,,
travel_prac,14,126399,0.0-7.0-5.0,"""event"",""trial"",""time""
""fullscreenenter"",""1"",""11553""
","
","
","""event"",""trial"",""time""
""fullscreenenter"",""1"",""11553""
","
",,,,,,,,,,,,"[{""stimulus"":""run_exp/static/images/task_images/rocket-01.jpg"",""time"":0.19999998807907104},{""stimulus"":""run_exp/static/images/task_images/rocket-02.jpg"",""time"":1116.7999999821186},{""stimulus"":""run_exp/static/images/task_images/rocket-03.jpg"",""time"":2231.2999999821186},{""stimulus"":""run_exp/static/images/task_images/rocket-04.jpg"",""time"":3341.699999988079},{""stimulus"":""run_exp/static/images/task_images/rocket-05.jpg"",""time"":4453.199999988079},{""stimulus"":""run_exp/static/images/task_images/rocket-06.jpg"",""time"":5559},{""stimulus"":""run_exp/static/images/task_images/rocket-07.jpg"",""time"":6670.199999988079},{""stimulus"":""run_exp/static/images/task_images/rocket-08.jpg"",""time"":7781.799999982119},{""stimulus"":""run_exp/static/images/task_images/rocket-09.jpg"",""time"":8896.699999988079}]",[],0,,,,,,,,,,,,,,
instruc_alien_greet,15,153598,0.0-7.0-6.0,"""event"",""trial"",""time""
""fullscreenenter"",""1"",""11553""
","
","
","""event"",""trial"",""time""
""fullscreenenter"",""1"",""11553""
","
",,null,run_exp/static/audio/clip_6_alien.m4a,null,"<p>When you arrive at a new planet, the alien who owns the treasure mine on that planet will greet you!</p><p>The better an alien takes care of their mine the easier it is to dig for gems. Some aliens take better care of their mine than others. So, you won’t get exactly the same amount of gems on each planet.</p><p>What the alien looks like does not tell you anything about how many gems there are on the planet.</p><br><p><img src=""run_exp/static/images/task_images/aliens/instructions_aliens/planet/alien_planet-1.jpg""  height=""600"" width=""auto""></p>",,,,,,,,,,,,,,,,,,,,,,,
instruc_alien_greet,16,155608,0.0-7.0-7.0,"""event"",""trial"",""time""
""fullscreenenter"",""1"",""11553""
","
","
","""event"",""trial"",""time""
""fullscreenenter"",""1"",""11553""
","
",,2006,"<p>When you arrive at a new planet, the alien who owns the treasure mine on that planet will greet you!</p><p>The better an alien takes care of their mine the easier it is to dig for gems. Some aliens take better care of their mine than others. So, you won’t get exactly the same amount of gems on each planet.</p><p>What the alien looks like does not tell you anything about how many gems there are on the planet.</p><br><p><img src=""run_exp/static/images/task_images/aliens/instructions_aliens/planet/alien_planet-1.jpg""  height=""600"" width=""auto""></p>",,,,,,,1,,,,,,,,,,,,,,,,,,
html-keyboard-response,17,156261,0.0-7.0-8.0,"""event"",""trial"",""time""
""fullscreenenter"",""1"",""11553""
","
","
","""event"",""trial"",""time""
""fullscreenenter"",""1"",""11553""
","
",,651.1,"<p>When you arrive at a new planet, the alien who owns the treasure mine on that planet will greet you!</p><p>The better an alien takes care of their mine the easier it is to dig for gems. Some aliens take better care of their mine than others. So, you won’t get exactly the same amount of gems on each planet.</p><p>What the alien looks like does not tell you anything about how many gems there are on the planet.</p><br><p><img src=""run_exp/static/images/task_images/aliens/instructions_aliens/planet/alien_planet-1.jpg""  height=""600"" width=""auto""></p><button class=""jspsych-html-btn-unchosen""><img src=""run_exp/static/images/task_images/planet-01.jpg"" height=""50""></button><button class=""jspsych-html-btn-chosen""><img src=""run_exp/static/images/task_images/planet-02.jpg"" height=""50""></button><p><b>[press the space bar to lock in your answer]<b><br></p>",32,,,,,,,,,,,,,,,,,,,,,,,,
time_out,18,167373,0.0-8.0-0.0,"""event"",""trial"",""time""
""fullscreenenter"",""1"",""11553""
","
","
","""event"",""trial"",""time""
""fullscreenenter"",""1"",""11553""
","
",,null,run_exp/static/audio/clip_7_timeout.m4a,null,"<p>If you don't make your choice fast enough, you’ll have to wait a few seconds before you can make another one.</p><p>You can’t dig for more gems or travel to new planets. You just have to sit and wait.</p><br><p><img src='run_exp/static/images/task_images/time_out.jpg'  height='600' width='auto'></p>",,,,,,,,,,,,,,,,,,,,,,,
time_out,19,175358,0.0-8.0-1.0,"""event"",""trial"",""time""
""fullscreenenter"",""1"",""11553""
","
","
","""event"",""trial"",""time""
""fullscreenenter"",""1"",""11553""
","
",,7974.4,"<p>If you don't make your choice fast enough, you’ll have to wait a few seconds before you can make another one.</p><p>You can’t dig for more gems or travel to new planets. You just have to sit and wait.</p><br><p><img src='run_exp/static/images/task_images/time_out.jpg'  height='600' width='auto'></p>",,,,,,,1,,,,,,,,,,,,,,,,,,
html-keyboard-response,20,175880,0.0-8.0-2.0,"""event"",""trial"",""time""
""fullscreenenter"",""1"",""11553""
","
","
","""event"",""trial"",""time""
""fullscreenenter"",""1"",""11553""
","
",,519.5,"<p>If you don't make your choice fast enough, you’ll have to wait a few seconds before you can make another one.</p><p>You can’t dig for more gems or travel to new planets. You just have to sit and wait.</p><br><p><img src='run_exp/static/images/task_images/time_out.jpg'  height='600' width='auto'></p><button class=""jspsych-html-btn-unchosen""><img src=""run_exp/static/images/task_images/planet-01.jpg"" height=""50""></button><button class=""jspsych-html-btn-chosen""><img src=""run_exp/static/images/task_images/planet-02.jpg"" height=""50""></button><p><b>[press the space bar to lock in your answer]<b><br></p>",32,,,,,,,,,,,,,,,,,,,,,,,,
instruc_break,21,191559,0.0-9.0-0.0,"""event"",""trial"",""time""
""fullscreenenter"",""1"",""11553""
","
","
","""event"",""trial"",""time""
""fullscreenenter"",""1"",""11553""
","
",,null,run_exp/static/audio/clip_8_break.m4a,null,"<p> After digging and traveling for a while, you’ll be able to take a break at home base. </p><p>The game will last 20 minutes no matter what.</p><p>You will visit home base every 5 minutes, so, you will visit home base three times during the game.</p><br><p><img src='run_exp/static/images/task_images/home_base.jpg' height='600' width='auto'></p>",,,,,,,,,,,,,,,,,,,,,,,
instruc_break,22,203270,0.0-9.0-1.0,"""event"",""trial"",""time""
""fullscreenenter"",""1"",""11553""
","
","
","""event"",""trial"",""time""
""fullscreenenter"",""1"",""11553""
","
",,11706.5,"<p> After digging and traveling for a while, you’ll be able to take a break at home base. </p><p>The game will last 20 minutes no matter what.</p><p>You will visit home base every 5 minutes, so, you will visit home base three times during the game.</p><br><p><img src='run_exp/static/images/task_images/home_base.jpg' height='600' width='auto'></p>",,,,,,,1,,,,,,,,,,,,,,,,,,
html-keyboard-response,23,206111,0.0-9.0-2.0,"""event"",""trial"",""time""
""fullscreenenter"",""1"",""11553""
","
","
","""event"",""trial"",""time""
""fullscreenenter"",""1"",""11553""
","
",,2838.1,"<p> After digging and traveling for a while, you’ll be able to take a break at home base. </p><p>The game will last 20 minutes no matter what.</p><p>You will visit home base every 5 minutes, so, you will visit home base three times during the game.</p><br><p><img src='run_exp/static/images/task_images/home_base.jpg' height='600' width='auto'></p><button class=""jspsych-html-btn-unchosen""><img src=""run_exp/static/images/task_images/planet-01.jpg"" height=""50""></button><button class=""jspsych-html-btn-chosen""><img src=""run_exp/static/images/task_images/planet-02.jpg"" height=""50""></button><p><b>[press the space bar to lock in your answer]<b><br></p>",32,,,,,,,,,,,,,,,,,,,,,,,,
instruc_prac_game,24,216230,0.0-10.0-0.0,"""event"",""trial"",""time""
""fullscreenenter"",""1"",""11553""
","
","
","""event"",""trial"",""time""
""fullscreenenter"",""1"",""11553""
","
",,null,run_exp/static/audio/clip_9_practice.m4a,null,"<p> Are you ready to play a practice game? </p> <p>In this practice game, you'll be digging up barrels of gems. But, in the real game, you'll be digging up the gems themselves. </p>",,,,,,,,,,,,,,,,,,,,,,,
html-button-response,25,226790,0.0-10.0-1.0,"""event"",""trial"",""time""
""fullscreenenter"",""1"",""11553""
","
","
","""event"",""trial"",""time""
""fullscreenenter"",""1"",""11553""
","
",,10557.3,"<p> Are you ready to play a practice game? </p> <p>In this practice game, you'll be digging up barrels of gems. But, in the real game, you'll be digging up the gems themselves. </p>",,,,,,,0,,,,,,,,,,,,,,,,,,
alien_welcome_prac,26,231800,0.0-11.0-0.0,"""event"",""trial"",""time""
""fullscreenenter"",""1"",""11553""
","
","
","""event"",""trial"",""time""
""fullscreenenter"",""1"",""11553""
","
",,null,run_exp/static/images/task_images/aliens/practice_aliens/planet/alien_planet-5.jpg,null,,,,,,,,,,,,,,,,,,,,,,,,
land_prac,27,232306,0.0-11.0-1.0,"""event"",""trial"",""time""
""fullscreenenter"",""1"",""11553""
","
","
","""event"",""trial"",""time""
""fullscreenenter"",""1"",""11553""
","
",,null,run_exp/static/images/task_images/land.jpg,null,,,,,,,98,,,0,,,,,,,,,,,,,,
dig_prac,28,234316,0.0-11.0-2.0,"""event"",""trial"",""time""
""fullscreenenter"",""1"",""11553""
","
","
","""event"",""trial"",""time""
""fullscreenenter"",""1"",""11553""
","
",,,,,,,,,,,,"[{""stimulus"":""run_exp/static/images/task_images/dig.jpg"",""time"":0.4000000059604645},{""stimulus"":""run_exp/static/images/task_images/land.jpg"",""time"":673.1999999880791},{""stimulus"":""run_exp/static/images/task_images/dig.jpg"",""time"":1335.5}]",[],,,,,,,,,,,,,,,
harvest_prac,29,235323,0.0-11.0-3.0,"""event"",""trial"",""time""
""fullscreenenter"",""1"",""11553""
","
","
","""event"",""trial"",""time""
""fullscreenenter"",""1"",""11553""
","
",,null,run_exp/static/images/task_images/barrel_text.jpg,null,,,,,,,,,,,,,,,,,,,,,,,,
decision_prac,30,237486,0.0-11.0-4.0,"""event"",""trial"",""time""
""fullscreenenter"",""1"",""11553""
","
","
","""event"",""trial"",""time""
""fullscreenenter"",""1"",""11553""
","
",,2160.3,run_exp/static/images/task_images/land.jpg,65,,,,,,,,,,,1,,,,,,,,,,,,,
dig_prac,31,239496,0.0-12.0-0.0,"""event"",""trial"",""time""
""fullscreenenter"",""1"",""11553""
","
","
","""event"",""trial"",""time""
""fullscreenenter"",""1"",""11553""
","
",,,,,,,,,,,,"[{""stimulus"":""run_exp/static/images/task_images/dig.jpg"",""time"":0.3999999761581421},{""stimulus"":""run_exp/static/images/task_images/land.jpg"",""time"":670.5},{""stimulus"":""run_exp/static/images/task_images/dig.jpg"",""time"":1338.2999999821186}]",[],,,,,,,,,,,,,,,
harvest_prac,32,240501,0.0-12.0-1.0,"""event"",""trial"",""time""
""fullscreenenter"",""1"",""11553""
","
","
","""event"",""trial"",""time""
""fullscreenenter"",""1"",""11553""
","
",,null,run_exp/static/images/task_images/barrel_text.jpg,null,,,,,,,,,,,,,,,,,,,,,,,,
decision_prac,33,241600,0.0-12.0-2.0,"""event"",""trial"",""time""
""fullscreenenter"",""1"",""11553""
","
","
","""event"",""trial"",""time""
""fullscreenenter"",""1"",""11553""
","
",,1097.4,run_exp/static/images/task_images/land.jpg,65,,,,,,,,,,,2,,,,,,,,,,,,,
dig_prac,34,243618,0.0-13.0-0.0,"""event"",""trial"",""time""
""fullscreenenter"",""1"",""11553""
","
","
","""event"",""trial"",""time""
""fullscreenenter"",""1"",""11553""
","
",,,,,,,,,,,,"[{""stimulus"":""run_exp/static/images/task_images/dig.jpg"",""time"":0.5},{""stimulus"":""run_exp/static/images/task_images/land.jpg"",""time"":672.6999999880791},{""stimulus"":""run_exp/static/images/task_images/dig.jpg"",""time"":1338.5}]",[],,,,,,,,,,,,,,,
harvest_prac,35,244629,0.0-13.0-1.0,"""event"",""trial"",""time""
""fullscreenenter"",""1"",""11553""
","
","
","""event"",""trial"",""time""
""fullscreenenter"",""1"",""11553""
","
",,null,run_exp/static/images/task_images/barrel_text.jpg,null,,,,,,,,,,,,,,,,,,,,,,,,
decision_prac,36,246022,0.0-13.0-2.0,"""event"",""trial"",""time""
""fullscreenenter"",""1"",""11553""
","
","
","""event"",""trial"",""time""
""fullscreenenter"",""1"",""11553""
","
",,1392,run_exp/static/images/task_images/land.jpg,65,,,,,,,,,,,3,,,,,,,,,,,,,
dig_prac,37,248030,0.0-14.0-0.0,"""event"",""trial"",""time""
""fullscreenenter"",""1"",""11553""
","
","
","""event"",""trial"",""time""
""fullscreenenter"",""1"",""11553""
","
",,,,,,,,,,,,"[{""stimulus"":""run_exp/static/images/task_images/dig.jpg"",""time"":0.29999998211860657},{""stimulus"":""run_exp/static/images/task_images/land.jpg"",""time"":674.2999999821186},{""stimulus"":""run_exp/static/images/task_images/dig.jpg"",""time"":1336.7999999821186}]",[],,,,,,,,,,,,,,,
harvest_prac,38,249038,0.0-14.0-1.0,"""event"",""trial"",""time""
""fullscreenenter"",""1"",""11553""
","
","
","""event"",""trial"",""time""
""fullscreenenter"",""1"",""11553""
","
",,null,run_exp/static/images/task_images/barrel_text.jpg,null,,,,,,,,,,,,,,,,,,,,,,,,
decision_prac,39,250325,0.0-14.0-2.0,"""event"",""trial"",""time""
""fullscreenenter"",""1"",""11553""
","
","
","""event"",""trial"",""time""
""fullscreenenter"",""1"",""11553""
","
",,1284.5,run_exp/static/images/task_images/land.jpg,65,,,,,,,,,,,4,,,,,,,,,,,,,
dig_prac,40,252336,0.0-15.0-0.0,"""event"",""trial"",""time""
""fullscreenenter"",""1"",""11553""
","
","
","""event"",""trial"",""time""
""fullscreenenter"",""1"",""11553""
","
",,,,,,,,,,,,"[{""stimulus"":""run_exp/static/images/task_images/dig.jpg"",""time"":0.4000000059604645},{""stimulus"":""run_exp/static/images/task_images/land.jpg"",""time"":675.3000000119209},{""stimulus"":""run_exp/static/images/task_images/dig.jpg"",""time"":1339.800000011921}]",[],,,,,,,,,,,,,,,
harvest_prac,41,253344,0.0-15.0-1.0,"""event"",""trial"",""time""
""fullscreenenter"",""1"",""11553""
","
","
","""event"",""trial"",""time""
""fullscreenenter"",""1"",""11553""
","
",,null,run_exp/static/images/task_images/barrel_text.jpg,null,,,,,,,,,,,,,,,,,,,,,,,,
decision_prac,42,254229,0.0-15.0-2.0,"""event"",""trial"",""time""
""fullscreenenter"",""1"",""11553""
","
","
","""event"",""trial"",""time""
""fullscreenenter"",""1"",""11553""
","
",,882.6,run_exp/static/images/task_images/land.jpg,65,,,,,,,,,,,,1,,,,,,,,,,,,
quiz_instruc,43,280837,0.0-16.0-0.0,"""event"",""trial"",""time""
""fullscreenenter"",""1"",""11553""
","
","
","""event"",""trial"",""time""
""fullscreenenter"",""1"",""11553""
","
",,26603.2,run_exp/static/audio/clip_10_quiz.m4a,,,,,,,0,,,,,,,,,,,,,,,,,,
instruc_repeat,44,323699,0.0-16.0-1.0,"""event"",""trial"",""time""
""fullscreenenter"",""1"",""11553""
","
","
","""event"",""trial"",""time""
""fullscreenenter"",""1"",""11553""
","
",,null,"<p> Are you ready to play a practice game? </p> <p>In this practice game, you'll be digging up barrels of gems. But, in the real game, you'll be digging up the gems themselves. </p>",null,"<p>In this game, your goal is to collect as many gems as you can. That’s how you will win bonus money. </p> <p>The entire game will last 20 minutes no matter how many gems you collect or how many planets you visit. </p><p>To stay on a planet and dig again, press the letter A on your keyboard. To leave for a new planet, press the letter L.</p><p>The more you dig on a planet, the fewer gems you’ll get with each dig which is why you might consider leaving for a new planet. </p><p>When you arrive at a new planet, you’ll be greeted by an alien. What the alien looks like does not tell you anything about how much treasure is on the planet. </p>",,,,,,,,,,,,,,,,,,,,,,,
instruc_repeat_continue,45,325127,0.0-16.0-2.0,"""event"",""trial"",""time""
""fullscreenenter"",""1"",""11553""
","
","
","""event"",""trial"",""time""
""fullscreenenter"",""1"",""11553""
","
",,1424.6,"<p> Are you ready to play a practice game? </p> <p>In this practice game, you'll be digging up barrels of gems. But, in the real game, you'll be digging up the gems themselves. </p>",,,,,,,0,,,,,,,,,,,,,,,,,,
quiz_q_1_ask,46,330304,0.0-16.0-3.0,"""event"",""trial"",""time""
""fullscreenenter"",""1"",""11553""
","
","
","""event"",""trial"",""time""
""fullscreenenter"",""1"",""11553""
","
",,5175.2,run_exp/static/audio/clip_11_q1_ask.m4a,,,,,,,2,,,,,,,,,,,,,,,,,,
quiz_q_1_fb_correct,47,334157,0.0-17.0-0.0,"""event"",""trial"",""time""
""fullscreenenter"",""1"",""11553""
","
","
","""event"",""trial"",""time""
""fullscreenenter"",""1"",""11553""
","
",,null,run_exp/static/audio/clip_12_q1_correct.m4a,null,<p>That’s correct. You win extra money by collecting more gems.</p>,,,,,,,,,,,,,,,,,,,,,,,
quiz_q_2_ask,48,361289,0.0-17.0-1.0,"""event"",""trial"",""time""
""fullscreenenter"",""1"",""11553""
","
","
","""event"",""trial"",""time""
""fullscreenenter"",""1"",""11553""
","
",,27128.5,run_exp/static/audio/clip_14_q2_ask.m4a,,,,,,,0,,,,,,,,,,,,,,,,,,
quiz_q_2_fb_incorrect,49,365477,0.0-18.0-0.0,"""event"",""trial"",""time""
""fullscreenenter"",""1"",""11553""
","
","
","""event"",""trial"",""time""
""fullscreenenter"",""1"",""11553""
","
",,null,run_exp/static/audio/clip_16_q2_incorrect.m4a,null,<p>That’s incorrect. The experiment is 20 minutes no matter what.</p>,,,,,,,,,,,,,,,,,,,,,,,
quiz_q_3_ask,50,368126,0.0-18.0-1.0,"""event"",""trial"",""time""
""fullscreenenter"",""1"",""11553""
","
","
","""event"",""trial"",""time""
""fullscreenenter"",""1"",""11553""
","
",,2646,run_exp/static/audio/clip_17_q3_ask.m4a,,,,,,,1,,,,,,,,,,,,,,,,,,
quiz_q_3_fb_correct,51,372117,0.0-19.0-0.0,"""event"",""trial"",""time""
""fullscreenenter"",""1"",""11553""
","
","
","""event"",""trial"",""time""
""fullscreenenter"",""1"",""11553""
","
",,null,run_exp/static/audio/clip_18_q3_correct.m4a,null,<p> That’s correct. You press the letter L to travel to a new planet.</p>,,,,,,,,,,,,,,,,,,,,,,,
quiz_q_4_ask,52,381020,0.0-19.0-1.0,"""event"",""trial"",""time""
""fullscreenenter"",""1"",""11553""
","
","
","""event"",""trial"",""time""
""fullscreenenter"",""1"",""11553""
","
",,8896,run_exp/static/audio/clip_20_q4_ask.m4a,,,,,,,0,,,,,,,,,,,,,,,,,,
quiz_q_4_fb_correct,53,386345,0.0-20.0-0.0,"""event"",""trial"",""time""
""fullscreenenter"",""1"",""11553""
","
","
","""event"",""trial"",""time""
""fullscreenenter"",""1"",""11553""
","
",,null,run_exp/static/audio/clip_21_q4_correct.m4a,null,<p> That’s correct. The more you dig on a planet the fewer gems you’ll get with each dig. </p>,,,,,,,,,,,,,,,,,,,,,,,
quiz_q_5_ask,54,399718,0.0-20.0-1.0,"""event"",""trial"",""time""
""fullscreenenter"",""1"",""11553""
","
","
","""event"",""trial"",""time""
""fullscreenenter"",""1"",""11553""
","
",,13368.1,run_exp/static/audio/clip_23_q5_ask.m4a,,,,,,,1,,,,,,,,,,,,,,,,,,
quiz_q_5_fb_correct,55,404720,0.0-21.0-0.0,"""event"",""trial"",""time""
""fullscreenenter"",""1"",""11553""
","
","
","""event"",""trial"",""time""
""fullscreenenter"",""1"",""11553""
","
",,null,run_exp/static/audio/clip_24_q5_correct.m4a,null,<p> That’s correct. The alien tells you nothing about how much treasure is on the planet.</p>,,,,,,,,,,,,,,,,,,,,,,,
quiz_incorrect,56,410285,0.0-22.0-0.0,"""event"",""trial"",""time""
""fullscreenenter"",""1"",""11553""
","
","
","""event"",""trial"",""time""
""fullscreenenter"",""1"",""11553""
","
",,null,run_exp/static/audio/clip_27_incorrect_quiz.m4a,null,,,,,,,,,,,,,,,,,,,,,,,,
quiz_incorrect_continue,57,413340,0.0-22.0-1.0,"""event"",""trial"",""time""
""fullscreenenter"",""1"",""11553""
","
","
","""event"",""trial"",""time""
""fullscreenenter"",""1"",""11553""
","
",,3052.6,"<p>Oops, you missed some questions.</p><p>Now that you’ve heard the correct answers. Try the quiz again!</p>",,,,,,,0,,,,,,,,,,,,,,,,,,
quiz_q_1_ask,58,420320,0.0-22.0-2.0,"""event"",""trial"",""time""
""fullscreenenter"",""1"",""11553""
","
","
","""event"",""trial"",""time""
""fullscreenenter"",""1"",""11553""
","
",,6977.3,run_exp/static/audio/clip_11_q1_ask.m4a,,,,,,,2,,,,,,,,,,,,,,,,,,
quiz_q_1_fb_correct,59,424180,0.0-23.0-0.0,"""event"",""trial"",""time""
""fullscreenenter"",""1"",""11553""
","
","
","""event"",""trial"",""time""
""fullscreenenter"",""1"",""11553""
","
",,null,run_exp/static/audio/clip_12_q1_correct.m4a,null,<p>That’s correct. You win extra money by collecting more gems.</p>,,,,,,,,,,,,,,,,,,,,,,,
quiz_q_2_ask,60,425916,0.0-23.0-1.0,"""event"",""trial"",""time""
""fullscreenenter"",""1"",""11553""
","
","
","""event"",""trial"",""time""
""fullscreenenter"",""1"",""11553""
","
",,1732.6,run_exp/static/audio/clip_14_q2_ask.m4a,,,,,,,1,,,,,,,,,,,,,,,,,,
quiz_q_2_fb_correct,61,429940,0.0-24.0-0.0,"""event"",""trial"",""time""
""fullscreenenter"",""1"",""11553""
","
","
","""event"",""trial"",""time""
""fullscreenenter"",""1"",""11553""
","
",,null,run_exp/static/audio/clip_15_q2_correct.m4a,null,<p>That’s correct. The experiment is 20 minutes no matter what.</p>,,,,,,,,,,,,,,,,,,,,,,,
quiz_q_3_ask,62,432260,0.0-24.0-1.0,"""event"",""trial"",""time""
""fullscreenenter"",""1"",""11553""
","
","
","""event"",""trial"",""time""
""fullscreenenter"",""1"",""11553""
","
",,2316.1,run_exp/static/audio/clip_17_q3_ask.m4a,,,,,,,1,,,,,,,,,,,,,,,,,,
quiz_q_3_fb_correct,63,436261,0.0-25.0-0.0,"""event"",""trial"",""time""
""fullscreenenter"",""1"",""11553""
","
","
","""event"",""trial"",""time""
""fullscreenenter"",""1"",""11553""
","
",,null,run_exp/static/audio/clip_18_q3_correct.m4a,null,<p> That’s correct. You press the letter L to travel to a new planet.</p>,,,,,,,,,,,,,,,,,,,,,,,
quiz_q_4_ask,64,442900,0.0-25.0-1.0,"""event"",""trial"",""time""
""fullscreenenter"",""1"",""11553""
","
","
","""event"",""trial"",""time""
""fullscreenenter"",""1"",""11553""
","
",,6639.5,run_exp/static/audio/clip_20_q4_ask.m4a,,,,,,,0,,,,,,,,,,,,,,,,,,
quiz_q_4_fb_correct,65,448238,0.0-26.0-0.0,"""event"",""trial"",""time""
""fullscreenenter"",""1"",""11553""
","
","
","""event"",""trial"",""time""
""fullscreenenter"",""1"",""11553""
","
",,null,run_exp/static/audio/clip_21_q4_correct.m4a,null,<p> That’s correct. The more you dig on a planet the fewer gems you’ll get with each dig. </p>,,,,,,,,,,,,,,,,,,,,,,,
quiz_q_5_ask,66,451417,0.0-26.0-1.0,"""event"",""trial"",""time""
""fullscreenenter"",""1"",""11553""
","
","
","""event"",""trial"",""time""
""fullscreenenter"",""1"",""11553""
","
",,3176.2,run_exp/static/audio/clip_23_q5_ask.m4a,,,,,,,1,,,,,,,,,,,,,,,,,,
quiz_q_5_fb_correct,67,456438,0.0-27.0-0.0,"""event"",""trial"",""time""
""fullscreenenter"",""1"",""11553""
","
","
","""event"",""trial"",""time""
""fullscreenenter"",""1"",""11553""
","
",,null,run_exp/static/audio/clip_24_q5_correct.m4a,null,<p> That’s correct. The alien tells you nothing about how much treasure is on the planet.</p>,,,,,,,,,,,,,,,,,,,,,,,
quiz_correct,68,459918,0.0-28.0-0.0,"""event"",""trial"",""time""
""fullscreenenter"",""1"",""11553""
","
","
","""event"",""trial"",""time""
""fullscreenenter"",""1"",""11553""
","
",,null,run_exp/static/audio/clip_26_correct_quiz.m4a,null,,,,,,,,,,,,,,,,,,,,,,,,
quiz_correct_continue,69,463099,0.0-28.0-1.0,"""event"",""trial"",""time""
""fullscreenenter"",""1"",""11553""
","
","
","""event"",""trial"",""time""
""fullscreenenter"",""1"",""11553""
","
",,3178.4,<p>Good job! You're now ready to move on to the real game!</p>,,,,,,,0,,,,,,,,,,,,,,,,,,
audio-keyboard-response,70,473238,0.0-28.0-2.0,"""event"",""trial"",""time""
""fullscreenenter"",""1"",""11553""
","
","
","""event"",""trial"",""time""
""fullscreenenter"",""1"",""11553""
","
",,null,run_exp/static/audio/clip_28_real_game.m4a,null,,,,,,,,,,,,,,,,,,,,,,,,
instruc_begin_exp_contine,71,475299,0.0-28.0-3.0,"""event"",""trial"",""time""
""fullscreenenter"",""1"",""11553""
","
","
","""event"",""trial"",""time""
""fullscreenenter"",""1"",""11553""
","
",,2057.7,"<p>Now that you know how  to dig for space treasure and travel to new planets,you can start exploring! </p><p>Do you want to go over the instructions again or get started with the real game?</p>",,,,,,,1,,,,,,1,,,,,,,,,,,,
alien_welcome,72,480307,0.0-29.0-0.0,"""event"",""trial"",""time""
""fullscreenenter"",""1"",""11553""
","
","
","""event"",""trial"",""time""
""fullscreenenter"",""1"",""11553""
","
",,null,run_exp/static/images/task_images/aliens/old_aliens/planet/alien_planet-13.jpg,null,,,,,,,,,,,,,13,"13,43,42,36,46,75,4,9,21,55,47,56,71,34,32,78,5,52,68,20,37,66,15,3,24,7,57,63,77,74,40,26,1,25,50,45,17,64,72,12",,,,,,,,,,
land,73,480826,0.0-29.0-1.0,"""event"",""trial"",""time""
""fullscreenenter"",""1"",""11553""
","
","
","""event"",""trial"",""time""
""fullscreenenter"",""1"",""11553""
","
",,null,run_exp/static/images/task_images/land.jpg,null,,,,,,,92,,,1,,,,,,,,,,,,,,
dig,74,482847,0.0-29.0-2.0,"""event"",""trial"",""time""
""fullscreenenter"",""1"",""11553""
","
","
","""event"",""trial"",""time""
""fullscreenenter"",""1"",""11553""
","
",,,,,,,,,,,,"[{""stimulus"":""run_exp/static/images/task_images/dig.jpg"",""time"":0.5999999940395355},{""stimulus"":""run_exp/static/images/task_images/land.jpg"",""time"":672.5999999940395},{""stimulus"":""run_exp/static/images/task_images/dig.jpg"",""time"":1343.699999988079}]",[],1,,,,,,,,,,,,,,
harvest,75,483851,0.0-29.0-3.0,"""event"",""trial"",""time""
""fullscreenenter"",""1"",""11553""
","
","
","""event"",""trial"",""time""
""fullscreenenter"",""1"",""11553""
","
",,null,run_exp/static/images/task_images/gems/92.jpg,null,,,,,,,26,,,1,,,,,92,0.285825579,0.282608696,,,,,,,
decision,76,484738,0.0-29.0-4.0,"""event"",""trial"",""time""
""fullscreenenter"",""1"",""11553""
","
","
","""event"",""trial"",""time""
""fullscreenenter"",""1"",""11553""
","
",,885,run_exp/static/images/task_images/land.jpg,65,,,,,,,26,,,1,,,,,,,,9436,1,0,FALSE,,,
dig,77,486862,0.0-30.0-0.0,"""event"",""trial"",""time""
""fullscreenenter"",""1"",""11553""
","
","
","""event"",""trial"",""time""
""fullscreenenter"",""1"",""11553""
","
",,,,,,,,,,,,"[{""stimulus"":""run_exp/static/images/task_images/dig.jpg"",""time"":0.4000000059604645},{""stimulus"":""run_exp/static/images/task_images/land.jpg"",""time"":721.6999999880791},{""stimulus"":""run_exp/static/images/task_images/dig.jpg"",""time"":1413.7999999821186}]",[],1,,,,,,,,,,,,,,
harvest,78,487873,0.0-30.0-1.0,"""event"",""trial"",""time""
""fullscreenenter"",""1"",""11553""
","
","
","""event"",""trial"",""time""
""fullscreenenter"",""1"",""11553""
","
",,null,run_exp/static/images/task_images/gems/26.jpg,null,,,,,,,6,,,1,,,,,26,0.232430625,0.230769231,,,,,,,
decision,79,488865,0.0-30.0-2.0,"""event"",""trial"",""time""
""fullscreenenter"",""1"",""11553""
","
","
","""event"",""trial"",""time""
""fullscreenenter"",""1"",""11553""
","
",,990,run_exp/static/images/task_images/land.jpg,65,,,,,,,6,,,1,,,,,,,,13562,1,1,FALSE,,,
dig,80,490884,0.0-31.0-0.0,"""event"",""trial"",""time""
""fullscreenenter"",""1"",""11553""
","
","
","""event"",""trial"",""time""
""fullscreenenter"",""1"",""11553""
","
",,,,,,,,,,,,"[{""stimulus"":""run_exp/static/images/task_images/dig.jpg"",""time"":0.4000000059604645},{""stimulus"":""run_exp/static/images/task_images/land.jpg"",""time"":674.7000000178814},{""stimulus"":""run_exp/static/images/task_images/dig.jpg"",""time"":1354.9000000059605}]",[],1,,,,,,,,,,,,,,
harvest,81,491899,0.0-31.0-1.0,"""event"",""trial"",""time""
""fullscreenenter"",""1"",""11553""
","
","
","""event"",""trial"",""time""
""fullscreenenter"",""1"",""11553""
","
",,null,run_exp/static/images/task_images/gems/6.jpg,null,,,,,,,2,,,1,,,,,6,0.264527077,0.333333333,,,,,,,
decision,82,492738,0.0-31.0-2.0,"""event"",""trial"",""time""
""fullscreenenter"",""1"",""11553""
","
","
","""event"",""trial"",""time""
""fullscreenenter"",""1"",""11553""
","
",,837,run_exp/static/images/task_images/land.jpg,76,,,,,,,2,,,1,,,,,,,,17436,1,2,TRUE,,,
travel,83,501917,0.0-32.0-0.0,"""event"",""trial"",""time""
""fullscreenenter"",""1"",""11553""
","
","
","""event"",""trial"",""time""
""fullscreenenter"",""1"",""11553""
","
",,,,,,,,,,,,"[{""stimulus"":""run_exp/static/images/task_images/rocket-01.jpg"",""time"":0.30000001192092896},{""stimulus"":""run_exp/static/images/task_images/rocket-02.jpg"",""time"":1023.3000000119209},{""stimulus"":""run_exp/static/images/task_images/rocket-03.jpg"",""time"":2038.9000000059605},{""stimulus"":""run_exp/static/images/task_images/rocket-04.jpg"",""time"":3057.9000000059605},{""stimulus"":""run_exp/static/images/task_images/rocket-05.jpg"",""time"":4081.0999999940395},{""stimulus"":""run_exp/static/images/task_images/rocket-06.jpg"",""time"":5097.0999999940395},{""stimulus"":""run_exp/static/images/task_images/rocket-07.jpg"",""time"":6117.9000000059605},{""stimulus"":""run_exp/static/images/task_images/rocket-08.jpg"",""time"":7136.4000000059605},{""stimulus"":""run_exp/static/images/task_images/rocket-09.jpg"",""time"":8153.4000000059605}]",[],1,,,,,,,,,,,,,,
alien_welcome,84,506929,0.0-32.0-1.0,"""event"",""trial"",""time""
""fullscreenenter"",""1"",""11553""
","
","
","""event"",""trial"",""time""
""fullscreenenter"",""1"",""11553""
","
",,null,run_exp/static/images/task_images/aliens/old_aliens/planet/alien_planet-43.jpg,null,,,,,,,,,,,,,43,"13,43,42,36,46,75,4,9,21,55,47,56,71,34,32,78,5,52,68,20,37,66,15,3,24,7,57,63,77,74,40,26,1,25,50,45,17,64,72,12",,,,,,,,,,
land,85,507435,0.0-32.0-2.0,"""event"",""trial"",""time""
""fullscreenenter"",""1"",""11553""
","
","
","""event"",""trial"",""time""
""fullscreenenter"",""1"",""11553""
","
",,null,run_exp/static/images/task_images/land.jpg,null,,,,,,,96,,,2,,,,,,,,,,,,,,
dig,86,509441,0.0-32.0-3.0,"""event"",""trial"",""time""
""fullscreenenter"",""1"",""11553""
","
","
","""event"",""trial"",""time""
""fullscreenenter"",""1"",""11553""
","
",,,,,,,,,,,,"[{""stimulus"":""run_exp/static/images/task_images/dig.jpg"",""time"":0.3999999761581421},{""stimulus"":""run_exp/static/images/task_images/land.jpg"",""time"":673.6999999880791},{""stimulus"":""run_exp/static/images/task_images/dig.jpg"",""time"":1336.199999988079}]",[],2,,,,,,,,,,,,,,
harvest,87,510445,0.0-32.0-4.0,"""event"",""trial"",""time""
""fullscreenenter"",""1"",""11553""
","
","
","""event"",""trial"",""time""
""fullscreenenter"",""1"",""11553""
","
",,null,run_exp/static/images/task_images/gems/96.jpg,null,,,,,,,16,,,2,,,,,96,0.163180793,0.166666667,,,,,,,
decision,88,511022,0.0-32.0-5.0,"""event"",""trial"",""time""
""fullscreenenter"",""1"",""11553""
","
","
","""event"",""trial"",""time""
""fullscreenenter"",""1"",""11553""
","
",,574.6,run_exp/static/images/task_images/land.jpg,65,,,,,,,16,,,2,,,,,,,,35719,1,0,FALSE,,,
dig,89,513455,0.0-33.0-0.0,"""event"",""trial"",""time""
""fullscreenenter"",""1"",""11553""
","
","
","""event"",""trial"",""time""
""fullscreenenter"",""1"",""11553""
","
",,,,,,,,,,,,"[{""stimulus"":""run_exp/static/images/task_images/dig.jpg"",""time"":0.4000000059604645},{""stimulus"":""run_exp/static/images/task_images/land.jpg"",""time"":817.2000000178814},{""stimulus"":""run_exp/static/images/task_images/dig.jpg"",""time"":1618.5999999940395}]",[],2,,,,,,,,,,,,,,
harvest,90,514460,0.0-33.0-1.0,"""event"",""trial"",""time""
""fullscreenenter"",""1"",""11553""
","
","
","""event"",""trial"",""time""
""fullscreenenter"",""1"",""11553""
","
",,null,run_exp/static/images/task_images/gems/16.jpg,null,,,,,,,4,,,2,,,,,16,0.221143171,0.25,,,,,,,
decision,91,515078,0.0-33.0-2.0,"""event"",""trial"",""time""
""fullscreenenter"",""1"",""11553""
","
","
","""event"",""trial"",""time""
""fullscreenenter"",""1"",""11553""
","
",,615.8,run_exp/static/images/task_images/land.jpg,65,,,,,,,4,,,2,,,,,,,,39775,1,1,FALSE,,,
dig,92,517472,0.0-34.0-0.0,"""event"",""trial"",""time""
""fullscreenenter"",""1"",""11553""
","
","
","""event"",""trial"",""time""
""fullscreenenter"",""1"",""11553""
","
",,,,,,,,,,,,"[{""stimulus"":""run_exp/static/images/task_images/dig.jpg"",""time"":0.4000000059604645},{""stimulus"":""run_exp/static/images/task_images/land.jpg"",""time"":803.3000000119209},{""stimulus"":""run_exp/static/images/task_images/dig.jpg"",""time"":1606.300000011921}]",[],2,,,,,,,,,,,,,,
harvest,93,518480,0.0-34.0-1.0,"""event"",""trial"",""time""
""fullscreenenter"",""1"",""11553""
","
","
","""event"",""trial"",""time""
""fullscreenenter"",""1"",""11553""
","
",,null,run_exp/static/images/task_images/gems/4.jpg,null,,,,,,,1,,,2,,,,,4,0.26996522,0.25,,,,,,,
decision,94,518906,0.0-34.0-2.0,"""event"",""trial"",""time""
""fullscreenenter"",""1"",""11553""
","
","
","""event"",""trial"",""time""
""fullscreenenter"",""1"",""11553""
","
",,424.7,run_exp/static/images/task_images/land.jpg,76,,,,,,,1,,,2,,,,,,,,43604,1,2,TRUE,,,
travel,95,528484,0.0-35.0-0.0,"""event"",""trial"",""time""
""fullscreenenter"",""1"",""11553""
","
","
","""event"",""trial"",""time""
""fullscreenenter"",""1"",""11553""
","
",,,,,,,,,,,,"[{""stimulus"":""run_exp/static/images/task_images/rocket-01.jpg"",""time"":0.30000001192092896},{""stimulus"":""run_exp/static/images/task_images/rocket-02.jpg"",""time"":1071.1000000238419},{""stimulus"":""run_exp/static/images/task_images/rocket-03.jpg"",""time"":2129},{""stimulus"":""run_exp/static/images/task_images/rocket-04.jpg"",""time"":3206.600000023842},{""stimulus"":""run_exp/static/images/task_images/rocket-05.jpg"",""time"":4259.200000017881},{""stimulus"":""run_exp/static/images/task_images/rocket-06.jpg"",""time"":5325},{""stimulus"":""run_exp/static/images/task_images/rocket-07.jpg"",""time"":6383.9000000059605},{""stimulus"":""run_exp/static/images/task_images/rocket-08.jpg"",""time"":7451.200000017881},{""stimulus"":""run_exp/static/images/task_images/rocket-09.jpg"",""time"":8516.40000000596}]",[],2,,,,,,,,,,,,,,
alien_welcome,96,533494,0.0-35.0-1.0,"""event"",""trial"",""time""
""fullscreenenter"",""1"",""11553""
","
","
","""event"",""trial"",""time""
""fullscreenenter"",""1"",""11553""
","
",,null,run_exp/static/images/task_images/aliens/old_aliens/planet/alien_planet-42.jpg,null,,,,,,,,,,,,,42,"13,43,42,36,46,75,4,9,21,55,47,56,71,34,32,78,5,52,68,20,37,66,15,3,24,7,57,63,77,74,40,26,1,25,50,45,17,64,72,12",,,,,,,,,,
land,97,534001,0.0-35.0-2.0,"""event"",""trial"",""time""
""fullscreenenter"",""1"",""11553""
","
","
","""event"",""trial"",""time""
""fullscreenenter"",""1"",""11553""
","
",,null,run_exp/static/images/task_images/land.jpg,null,,,,,,,92,,,3,,,,,,,,,,,,,,
dig,98,536006,0.0-35.0-3.0,"""event"",""trial"",""time""
""fullscreenenter"",""1"",""11553""
","
","
","""event"",""trial"",""time""
""fullscreenenter"",""1"",""11553""
","
",,,,,,,,,,,,"[{""stimulus"":""run_exp/static/images/task_images/dig.jpg"",""time"":0.4000000059604645},{""stimulus"":""run_exp/static/images/task_images/land.jpg"",""time"":674.5999999940395},{""stimulus"":""run_exp/static/images/task_images/dig.jpg"",""time"":1339.5999999940395}]",[],3,,,,,,,,,,,,,,
harvest,99,537015,0.0-35.0-4.0,"""event"",""trial"",""time""
""fullscreenenter"",""1"",""11553""
","
","
","""event"",""trial"",""time""
""fullscreenenter"",""1"",""11553""
","
",,null,run_exp/static/images/task_images/gems/92.jpg,null,,,,,,,45,,,3,,,,,92,0.486736221,0.489130435,,,,,,,
decision,100,538323,0.0-35.0-5.0,"""event"",""trial"",""time""
""fullscreenenter"",""1"",""11553""
","
","
","""event"",""trial"",""time""
""fullscreenenter"",""1"",""11553""
","
",,1306.6,run_exp/static/images/task_images/land.jpg,65,,,,,,,45,,,3,,,,,,,,63021,1,0,FALSE,,,
dig,101,540023,0.0-36.0-0.0,"""event"",""trial"",""time""
""fullscreenenter"",""1"",""11553""
","
","
","""event"",""trial"",""time""
""fullscreenenter"",""1"",""11553""
","
",,,,,,,,,,,,"[{""stimulus"":""run_exp/static/images/task_images/dig.jpg"",""time"":0.4000000059604645},{""stimulus"":""run_exp/static/images/task_images/land.jpg"",""time"":568.5999999940395},{""stimulus"":""run_exp/static/images/task_images/dig.jpg"",""time"":1137.199999988079}]",[],3,,,,,,,,,,,,,,
harvest,102,541029,0.0-36.0-1.0,"""event"",""trial"",""time""
""fullscreenenter"",""1"",""11553""
","
","
","""event"",""trial"",""time""
""fullscreenenter"",""1"",""11553""
","
",,null,run_exp/static/images/task_images/gems/45.jpg,null,,,,,,,24,,,3,,,,,45,0.54142452,0.533333333,,,,,,,
decision,103,541739,0.0-36.0-2.0,"""event"",""trial"",""time""
""fullscreenenter"",""1"",""11553""
","
","
","""event"",""trial"",""time""
""fullscreenenter"",""1"",""11553""
","
",,708.1,run_exp/static/images/task_images/land.jpg,65,,,,,,,24,,,3,,,,,,,,66436,1,1,FALSE,,,
dig,104,544035,0.0-37.0-0.0,"""event"",""trial"",""time""
""fullscreenenter"",""1"",""11553""
","
","
","""event"",""trial"",""time""
""fullscreenenter"",""1"",""11553""
","
",,,,,,,,,,,,"[{""stimulus"":""run_exp/static/images/task_images/dig.jpg"",""time"":0.09999999403953552},{""stimulus"":""run_exp/static/images/task_images/land.jpg"",""time"":770.0999999940395},{""stimulus"":""run_exp/static/images/task_images/dig.jpg"",""time"":1533.7000000178814}]",[],3,,,,,,,,,,,,,,
harvest,105,545045,0.0-37.0-1.0,"""event"",""trial"",""time""
""fullscreenenter"",""1"",""11553""
","
","
","""event"",""trial"",""time""
""fullscreenenter"",""1"",""11553""
","
",,null,run_exp/static/images/task_images/gems/24.jpg,null,,,,,,,13,,,3,,,,,24,0.548575078,0.541666667,,,,,,,
decision,106,546017,0.0-37.0-2.0,"""event"",""trial"",""time""
""fullscreenenter"",""1"",""11553""
","
","
","""event"",""trial"",""time""
""fullscreenenter"",""1"",""11553""
","
",,970.3,run_exp/static/images/task_images/land.jpg,65,,,,,,,13,,,3,,,,,,,,70714,1,2,FALSE,,,
dig,107,548055,0.0-38.0-0.0,"""event"",""trial"",""time""
""fullscreenenter"",""1"",""11553""
","
","
","""event"",""trial"",""time""
""fullscreenenter"",""1"",""11553""
","
",,,,,,,,,,,,"[{""stimulus"":""run_exp/static/images/task_images/dig.jpg"",""time"":0.30000001192092896},{""stimulus"":""run_exp/static/images/task_images/land.jpg"",""time"":684},{""stimulus"":""run_exp/static/images/task_images/dig.jpg"",""time"":1358.800000011921}]",[],3,,,,,,,,,,,,,,
harvest,108,549065,0.0-38.0-1.0,"""event"",""trial"",""time""
""fullscreenenter"",""1"",""11553""
","
","
","""event"",""trial"",""time""
""fullscreenenter"",""1"",""11553""
","
",,null,run_exp/static/images/task_images/gems/13.jpg,null,,,,,,,8,,,3,,,,,13,0.58729789,0.615384615,,,,,,,
decision,109,550062,0.0-38.0-2.0,"""event"",""trial"",""time""
""fullscreenenter"",""1"",""11553""
","
","
","""event"",""trial"",""time""
""fullscreenenter"",""1"",""11553""
","
",,994.8,run_exp/static/images/task_images/land.jpg,65,,,,,,,8,,,3,,,,,,,,74759,1,3,FALSE,,,
dig,110,552081,0.0-39.0-0.0,"""event"",""trial"",""time""
""fullscreenenter"",""1"",""11553""
","
","
","""event"",""trial"",""time""
""fullscreenenter"",""1"",""11553""
","
",,,,,,,,,,,,"[{""stimulus"":""run_exp/static/images/task_images/dig.jpg"",""time"":0.3999999761581421},{""stimulus"":""run_exp/static/images/task_images/land.jpg"",""time"":677.2999999821186},{""stimulus"":""run_exp/static/images/task_images/dig.jpg"",""time"":1338.5}]",[],3,,,,,,,,,,,,,,
harvest,111,553086,0.0-39.0-1.0,"""event"",""trial"",""time""
""fullscreenenter"",""1"",""11553""
","
","
","""event"",""trial"",""time""
""fullscreenenter"",""1"",""11553""
","
",,null,run_exp/static/images/task_images/gems/8.jpg,null,,,,,,,4,,,3,,,,,8,0.494860994,0.5,,,,,,,
decision,112,554019,0.0-39.0-2.0,"""event"",""trial"",""time""
""fullscreenenter"",""1"",""11553""
","
","
","""event"",""trial"",""time""
""fullscreenenter"",""1"",""11553""
","
",,929.9,run_exp/static/images/task_images/land.jpg,76,,,,,,,4,,,3,,,,,,,,78716,1,4,TRUE,,,
travel,113,563088,0.0-40.0-0.0,"""event"",""trial"",""time""
""fullscreenenter"",""1"",""11553""
","
","
","""event"",""trial"",""time""
""fullscreenenter"",""1"",""11553""
","
",,,,,,,,,,,,"[{""stimulus"":""run_exp/static/images/task_images/rocket-01.jpg"",""time"":0.30000001192092896},{""stimulus"":""run_exp/static/images/task_images/rocket-02.jpg"",""time"":1019.6999999880791},{""stimulus"":""run_exp/static/images/task_images/rocket-03.jpg"",""time"":2023.199999988079},{""stimulus"":""run_exp/static/images/task_images/rocket-04.jpg"",""time"":3023.0999999940395},{""stimulus"":""run_exp/static/images/task_images/rocket-05.jpg"",""time"":4031.5},{""stimulus"":""run_exp/static/images/task_images/rocket-06.jpg"",""time"":5039.699999988079},{""stimulus"":""run_exp/static/images/task_images/rocket-07.jpg"",""time"":6047.699999988079},{""stimulus"":""run_exp/static/images/task_images/rocket-08.jpg"",""time"":7053.199999988079},{""stimulus"":""run_exp/static/images/task_images/rocket-09.jpg"",""time"":8058.9000000059605}]",[],3,,,,,,,,,,,,,,
alien_welcome,114,568095,0.0-40.0-1.0,"""event"",""trial"",""time""
""fullscreenenter"",""1"",""11553""
","
","
","""event"",""trial"",""time""
""fullscreenenter"",""1"",""11553""
","
",,null,run_exp/static/images/task_images/aliens/old_aliens/planet/alien_planet-36.jpg,null,,,,,,,,,,,,,36,"13,43,42,36,46,75,4,9,21,55,47,56,71,34,32,78,5,52,68,20,37,66,15,3,24,7,57,63,77,74,40,26,1,25,50,45,17,64,72,12",,,,,,,,,,
land,115,568603,0.0-40.0-2.0,"""event"",""trial"",""time""
""fullscreenenter"",""1"",""11553""
","
","
","""event"",""trial"",""time""
""fullscreenenter"",""1"",""11553""
","
",,null,run_exp/static/images/task_images/land.jpg,null,,,,,,,103,,,4,,,,,,,,,,,,,,
dig,116,570610,0.0-40.0-3.0,"""event"",""trial"",""time""
""fullscreenenter"",""1"",""11553""
","
","
","""event"",""trial"",""time""
""fullscreenenter"",""1"",""11553""
","
",,,,,,,,,,,,"[{""stimulus"":""run_exp/static/images/task_images/dig.jpg"",""time"":0.3999999761581421},{""stimulus"":""run_exp/static/images/task_images/land.jpg"",""time"":672},{""stimulus"":""run_exp/static/images/task_images/dig.jpg"",""time"":1343}]",[],4,,,,,,,,,,,,,,
harvest,117,571619,0.0-40.0-4.0,"""event"",""trial"",""time""
""fullscreenenter"",""1"",""11553""
","
","
","""event"",""trial"",""time""
""fullscreenenter"",""1"",""11553""
","
",,null,run_exp/static/images/task_images/gems/103.jpg,null,,,,,,,52,,,4,,,,,103,0.501246114,0.504854369,,,,,,,
decision,118,574623,0.0-40.0-5.0,"""event"",""trial"",""time""
""fullscreenenter"",""1"",""11553""
","
","
","""event"",""trial"",""time""
""fullscreenenter"",""1"",""11553""
","
",,null,run_exp/static/images/task_images/land.jpg,null,,,,,,,52,,,4,,,,,,,,99320,1,0,FALSE,,,
time_out,119,576630,0.0-41.0-0.0,"""event"",""trial"",""time""
""fullscreenenter"",""1"",""11553""
","
","
","""event"",""trial"",""time""
""fullscreenenter"",""1"",""11553""
","
",,null,run_exp/static/images/task_images/time_out.jpg,null,,,,,,,52,,,,,,,,,,,,,,,,,
decision,120,577326,0.0-41.0-1.0,"""event"",""trial"",""time""
""fullscreenenter"",""1"",""11553""
","
","
","""event"",""trial"",""time""
""fullscreenenter"",""1"",""11553""
","
",,693.7,run_exp/static/images/task_images/land.jpg,65,,,,,,,52,,,4,,,,,,,,102023,1,0,FALSE,,,
dig,121,579641,0.0-42.0-0.0,"""event"",""trial"",""time""
""fullscreenenter"",""1"",""11553""
","
","
","""event"",""trial"",""time""
""fullscreenenter"",""1"",""11553""
","
",,,,,,,,,,,,"[{""stimulus"":""run_exp/static/images/task_images/dig.jpg"",""time"":0.30000001192092896},{""stimulus"":""run_exp/static/images/task_images/land.jpg"",""time"":774.6000000238419},{""stimulus"":""run_exp/static/images/task_images/dig.jpg"",""time"":1550.5}]",[],4,,,,,,,,,,,,,,
harvest,122,580644,0.0-42.0-1.0,"""event"",""trial"",""time""
""fullscreenenter"",""1"",""11553""
","
","
","""event"",""trial"",""time""
""fullscreenenter"",""1"",""11553""
","
",,null,run_exp/static/images/task_images/gems/52.jpg,null,,,,,,,22,,,4,,,,,52,0.423381507,0.423076923,,,,,,,
decision,123,581487,0.0-42.0-2.0,"""event"",""trial"",""time""
""fullscreenenter"",""1"",""11553""
","
","
","""event"",""trial"",""time""
""fullscreenenter"",""1"",""11553""
","
",,839.8,run_exp/static/images/task_images/land.jpg,65,,,,,,,22,,,4,,,,,,,,106184,1,1,FALSE,,,
dig,124,583658,0.0-43.0-0.0,"""event"",""trial"",""time""
""fullscreenenter"",""1"",""11553""
","
","
","""event"",""trial"",""time""
""fullscreenenter"",""1"",""11553""
","
",,,,,,,,,,,,"[{""stimulus"":""run_exp/static/images/task_images/dig.jpg"",""time"":0.30000001192092896},{""stimulus"":""run_exp/static/images/task_images/land.jpg"",""time"":736.8000000119209},{""stimulus"":""run_exp/static/images/task_images/dig.jpg"",""time"":1442.699999988079}]",[],4,,,,,,,,,,,,,,
harvest,125,584668,0.0-43.0-1.0,"""event"",""trial"",""time""
""fullscreenenter"",""1"",""11553""
","
","
","""event"",""trial"",""time""
""fullscreenenter"",""1"",""11553""
","
",,null,run_exp/static/images/task_images/gems/22.jpg,null,,,,,,,10,,,4,,,,,22,0.475969513,0.454545455,,,,,,,
decision,126,585105,0.0-43.0-2.0,"""event"",""trial"",""time""
""fullscreenenter"",""1"",""11553""
","
","
","""event"",""trial"",""time""
""fullscreenenter"",""1"",""11553""
","
",,432.8,run_exp/static/images/task_images/land.jpg,65,,,,,,,10,,,4,,,,,,,,109802,1,2,FALSE,,,
dig,127,587683,0.0-44.0-0.0,"""event"",""trial"",""time""
""fullscreenenter"",""1"",""11553""
","
","
","""event"",""trial"",""time""
""fullscreenenter"",""1"",""11553""
","
",,,,,,,,,,,,"[{""stimulus"":""run_exp/static/images/task_images/dig.jpg"",""time"":0.30000001192092896},{""stimulus"":""run_exp/static/images/task_images/land.jpg"",""time"":862.9000000059605},{""stimulus"":""run_exp/static/images/task_images/dig.jpg"",""time"":1716.300000011921}]",[],4,,,,,,,,,,,,,,
harvest,128,588693,0.0-44.0-1.0,"""event"",""trial"",""time""
""fullscreenenter"",""1"",""11553""
","
","
","""event"",""trial"",""time""
""fullscreenenter"",""1"",""11553""
","
",,null,run_exp/static/images/task_images/gems/10.jpg,null,,,,,,,5,,,4,,,,,10,0.542275076,0.5,,,,,,,
decision,129,588998,0.0-44.0-2.0,"""event"",""trial"",""time""
""fullscreenenter"",""1"",""11553""
","
","
","""event"",""trial"",""time""
""fullscreenenter"",""1"",""11553""
","
",,303.9,run_exp/static/images/task_images/land.jpg,76,,,,,,,5,,,4,,,,,,,,113695,1,3,TRUE,,,
travel,130,598703,0.0-45.0-0.0,"""event"",""trial"",""time""
""fullscreenenter"",""1"",""11553""
","
","
","""event"",""trial"",""time""
""fullscreenenter"",""1"",""11553""
","
",,,,,,,,,,,,"[{""stimulus"":""run_exp/static/images/task_images/rocket-01.jpg"",""time"":0.30000001192092896},{""stimulus"":""run_exp/static/images/task_images/rocket-02.jpg"",""time"":1085.9000000059605},{""stimulus"":""run_exp/static/images/task_images/rocket-03.jpg"",""time"":2164},{""stimulus"":""run_exp/static/images/task_images/rocket-04.jpg"",""time"":3248.4000000059605},{""stimulus"":""run_exp/static/images/task_images/rocket-05.jpg"",""time"":4310.200000017881},{""stimulus"":""run_exp/static/images/task_images/rocket-06.jpg"",""time"":5389.5},{""stimulus"":""run_exp/static/images/task_images/rocket-07.jpg"",""time"":6466.200000017881},{""stimulus"":""run_exp/static/images/task_images/rocket-08.jpg"",""time"":7547.200000017881},{""stimulus"":""run_exp/static/images/task_images/rocket-09.jpg"",""time"":8624.800000011921}]",[],4,,,,,,,,,,,,,,
alien_welcome,131,603715,0.0-45.0-1.0,"""event"",""trial"",""time""
""fullscreenenter"",""1"",""11553""
","
","
","""event"",""trial"",""time""
""fullscreenenter"",""1"",""11553""
","
",,null,run_exp/static/images/task_images/aliens/old_aliens/planet/alien_planet-46.jpg,null,,,,,,,,,,,,,46,"13,43,42,36,46,75,4,9,21,55,47,56,71,34,32,78,5,52,68,20,37,66,15,3,24,7,57,63,77,74,40,26,1,25,50,45,17,64,72,12",,,,,,,,,,
land,132,604228,0.0-45.0-2.0,"""event"",""trial"",""time""
""fullscreenenter"",""1"",""11553""
","
","
","""event"",""trial"",""time""
""fullscreenenter"",""1"",""11553""
","
",,null,run_exp/static/images/task_images/land.jpg,null,,,,,,,101,,,5,,,,,,,,,,,,,,
dig,133,606236,0.0-45.0-3.0,"""event"",""trial"",""time""
""fullscreenenter"",""1"",""11553""
","
","
","""event"",""trial"",""time""
""fullscreenenter"",""1"",""11553""
","
",,,,,,,,,,,,"[{""stimulus"":""run_exp/static/images/task_images/dig.jpg"",""time"":0.5},{""stimulus"":""run_exp/static/images/task_images/land.jpg"",""time"":671.0999999940395},{""stimulus"":""run_exp/static/images/task_images/dig.jpg"",""time"":1341.699999988079}]",[],5,,,,,,,,,,,,,,
harvest,134,607240,0.0-45.0-4.0,"""event"",""trial"",""time""
""fullscreenenter"",""1"",""11553""
","
","
","""event"",""trial"",""time""
""fullscreenenter"",""1"",""11553""
","
",,null,run_exp/static/images/task_images/gems/101.jpg,null,,,,,,,53,,,5,,,,,101,0.523542327,0.524752475,,,,,,,
decision,135,607923,0.0-45.0-5.0,"""event"",""trial"",""time""
""fullscreenenter"",""1"",""11553""
","
","
","""event"",""trial"",""time""
""fullscreenenter"",""1"",""11553""
","
",,681.2,run_exp/static/images/task_images/land.jpg,65,,,,,,,53,,,5,,,,,,,,132620,1,0,FALSE,,,
dig,136,610251,0.0-46.0-0.0,"""event"",""trial"",""time""
""fullscreenenter"",""1"",""11553""
","
","
","""event"",""trial"",""time""
""fullscreenenter"",""1"",""11553""
","
",,,,,,,,,,,,"[{""stimulus"":""run_exp/static/images/task_images/dig.jpg"",""time"":0.30000001192092896},{""stimulus"":""run_exp/static/images/task_images/land.jpg"",""time"":776.7000000178814},{""stimulus"":""run_exp/static/images/task_images/dig.jpg"",""time"":1552.800000011921}]",[],5,,,,,,,,,,,,,,
harvest,137,611259,0.0-46.0-1.0,"""event"",""trial"",""time""
""fullscreenenter"",""1"",""11553""
","
","
","""event"",""trial"",""time""
""fullscreenenter"",""1"",""11553""
","
",,null,run_exp/static/images/task_images/gems/53.jpg,null,,,,,,,33,,,5,,,,,53,0.61795216,0.622641509,,,,,,,
decision,138,612337,0.0-46.0-2.0,"""event"",""trial"",""time""
""fullscreenenter"",""1"",""11553""
","
","
","""event"",""trial"",""time""
""fullscreenenter"",""1"",""11553""
","
",,1075.9,run_exp/static/images/task_images/land.jpg,65,,,,,,,33,,,5,,,,,,,,137034,1,1,FALSE,,,
dig,139,614268,0.0-47.0-0.0,"""event"",""trial"",""time""
""fullscreenenter"",""1"",""11553""
","
","
","""event"",""trial"",""time""
""fullscreenenter"",""1"",""11553""
","
",,,,,,,,,,,,"[{""stimulus"":""run_exp/static/images/task_images/dig.jpg"",""time"":0.20000001788139343},{""stimulus"":""run_exp/static/images/task_images/land.jpg"",""time"":647.1000000238419},{""stimulus"":""run_exp/static/images/task_images/dig.jpg"",""time"":1285.300000011921}]",[],5,,,,,,,,,,,,,,
harvest,140,615273,0.0-47.0-1.0,"""event"",""trial"",""time""
""fullscreenenter"",""1"",""11553""
","
","
","""event"",""trial"",""time""
""fullscreenenter"",""1"",""11553""
","
",,null,run_exp/static/images/task_images/gems/33.jpg,null,,,,,,,16,,,5,,,,,33,0.49897571,0.484848485,,,,,,,
decision,141,615906,0.0-47.0-2.0,"""event"",""trial"",""time""
""fullscreenenter"",""1"",""11553""
","
","
","""event"",""trial"",""time""
""fullscreenenter"",""1"",""11553""
","
",,630.9,run_exp/static/images/task_images/land.jpg,65,,,,,,,16,,,5,,,,,,,,140604,1,2,FALSE,,,
dig,142,618282,0.0-48.0-0.0,"""event"",""trial"",""time""
""fullscreenenter"",""1"",""11553""
","
","
","""event"",""trial"",""time""
""fullscreenenter"",""1"",""11553""
","
",,,,,,,,,,,,"[{""stimulus"":""run_exp/static/images/task_images/dig.jpg"",""time"":0.29999998211860657},{""stimulus"":""run_exp/static/images/task_images/land.jpg"",""time"":799.0999999940395},{""stimulus"":""run_exp/static/images/task_images/dig.jpg"",""time"":1588.7999999821186}]",[],5,,,,,,,,,,,,,,
harvest,143,619285,0.0-48.0-1.0,"""event"",""trial"",""time""
""fullscreenenter"",""1"",""11553""
","
","
","""event"",""trial"",""time""
""fullscreenenter"",""1"",""11553""
","
",,null,run_exp/static/images/task_images/gems/16.jpg,null,,,,,,,8,,,5,,,,,16,0.52491353,0.5,,,,,,,
decision,144,619878,0.0-48.0-2.0,"""event"",""trial"",""time""
""fullscreenenter"",""1"",""11553""
","
","
","""event"",""trial"",""time""
""fullscreenenter"",""1"",""11553""
","
",,591.7,run_exp/static/images/task_images/land.jpg,65,,,,,,,8,,,5,,,,,,,,144575,1,3,FALSE,,,
dig,145,622299,0.0-49.0-0.0,"""event"",""trial"",""time""
""fullscreenenter"",""1"",""11553""
","
","
","""event"",""trial"",""time""
""fullscreenenter"",""1"",""11553""
","
",,,,,,,,,,,,"[{""stimulus"":""run_exp/static/images/task_images/dig.jpg"",""time"":0.09999999403953552},{""stimulus"":""run_exp/static/images/task_images/land.jpg"",""time"":811.4000000059605},{""stimulus"":""run_exp/static/images/task_images/dig.jpg"",""time"":1616.300000011921}]",[],5,,,,,,,,,,,,,,
harvest,146,623302,0.0-49.0-1.0,"""event"",""trial"",""time""
""fullscreenenter"",""1"",""11553""
","
","
","""event"",""trial"",""time""
""fullscreenenter"",""1"",""11553""
","
",,null,run_exp/static/images/task_images/gems/8.jpg,null,,,,,,,4,,,5,,,,,8,0.480377105,0.5,,,,,,,
decision,147,623567,0.0-49.0-2.0,"""event"",""trial"",""time""
""fullscreenenter"",""1"",""11553""
","
","
","""event"",""trial"",""time""
""fullscreenenter"",""1"",""11553""
","
",,262.8,run_exp/static/images/task_images/land.jpg,76,,,,,,,4,,,5,,,,,,,,148264,1,4,TRUE,,,
travel,148,633305,0.0-50.0-0.0,"""event"",""trial"",""time""
""fullscreenenter"",""1"",""11553""
","
","
","""event"",""trial"",""time""
""fullscreenenter"",""1"",""11553""
","
",,,,,,,,,,,,"[{""stimulus"":""run_exp/static/images/task_images/rocket-01.jpg"",""time"":0.30000001192092896},{""stimulus"":""run_exp/static/images/task_images/rocket-02.jpg"",""time"":1089.199999988079},{""stimulus"":""run_exp/static/images/task_images/rocket-03.jpg"",""time"":2171.4000000059605},{""stimulus"":""run_exp/static/images/task_images/rocket-04.jpg"",""time"":3250.300000011921},{""stimulus"":""run_exp/static/images/task_images/rocket-05.jpg"",""time"":4329},{""stimulus"":""run_exp/static/images/task_images/rocket-06.jpg"",""time"":5414.0999999940395},{""stimulus"":""run_exp/static/images/task_images/rocket-07.jpg"",""time"":6488.0999999940395},{""stimulus"":""run_exp/static/images/task_images/rocket-08.jpg"",""time"":7577.699999988079},{""stimulus"":""run_exp/static/images/task_images/rocket-09.jpg"",""time"":8664}]",[],5,,,,,,,,,,,,,,
alien_welcome,149,638311,0.0-50.0-1.0,"""event"",""trial"",""time""
""fullscreenenter"",""1"",""11553""
","
","
","""event"",""trial"",""time""
""fullscreenenter"",""1"",""11553""
","
",,null,run_exp/static/images/task_images/aliens/old_aliens/planet/alien_planet-75.jpg,null,,,,,,,,,,,,,75,"13,43,42,36,46,75,4,9,21,55,47,56,71,34,32,78,5,52,68,20,37,66,15,3,24,7,57,63,77,74,40,26,1,25,50,45,17,64,72,12",,,,,,,,,,
land,150,638819,0.0-50.0-2.0,"""event"",""trial"",""time""
""fullscreenenter"",""1"",""11553""
","
","
","""event"",""trial"",""time""
""fullscreenenter"",""1"",""11553""
","
",,null,run_exp/static/images/task_images/land.jpg,null,,,,,,,86,,,6,,,,,,,,,,,,,,
dig,151,640827,0.0-50.0-3.0,"""event"",""trial"",""time""
""fullscreenenter"",""1"",""11553""
","
","
","""event"",""trial"",""time""
""fullscreenenter"",""1"",""11553""
","
",,,,,,,,,,,,"[{""stimulus"":""run_exp/static/images/task_images/dig.jpg"",""time"":0.4000000059604645},{""stimulus"":""run_exp/static/images/task_images/land.jpg"",""time"":670.6000000238419},{""stimulus"":""run_exp/static/images/task_images/dig.jpg"",""time"":1338}]",[],6,,,,,,,,,,,,,,
harvest,152,641831,0.0-50.0-4.0,"""event"",""trial"",""time""
""fullscreenenter"",""1"",""11553""
","
","
","""event"",""trial"",""time""
""fullscreenenter"",""1"",""11553""
","
",,null,run_exp/static/images/task_images/gems/86.jpg,null,,,,,,,68,,,6,,,,,86,0.790290076,0.790697674,,,,,,,
decision,153,642658,0.0-50.0-5.0,"""event"",""trial"",""time""
""fullscreenenter"",""1"",""11553""
","
","
","""event"",""trial"",""time""
""fullscreenenter"",""1"",""11553""
","
",,824.7,run_exp/static/images/task_images/land.jpg,65,,,,,,,68,,,6,,,,,,,,167355,1,0,FALSE,,,
dig,154,644845,0.0-51.0-0.0,"""event"",""trial"",""time""
""fullscreenenter"",""1"",""11553""
","
","
","""event"",""trial"",""time""
""fullscreenenter"",""1"",""11553""
","
",,,,,,,,,,,,"[{""stimulus"":""run_exp/static/images/task_images/dig.jpg"",""time"":0.29999998211860657},{""stimulus"":""run_exp/static/images/task_images/land.jpg"",""time"":729.8999999761581},{""stimulus"":""run_exp/static/images/task_images/dig.jpg"",""time"":1467.5999999940395}]",[],6,,,,,,,,,,,,,,
harvest,155,645854,0.0-51.0-1.0,"""event"",""trial"",""time""
""fullscreenenter"",""1"",""11553""
","
","
","""event"",""trial"",""time""
""fullscreenenter"",""1"",""11553""
","
",,null,run_exp/static/images/task_images/gems/68.jpg,null,,,,,,,52,,,6,,,,,68,0.769062884,0.764705882,,,,,,,
decision,156,646350,0.0-51.0-2.0,"""event"",""trial"",""time""
""fullscreenenter"",""1"",""11553""
","
","
","""event"",""trial"",""time""
""fullscreenenter"",""1"",""11553""
","
",,494.2,run_exp/static/images/task_images/land.jpg,65,,,,,,,52,,,6,,,,,,,,171047,1,1,FALSE,,,
dig,157,648863,0.0-52.0-0.0,"""event"",""trial"",""time""
""fullscreenenter"",""1"",""11553""
","
","
","""event"",""trial"",""time""
""fullscreenenter"",""1"",""11553""
","
",,,,,,,,,,,,"[{""stimulus"":""run_exp/static/images/task_images/dig.jpg"",""time"":0.4000000059604645},{""stimulus"":""run_exp/static/images/task_images/land.jpg"",""time"":844.0999999940395},{""stimulus"":""run_exp/static/images/task_images/dig.jpg"",""time"":1678.9000000059605}]",[],6,,,,,,,,,,,,,,
harvest,158,649870,0.0-52.0-1.0,"""event"",""trial"",""time""
""fullscreenenter"",""1"",""11553""
","
","
","""event"",""trial"",""time""
""fullscreenenter"",""1"",""11553""
","
",,null,run_exp/static/images/task_images/gems/52.jpg,null,,,,,,,39,,,6,,,,,52,0.74323978,0.75,,,,,,,
decision,159,651887,0.0-52.0-2.0,"""event"",""trial"",""time""
""fullscreenenter"",""1"",""11553""
","
","
","""event"",""trial"",""time""
""fullscreenenter"",""1"",""11553""
","
",,2014.1,run_exp/static/images/task_images/land.jpg,65,,,,,,,39,,,6,,,,,,,,176584,1,2,FALSE,,,
dig,160,652882,0.0-53.0-0.0,"""event"",""trial"",""time""
""fullscreenenter"",""1"",""11553""
","
","
","""event"",""trial"",""time""
""fullscreenenter"",""1"",""11553""
","
",,,,,,,,,,,,"[{""stimulus"":""run_exp/static/images/task_images/dig.jpg"",""time"":0.30000001192092896},{""stimulus"":""run_exp/static/images/task_images/land.jpg"",""time"":334.09999999403954},{""stimulus"":""run_exp/static/images/task_images/dig.jpg"",""time"":662.5999999940395}]",[],6,,,,,,,,,,,,,,
harvest,161,653886,0.0-53.0-1.0,"""event"",""trial"",""time""
""fullscreenenter"",""1"",""11553""
","
","
","""event"",""trial"",""time""
""fullscreenenter"",""1"",""11553""
","
",,null,run_exp/static/images/task_images/gems/39.jpg,null,,,,,,,32,,,6,,,,,39,0.816935987,0.820512821,,,,,,,
decision,162,654255,0.0-53.0-2.0,"""event"",""trial"",""time""
""fullscreenenter"",""1"",""11553""
","
","
","""event"",""trial"",""time""
""fullscreenenter"",""1"",""11553""
","
",,367.3,run_exp/static/images/task_images/land.jpg,65,,,,,,,32,,,6,,,,,,,,178952,1,3,FALSE,,,
dig,163,656893,0.0-54.0-0.0,"""event"",""trial"",""time""
""fullscreenenter"",""1"",""11553""
","
","
","""event"",""trial"",""time""
""fullscreenenter"",""1"",""11553""
","
",,,,,,,,,,,,"[{""stimulus"":""run_exp/static/images/task_images/dig.jpg"",""time"":0.29999998211860657},{""stimulus"":""run_exp/static/images/task_images/land.jpg"",""time"":887},{""stimulus"":""run_exp/static/images/task_images/dig.jpg"",""time"":1756.699999988079}]",[],6,,,,,,,,,,,,,,
harvest,164,657905,0.0-54.0-1.0,"""event"",""trial"",""time""
""fullscreenenter"",""1"",""11553""
","
","
","""event"",""trial"",""time""
""fullscreenenter"",""1"",""11553""
","
",,null,run_exp/static/images/task_images/gems/32.jpg,null,,,,,,,27,,,6,,,,,32,0.85474397,0.84375,,,,,,,
decision,165,659008,0.0-54.0-2.0,"""event"",""trial"",""time""
""fullscreenenter"",""1"",""11553""
","
","
","""event"",""trial"",""time""
""fullscreenenter"",""1"",""11553""
","
",,1099.7,run_exp/static/images/task_images/land.jpg,65,,,,,,,27,,,6,,,,,,,,183705,1,4,FALSE,,,
dig,166,660916,0.0-55.0-0.0,"""event"",""trial"",""time""
""fullscreenenter"",""1"",""11553""
","
","
","""event"",""trial"",""time""
""fullscreenenter"",""1"",""11553""
","
",,,,,,,,,,,,"[{""stimulus"":""run_exp/static/images/task_images/dig.jpg"",""time"":0.4000000059604645},{""stimulus"":""run_exp/static/images/task_images/land.jpg"",""time"":641.5999999940395},{""stimulus"":""run_exp/static/images/task_images/dig.jpg"",""time"":1274.300000011921}]",[],6,,,,,,,,,,,,,,
harvest,167,661919,0.0-55.0-1.0,"""event"",""trial"",""time""
""fullscreenenter"",""1"",""11553""
","
","
","""event"",""trial"",""time""
""fullscreenenter"",""1"",""11553""
","
",,null,run_exp/static/images/task_images/gems/27.jpg,null,,,,,,,20,,,6,,,,,27,0.750222322,0.740740741,,,,,,,
decision,168,662030,0.0-55.0-2.0,"""event"",""trial"",""time""
""fullscreenenter"",""1"",""11553""
","
","
","""event"",""trial"",""time""
""fullscreenenter"",""1"",""11553""
","
",,108.2,run_exp/static/images/task_images/land.jpg,65,,,,,,,20,,,6,,,,,,,,186728,1,5,FALSE,,,
dig,169,664929,0.0-56.0-0.0,"""event"",""trial"",""time""
""fullscreenenter"",""1"",""11553""
","
","
","""event"",""trial"",""time""
""fullscreenenter"",""1"",""11553""
","
",,,,,,,,,,,,"[{""stimulus"":""run_exp/static/images/task_images/dig.jpg"",""time"":0.20000001788139343},{""stimulus"":""run_exp/static/images/task_images/land.jpg"",""time"":965.4000000059605},{""stimulus"":""run_exp/static/images/task_images/dig.jpg"",""time"":1933}]",[],6,,,,,,,,,,,,,,
harvest,170,665934,0.0-56.0-1.0,"""event"",""trial"",""time""
""fullscreenenter"",""1"",""11553""
","
","
","""event"",""trial"",""time""
""fullscreenenter"",""1"",""11553""
","
",,null,run_exp/static/images/task_images/gems/20.jpg,null,,,,,,,17,,,6,,,,,20,0.831949106,0.85,,,,,,,
decision,171,666235,0.0-56.0-2.0,"""event"",""trial"",""time""
""fullscreenenter"",""1"",""11553""
","
","
","""event"",""trial"",""time""
""fullscreenenter"",""1"",""11553""
","
",,299.1,run_exp/static/images/task_images/land.jpg,76,,,,,,,17,,,6,,,,,,,,190932,1,6,TRUE,,,
travel,172,675946,0.0-57.0-0.0,"""event"",""trial"",""time""
""fullscreenenter"",""1"",""11553""
","
","
","""event"",""trial"",""time""
""fullscreenenter"",""1"",""11553""
","
",,,,,,,,,,,,"[{""stimulus"":""run_exp/static/images/task_images/rocket-01.jpg"",""time"":0.5},{""stimulus"":""run_exp/static/images/task_images/rocket-02.jpg"",""time"":1082.5999999940395},{""stimulus"":""run_exp/static/images/task_images/rocket-03.jpg"",""time"":2158.7999999821186},{""stimulus"":""run_exp/static/images/task_images/rocket-04.jpg"",""time"":3237},{""stimulus"":""run_exp/static/images/task_images/rocket-05.jpg"",""time"":4315},{""stimulus"":""run_exp/static/images/task_images/rocket-06.jpg"",""time"":5393.199999988079},{""stimulus"":""run_exp/static/images/task_images/rocket-07.jpg"",""time"":6473.0999999940395},{""stimulus"":""run_exp/static/images/task_images/rocket-08.jpg"",""time"":7545.0999999940395},{""stimulus"":""run_exp/static/images/task_images/rocket-09.jpg"",""time"":8624.799999982119}]",[],6,,,,,,,,,,,,,,
alien_welcome,173,680952,0.0-57.0-1.0,"""event"",""trial"",""time""
""fullscreenenter"",""1"",""11553""
","
","
","""event"",""trial"",""time""
""fullscreenenter"",""1"",""11553""
","
",,null,run_exp/static/images/task_images/aliens/old_aliens/planet/alien_planet-4.jpg,null,,,,,,,,,,,,,4,"13,43,42,36,46,75,4,9,21,55,47,56,71,34,32,78,5,52,68,20,37,66,15,3,24,7,57,63,77,74,40,26,1,25,50,45,17,64,72,12",,,,,,,,,,
land,174,681455,0.0-57.0-2.0,"""event"",""trial"",""time""
""fullscreenenter"",""1"",""11553""
","
","
","""event"",""trial"",""time""
""fullscreenenter"",""1"",""11553""
","
",,null,run_exp/static/images/task_images/land.jpg,null,,,,,,,95,,,7,,,,,,,,,,,,,,
dig,175,683465,0.0-57.0-3.0,"""event"",""trial"",""time""
""fullscreenenter"",""1"",""11553""
","
","
","""event"",""trial"",""time""
""fullscreenenter"",""1"",""11553""
","
",,,,,,,,,,,,"[{""stimulus"":""run_exp/static/images/task_images/dig.jpg"",""time"":2.4000000059604645},{""stimulus"":""run_exp/static/images/task_images/land.jpg"",""time"":676.6000000238419},{""stimulus"":""run_exp/static/images/task_images/dig.jpg"",""time"":1343.2000000178814}]",[],7,,,,,,,,,,,,,,
harvest,176,684473,0.0-57.0-4.0,"""event"",""trial"",""time""
""fullscreenenter"",""1"",""11553""
","
","
","""event"",""trial"",""time""
""fullscreenenter"",""1"",""11553""
","
",,null,run_exp/static/images/task_images/gems/95.jpg,null,,,,,,,81,,,7,,,,,95,0.851108744,0.852631579,,,,,,,
decision,177,684929,0.0-57.0-5.0,"""event"",""trial"",""time""
""fullscreenenter"",""1"",""11553""
","
","
","""event"",""trial"",""time""
""fullscreenenter"",""1"",""11553""
","
",,454,run_exp/static/images/task_images/land.jpg,65,,,,,,,81,,,7,,,,,,,,209626,1,0,FALSE,,,
dig,178,687490,0.0-58.0-0.0,"""event"",""trial"",""time""
""fullscreenenter"",""1"",""11553""
","
","
","""event"",""trial"",""time""
""fullscreenenter"",""1"",""11553""
","
",,,,,,,,,,,,"[{""stimulus"":""run_exp/static/images/task_images/dig.jpg"",""time"":0.3999999761581421},{""stimulus"":""run_exp/static/images/task_images/land.jpg"",""time"":856.6999999880791},{""stimulus"":""run_exp/static/images/task_images/dig.jpg"",""time"":1706.5999999940395}]",[],7,,,,,,,,,,,,,,
harvest,179,688498,0.0-58.0-1.0,"""event"",""trial"",""time""
""fullscreenenter"",""1"",""11553""
","
","
","""event"",""trial"",""time""
""fullscreenenter"",""1"",""11553""
","
",,null,run_exp/static/images/task_images/gems/81.jpg,null,,,,,,,72,,,7,,,,,81,0.885074646,0.888888889,,,,,,,
decision,180,688653,0.0-58.0-2.0,"""event"",""trial"",""time""
""fullscreenenter"",""1"",""11553""
","
","
","""event"",""trial"",""time""
""fullscreenenter"",""1"",""11553""
","
",,152.4,run_exp/static/images/task_images/land.jpg,65,,,,,,,72,,,7,,,,,,,,213350,1,1,FALSE,,,
dig,181,691513,0.0-59.0-0.0,"""event"",""trial"",""time""
""fullscreenenter"",""1"",""11553""
","
","
","""event"",""trial"",""time""
""fullscreenenter"",""1"",""11553""
","
",,,,,,,,,,,,"[{""stimulus"":""run_exp/static/images/task_images/dig.jpg"",""time"":0.29999998211860657},{""stimulus"":""run_exp/static/images/task_images/land.jpg"",""time"":953.1999999880791},{""stimulus"":""run_exp/static/images/task_images/dig.jpg"",""time"":1903.699999988079}]",[],7,,,,,,,,,,,,,,
harvest,182,692523,0.0-59.0-1.0,"""event"",""trial"",""time""
""fullscreenenter"",""1"",""11553""
","
","
","""event"",""trial"",""time""
""fullscreenenter"",""1"",""11553""
","
",,null,run_exp/static/images/task_images/gems/72.jpg,null,,,,,,,54,,,7,,,,,72,0.752913644,0.75,,,,,,,
decision,183,692731,0.0-59.0-2.0,"""event"",""trial"",""time""
""fullscreenenter"",""1"",""11553""
","
","
","""event"",""trial"",""time""
""fullscreenenter"",""1"",""11553""
","
",,205.5,run_exp/static/images/task_images/land.jpg,65,,,,,,,54,,,7,,,,,,,,217428,1,2,FALSE,,,
dig,184,695533,0.0-60.0-0.0,"""event"",""trial"",""time""
""fullscreenenter"",""1"",""11553""
","
","
","""event"",""trial"",""time""
""fullscreenenter"",""1"",""11553""
","
",,,,,,,,,,,,"[{""stimulus"":""run_exp/static/images/task_images/dig.jpg"",""time"":0.5},{""stimulus"":""run_exp/static/images/task_images/land.jpg"",""time"":939.9000000059605},{""stimulus"":""run_exp/static/images/task_images/dig.jpg"",""time"":1868}]",[],7,,,,,,,,,,,,,,
harvest,185,696543,0.0-60.0-1.0,"""event"",""trial"",""time""
""fullscreenenter"",""1"",""11553""
","
","
","""event"",""trial"",""time""
""fullscreenenter"",""1"",""11553""
","
",,null,run_exp/static/images/task_images/gems/54.jpg,null,,,,,,,42,,,7,,,,,54,0.772850689,0.777777778,,,,,,,
decision,186,696957,0.0-60.0-2.0,"""event"",""trial"",""time""
""fullscreenenter"",""1"",""11553""
","
","
","""event"",""trial"",""time""
""fullscreenenter"",""1"",""11553""
","
",,411.6,run_exp/static/images/task_images/land.jpg,65,,,,,,,42,,,7,,,,,,,,221654,1,3,FALSE,,,
dig,187,699553,0.0-61.0-0.0,"""event"",""trial"",""time""
""fullscreenenter"",""1"",""11553""
","
","
","""event"",""trial"",""time""
""fullscreenenter"",""1"",""11553""
","
",,,,,,,,,,,,"[{""stimulus"":""run_exp/static/images/task_images/dig.jpg"",""time"":0.4000000059604645},{""stimulus"":""run_exp/static/images/task_images/land.jpg"",""time"":871.5999999940395},{""stimulus"":""run_exp/static/images/task_images/dig.jpg"",""time"":1728.2000000178814}]",[],7,,,,,,,,,,,,,,
harvest,188,700562,0.0-61.0-1.0,"""event"",""trial"",""time""
""fullscreenenter"",""1"",""11553""
","
","
","""event"",""trial"",""time""
""fullscreenenter"",""1"",""11553""
","
",,null,run_exp/static/images/task_images/gems/42.jpg,null,,,,,,,34,,,7,,,,,42,0.801897906,0.80952381,,,,,,,
decision,189,700600,0.0-61.0-2.0,"""event"",""trial"",""time""
""fullscreenenter"",""1"",""11553""
","
","
","""event"",""trial"",""time""
""fullscreenenter"",""1"",""11553""
","
",,37,run_exp/static/images/task_images/land.jpg,65,,,,,,,34,,,7,,,,,,,,225297,1,4,FALSE,,,
dig,190,703570,0.0-62.0-0.0,"""event"",""trial"",""time""
""fullscreenenter"",""1"",""11553""
","
","
","""event"",""trial"",""time""
""fullscreenenter"",""1"",""11553""
","
",,,,,,,,,,,,"[{""stimulus"":""run_exp/static/images/task_images/dig.jpg"",""time"":0.30000001192092896},{""stimulus"":""run_exp/static/images/task_images/land.jpg"",""time"":994.3000000119209},{""stimulus"":""run_exp/static/images/task_images/dig.jpg"",""time"":1983.5}]",[],7,,,,,,,,,,,,,,
harvest,191,704577,0.0-62.0-1.0,"""event"",""trial"",""time""
""fullscreenenter"",""1"",""11553""
","
","
","""event"",""trial"",""time""
""fullscreenenter"",""1"",""11553""
","
",,null,run_exp/static/images/task_images/gems/34.jpg,null,,,,,,,30,,,7,,,,,34,0.872172802,0.882352941,,,,,,,
decision,192,704629,0.0-62.0-2.0,"""event"",""trial"",""time""
""fullscreenenter"",""1"",""11553""
","
","
","""event"",""trial"",""time""
""fullscreenenter"",""1"",""11553""
","
",,48.90000001,run_exp/static/images/task_images/land.jpg,65,,,,,,,30,,,7,,,,,,,,229326,1,5,FALSE,,,
dig,193,707592,0.0-63.0-0.0,"""event"",""trial"",""time""
""fullscreenenter"",""1"",""11553""
","
","
","""event"",""trial"",""time""
""fullscreenenter"",""1"",""11553""
","
",,,,,,,,,,,,"[{""stimulus"":""run_exp/static/images/task_images/dig.jpg"",""time"":0.30000001192092896},{""stimulus"":""run_exp/static/images/task_images/land.jpg"",""time"":988.4000000059605},{""stimulus"":""run_exp/static/images/task_images/dig.jpg"",""time"":1970.300000011921}]",[],7,,,,,,,,,,,,,,
harvest,194,708597,0.0-63.0-1.0,"""event"",""trial"",""time""
""fullscreenenter"",""1"",""11553""
","
","
","""event"",""trial"",""time""
""fullscreenenter"",""1"",""11553""
","
",,null,run_exp/static/images/task_images/gems/30.jpg,null,,,,,,,25,,,7,,,,,30,0.820470057,0.833333333,,,,,,,
decision,195,708777,0.0-63.0-2.0,"""event"",""trial"",""time""
""fullscreenenter"",""1"",""11553""
","
","
","""event"",""trial"",""time""
""fullscreenenter"",""1"",""11553""
","
",,178.1,run_exp/static/images/task_images/land.jpg,76,,,,,,,25,,,7,,,,,,,,233474,1,6,TRUE,,,
travel,196,718611,0.0-64.0-0.0,"""event"",""trial"",""time""
""fullscreenenter"",""1"",""11553""
","
","
","""event"",""trial"",""time""
""fullscreenenter"",""1"",""11553""
","
",,,,,,,,,,,,"[{""stimulus"":""run_exp/static/images/task_images/rocket-01.jpg"",""time"":0.29999998211860657},{""stimulus"":""run_exp/static/images/task_images/rocket-02.jpg"",""time"":1097},{""stimulus"":""run_exp/static/images/task_images/rocket-03.jpg"",""time"":2191},{""stimulus"":""run_exp/static/images/task_images/rocket-04.jpg"",""time"":3282.899999976158},{""stimulus"":""run_exp/static/images/task_images/rocket-05.jpg"",""time"":4372.5},{""stimulus"":""run_exp/static/images/task_images/rocket-06.jpg"",""time"":5469.799999982119},{""stimulus"":""run_exp/static/images/task_images/rocket-07.jpg"",""time"":6552.899999976158},{""stimulus"":""run_exp/static/images/task_images/rocket-08.jpg"",""time"":7649.899999976158},{""stimulus"":""run_exp/static/images/task_images/rocket-09.jpg"",""time"":8731.59999999404}]",[],7,,,,,,,,,,,,,,
alien_welcome,197,723625,0.0-64.0-1.0,"""event"",""trial"",""time""
""fullscreenenter"",""1"",""11553""
","
","
","""event"",""trial"",""time""
""fullscreenenter"",""1"",""11553""
","
",,null,run_exp/static/images/task_images/aliens/old_aliens/planet/alien_planet-9.jpg,null,,,,,,,,,,,,,9,"13,43,42,36,46,75,4,9,21,55,47,56,71,34,32,78,5,52,68,20,37,66,15,3,24,7,57,63,77,74,40,26,1,25,50,45,17,64,72,12",,,,,,,,,,
land,198,724133,0.0-64.0-2.0,"""event"",""trial"",""time""
""fullscreenenter"",""1"",""11553""
","
","
","""event"",""trial"",""time""
""fullscreenenter"",""1"",""11553""
","
",,null,run_exp/static/images/task_images/land.jpg,null,,,,,,,99,,,8,,,,,,,,,,,,,,
dig,199,726141,0.0-64.0-3.0,"""event"",""trial"",""time""
""fullscreenenter"",""1"",""11553""
","
","
","""event"",""trial"",""time""
""fullscreenenter"",""1"",""11553""
","
",,,,,,,,,,,,"[{""stimulus"":""run_exp/static/images/task_images/dig.jpg"",""time"":0.4000000059604645},{""stimulus"":""run_exp/static/images/task_images/land.jpg"",""time"":669.2000000178814},{""stimulus"":""run_exp/static/images/task_images/dig.jpg"",""time"":1341.9000000059605}]",[],8,,,,,,,,,,,,,,
harvest,200,727147,0.0-64.0-4.0,"""event"",""trial"",""time""
""fullscreenenter"",""1"",""11553""
","
","
","""event"",""trial"",""time""
""fullscreenenter"",""1"",""11553""
","
",,null,run_exp/static/images/task_images/gems/99.jpg,null,,,,,,,84,,,8,,,,,99,0.851453058,0.848484848,,,,,,,
decision,201,727489,0.0-64.0-5.0,"""event"",""trial"",""time""
""fullscreenenter"",""1"",""11553""
","
","
","""event"",""trial"",""time""
""fullscreenenter"",""1"",""11553""
","
",,339.8,run_exp/static/images/task_images/land.jpg,65,,,,,,,84,,,8,,,,,,,,252186,1,0,FALSE,,,
dig,202,730157,0.0-65.0-0.0,"""event"",""trial"",""time""
""fullscreenenter"",""1"",""11553""
","
","
","""event"",""trial"",""time""
""fullscreenenter"",""1"",""11553""
","
",,,,,,,,,,,,"[{""stimulus"":""run_exp/static/images/task_images/dig.jpg"",""time"":0.09999999403953552},{""stimulus"":""run_exp/static/images/task_images/land.jpg"",""time"":890.3000000119209},{""stimulus"":""run_exp/static/images/task_images/dig.jpg"",""time"":1774.5999999940395}]",[],8,,,,,,,,,,,,,,
harvest,203,731168,0.0-65.0-1.0,"""event"",""trial"",""time""
""fullscreenenter"",""1"",""11553""
","
","
","""event"",""trial"",""time""
""fullscreenenter"",""1"",""11553""
","
",,null,run_exp/static/images/task_images/gems/84.jpg,null,,,,,,,61,,,8,,,,,84,0.726104979,0.726190476,,,,,,,
decision,204,731434,0.0-65.0-2.0,"""event"",""trial"",""time""
""fullscreenenter"",""1"",""11553""
","
","
","""event"",""trial"",""time""
""fullscreenenter"",""1"",""11553""
","
",,264.5,run_exp/static/images/task_images/land.jpg,65,,,,,,,61,,,8,,,,,,,,256131,1,1,FALSE,,,
dig,205,734180,0.0-66.0-0.0,"""event"",""trial"",""time""
""fullscreenenter"",""1"",""11553""
","
","
","""event"",""trial"",""time""
""fullscreenenter"",""1"",""11553""
","
",,,,,,,,,,,,"[{""stimulus"":""run_exp/static/images/task_images/dig.jpg"",""time"":0.30000001192092896},{""stimulus"":""run_exp/static/images/task_images/land.jpg"",""time"":917.5999999940395},{""stimulus"":""run_exp/static/images/task_images/dig.jpg"",""time"":1828.699999988079}]",[],8,,,,,,,,,,,,,,
harvest,206,735185,0.0-66.0-1.0,"""event"",""trial"",""time""
""fullscreenenter"",""1"",""11553""
","
","
","""event"",""trial"",""time""
""fullscreenenter"",""1"",""11553""
","
",,null,run_exp/static/images/task_images/gems/61.jpg,null,,,,,,,53,,,8,,,,,61,0.861196045,0.868852459,,,,,,,
decision,207,735779,0.0-66.0-2.0,"""event"",""trial"",""time""
""fullscreenenter"",""1"",""11553""
","
","
","""event"",""trial"",""time""
""fullscreenenter"",""1"",""11553""
","
",,591.5,run_exp/static/images/task_images/land.jpg,65,,,,,,,53,,,8,,,,,,,,260477,1,2,FALSE,,,
dig,208,738198,0.0-67.0-0.0,"""event"",""trial"",""time""
""fullscreenenter"",""1"",""11553""
","
","
","""event"",""trial"",""time""
""fullscreenenter"",""1"",""11553""
","
",,,,,,,,,,,,"[{""stimulus"":""run_exp/static/images/task_images/dig.jpg"",""time"":0.29999998211860657},{""stimulus"":""run_exp/static/images/task_images/land.jpg"",""time"":807.1999999880791},{""stimulus"":""run_exp/static/images/task_images/dig.jpg"",""time"":1612.2999999821186}]",[],8,,,,,,,,,,,,,,
harvest,209,739208,0.0-67.0-1.0,"""event"",""trial"",""time""
""fullscreenenter"",""1"",""11553""
","
","
","""event"",""trial"",""time""
""fullscreenenter"",""1"",""11553""
","
",,null,run_exp/static/images/task_images/gems/53.jpg,null,,,,,,,46,,,8,,,,,53,0.876500645,0.867924528,,,,,,,
decision,210,739420,0.0-67.0-2.0,"""event"",""trial"",""time""
""fullscreenenter"",""1"",""11553""
","
","
","""event"",""trial"",""time""
""fullscreenenter"",""1"",""11553""
","
",,209.9,run_exp/static/images/task_images/land.jpg,65,,,,,,,46,,,8,,,,,,,,264118,1,3,FALSE,,,
dig,211,742225,0.0-68.0-0.0,"""event"",""trial"",""time""
""fullscreenenter"",""1"",""11553""
","
","
","""event"",""trial"",""time""
""fullscreenenter"",""1"",""11553""
","
",,,,,,,,,,,,"[{""stimulus"":""run_exp/static/images/task_images/dig.jpg"",""time"":0.5},{""stimulus"":""run_exp/static/images/task_images/land.jpg"",""time"":934.3000000119209},{""stimulus"":""run_exp/static/images/task_images/dig.jpg"",""time"":1867.9000000059605}]",[],8,,,,,,,,,,,,,,
harvest,212,743239,0.0-68.0-1.0,"""event"",""trial"",""time""
""fullscreenenter"",""1"",""11553""
","
","
","""event"",""trial"",""time""
""fullscreenenter"",""1"",""11553""
","
",,null,run_exp/static/images/task_images/gems/46.jpg,null,,,,,,,40,,,8,,,,,46,0.878285598,0.869565217,,,,,,,
decision,213,743436,0.0-68.0-2.0,"""event"",""trial"",""time""
""fullscreenenter"",""1"",""11553""
","
","
","""event"",""trial"",""time""
""fullscreenenter"",""1"",""11553""
","
",,194.5,run_exp/static/images/task_images/land.jpg,65,,,,,,,40,,,8,,,,,,,,268133,1,4,FALSE,,,
dig,214,746256,0.0-69.0-0.0,"""event"",""trial"",""time""
""fullscreenenter"",""1"",""11553""
","
","
","""event"",""trial"",""time""
""fullscreenenter"",""1"",""11553""
","
",,,,,,,,,,,,"[{""stimulus"":""run_exp/static/images/task_images/dig.jpg"",""time"":0.800000011920929},{""stimulus"":""run_exp/static/images/task_images/land.jpg"",""time"":940.2000000178814},{""stimulus"":""run_exp/static/images/task_images/dig.jpg"",""time"":1877.2000000178814}]",[],8,,,,,,,,,,,,,,
harvest,215,747261,0.0-69.0-1.0,"""event"",""trial"",""time""
""fullscreenenter"",""1"",""11553""
","
","
","""event"",""trial"",""time""
""fullscreenenter"",""1"",""11553""
","
",,null,run_exp/static/images/task_images/gems/40.jpg,null,,,,,,,33,,,8,,,,,40,0.821706466,0.825,,,,,,,
decision,216,747843,0.0-69.0-2.0,"""event"",""trial"",""time""
""fullscreenenter"",""1"",""11553""
","
","
","""event"",""trial"",""time""
""fullscreenenter"",""1"",""11553""
","
",,579.8,run_exp/static/images/task_images/land.jpg,65,,,,,,,33,,,8,,,,,,,,272540,1,5,FALSE,,,
dig,217,750275,0.0-70.0-0.0,"""event"",""trial"",""time""
""fullscreenenter"",""1"",""11553""
","
","
","""event"",""trial"",""time""
""fullscreenenter"",""1"",""11553""
","
",,,,,,,,,,,,"[{""stimulus"":""run_exp/static/images/task_images/dig.jpg"",""time"":0.4000000059604645},{""stimulus"":""run_exp/static/images/task_images/land.jpg"",""time"":815.6000000238419},{""stimulus"":""run_exp/static/images/task_images/dig.jpg"",""time"":1615.5}]",[],8,,,,,,,,,,,,,,
harvest,218,751284,0.0-70.0-1.0,"""event"",""trial"",""time""
""fullscreenenter"",""1"",""11553""
","
","
","""event"",""trial"",""time""
""fullscreenenter"",""1"",""11553""
","
",,null,run_exp/static/images/task_images/gems/33.jpg,null,,,,,,,26,,,8,,,,,33,0.801988057,0.787878788,,,,,,,
decision,219,751390,0.0-70.0-2.0,"""event"",""trial"",""time""
""fullscreenenter"",""1"",""11553""
","
","
","""event"",""trial"",""time""
""fullscreenenter"",""1"",""11553""
","
",,103.3,run_exp/static/images/task_images/land.jpg,76,,,,,,,26,,,8,,,,,,,,276088,1,6,TRUE,,,
travel,220,761294,0.0-71.0-0.0,"""event"",""trial"",""time""
""fullscreenenter"",""1"",""11553""
","
","
","""event"",""trial"",""time""
""fullscreenenter"",""1"",""11553""
","
",,,,,,,,,,,,"[{""stimulus"":""run_exp/static/images/task_images/rocket-01.jpg"",""time"":0.30000001192092896},{""stimulus"":""run_exp/static/images/task_images/rocket-02.jpg"",""time"":1105.2000000178814},{""stimulus"":""run_exp/static/images/task_images/rocket-03.jpg"",""time"":2203},{""stimulus"":""run_exp/static/images/task_images/rocket-04.jpg"",""time"":3303.9000000059605},{""stimulus"":""run_exp/static/images/task_images/rocket-05.jpg"",""time"":4400.300000011921},{""stimulus"":""run_exp/static/images/task_images/rocket-06.jpg"",""time"":5502.200000017881},{""stimulus"":""run_exp/static/images/task_images/rocket-07.jpg"",""time"":6610.4000000059605},{""stimulus"":""run_exp/static/images/task_images/rocket-08.jpg"",""time"":7710.4000000059605},{""stimulus"":""run_exp/static/images/task_images/rocket-09.jpg"",""time"":8798.90000000596}]",[],8,,,,,,,,,,,,,,
alien_welcome,221,766303,0.0-71.0-1.0,"""event"",""trial"",""time""
""fullscreenenter"",""1"",""11553""
","
","
","""event"",""trial"",""time""
""fullscreenenter"",""1"",""11553""
","
",,null,run_exp/static/images/task_images/aliens/old_aliens/planet/alien_planet-21.jpg,null,,,,,,,,,,,,,21,"13,43,42,36,46,75,4,9,21,55,47,56,71,34,32,78,5,52,68,20,37,66,15,3,24,7,57,63,77,74,40,26,1,25,50,45,17,64,72,12",,,,,,,,,,
land,222,766814,0.0-71.0-2.0,"""event"",""trial"",""time""
""fullscreenenter"",""1"",""11553""
","
","
","""event"",""trial"",""time""
""fullscreenenter"",""1"",""11553""
","
",,null,run_exp/static/images/task_images/land.jpg,null,,,,,,,96,,,9,,,,,,,,,,,,,,
dig,223,768823,0.0-71.0-3.0,"""event"",""trial"",""time""
""fullscreenenter"",""1"",""11553""
","
","
","""event"",""trial"",""time""
""fullscreenenter"",""1"",""11553""
","
",,,,,,,,,,,,"[{""stimulus"":""run_exp/static/images/task_images/dig.jpg"",""time"":0.4000000059604645},{""stimulus"":""run_exp/static/images/task_images/land.jpg"",""time"":669.0999999940395},{""stimulus"":""run_exp/static/images/task_images/dig.jpg"",""time"":1338.5999999940395}]",[],9,,,,,,,,,,,,,,
harvest,224,769834,0.0-71.0-4.0,"""event"",""trial"",""time""
""fullscreenenter"",""1"",""11553""
","
","
","""event"",""trial"",""time""
""fullscreenenter"",""1"",""11553""
","
",,null,run_exp/static/images/task_images/gems/96.jpg,null,,,,,,,27,,,9,,,,,96,0.282498057,0.28125,,,,,,,
decision,225,770333,0.0-71.0-5.0,"""event"",""trial"",""time""
""fullscreenenter"",""1"",""11553""
","
","
","""event"",""trial"",""time""
""fullscreenenter"",""1"",""11553""
","
",,497.1,run_exp/static/images/task_images/land.jpg,65,,,,,,,27,,,9,,,,,,,,295030,1,0,FALSE,,,
dig,226,772848,0.0-72.0-0.0,"""event"",""trial"",""time""
""fullscreenenter"",""1"",""11553""
","
","
","""event"",""trial"",""time""
""fullscreenenter"",""1"",""11553""
","
",,,,,,,,,,,,"[{""stimulus"":""run_exp/static/images/task_images/dig.jpg"",""time"":0.30000001192092896},{""stimulus"":""run_exp/static/images/task_images/land.jpg"",""time"":836.3000000119209},{""stimulus"":""run_exp/static/images/task_images/dig.jpg"",""time"":1676.800000011921}]",[],9,,,,,,,,,,,,,,
harvest,227,773862,0.0-72.0-1.0,"""event"",""trial"",""time""
""fullscreenenter"",""1"",""11553""
","
","
","""event"",""trial"",""time""
""fullscreenenter"",""1"",""11553""
","
",,null,run_exp/static/images/task_images/gems/27.jpg,null,,,,,,,5,,,9,,,,,27,0.167655241,0.185185185,,,,,,,
decision,228,774450,0.0-72.0-2.0,"""event"",""trial"",""time""
""fullscreenenter"",""1"",""11553""
","
","
","""event"",""trial"",""time""
""fullscreenenter"",""1"",""11553""
","
",,585.8,run_exp/static/images/task_images/land.jpg,65,,,,,,,5,,,9,,,,,,,,299148,1,1,FALSE,,,
dig,229,776869,0.0-73.0-0.0,"""event"",""trial"",""time""
""fullscreenenter"",""1"",""11553""
","
","
","""event"",""trial"",""time""
""fullscreenenter"",""1"",""11553""
","
",,,,,,,,,,,,"[{""stimulus"":""run_exp/static/images/task_images/dig.jpg"",""time"":0.30000001192092896},{""stimulus"":""run_exp/static/images/task_images/land.jpg"",""time"":810.5},{""stimulus"":""run_exp/static/images/task_images/dig.jpg"",""time"":1612.300000011921}]",[],9,,,,,,,,,,,,,,
harvest,230,777874,0.0-73.0-1.0,"""event"",""trial"",""time""
""fullscreenenter"",""1"",""11553""
","
","
","""event"",""trial"",""time""
""fullscreenenter"",""1"",""11553""
","
",,null,run_exp/static/images/task_images/gems/5.jpg,null,,,,,,,1,,,9,,,,,5,0.198679123,0.2,,,,,,,
decision,231,778235,0.0-73.0-2.0,"""event"",""trial"",""time""
""fullscreenenter"",""1"",""11553""
","
","
","""event"",""trial"",""time""
""fullscreenenter"",""1"",""11553""
","
",,359,run_exp/static/images/task_images/land.jpg,76,,,,,,,1,,,9,,,,,,,,302932,1,2,TRUE,,,
end_of_block_continue,232,787100,0.0-74.0-0.0,"""event"",""trial"",""time""
""fullscreenenter"",""1"",""11553""
","
","
","""event"",""trial"",""time""
""fullscreenenter"",""1"",""11553""
","
",,null,run_exp/static/audio/clip_32_block_end.m4a,,,,,,,null,,,,,,,,,,,,,,,,,,
alien_welcome,233,792112,0.0-75.0-0.0,"""event"",""trial"",""time""
""fullscreenenter"",""1"",""11553""
","
","
","""event"",""trial"",""time""
""fullscreenenter"",""1"",""11553""
","
",,null,run_exp/static/images/task_images/aliens/old_aliens/planet/alien_planet-55.jpg,null,,,,,,,,,,,,,55,"13,43,42,36,46,75,4,9,21,55,47,56,71,34,32,78,5,52,68,20,37,66,15,3,24,7,57,63,77,74,40,26,1,25,50,45,17,64,72,12",,,,,,,,,,
land,234,792615,0.0-75.0-1.0,"""event"",""trial"",""time""
""fullscreenenter"",""1"",""11553""
","
","
","""event"",""trial"",""time""
""fullscreenenter"",""1"",""11553""
","
",,null,run_exp/static/images/task_images/land.jpg,null,,,,,,,101,,,10,,,,,,,,,,,,,,
dig,235,794624,0.0-75.0-2.0,"""event"",""trial"",""time""
""fullscreenenter"",""1"",""11553""
","
","
","""event"",""trial"",""time""
""fullscreenenter"",""1"",""11553""
","
",,,,,,,,,,,,"[{""stimulus"":""run_exp/static/images/task_images/dig.jpg"",""time"":0.5},{""stimulus"":""run_exp/static/images/task_images/land.jpg"",""time"":675.8000000119209},{""stimulus"":""run_exp/static/images/task_images/dig.jpg"",""time"":1343.4000000059605}]",[],10,,,,,,,,,,,,,,
harvest,236,795634,0.0-75.0-3.0,"""event"",""trial"",""time""
""fullscreenenter"",""1"",""11553""
","
","
","""event"",""trial"",""time""
""fullscreenenter"",""1"",""11553""
","
",,null,run_exp/static/images/task_images/gems/101.jpg,null,,,,,,,25,,,10,,,,,101,0.243412483,0.247524752,,,,,,,
decision,237,796015,0.0-75.0-4.0,"""event"",""trial"",""time""
""fullscreenenter"",""1"",""11553""
","
","
","""event"",""trial"",""time""
""fullscreenenter"",""1"",""11553""
","
",,379.6,run_exp/static/images/task_images/land.jpg,65,,,,,,,25,,,10,,,,,,,,8907,2,0,FALSE,,,
dig,238,798645,0.0-76.0-0.0,"""event"",""trial"",""time""
""fullscreenenter"",""1"",""11553""
","
","
","""event"",""trial"",""time""
""fullscreenenter"",""1"",""11553""
","
",,,,,,,,,,,,"[{""stimulus"":""run_exp/static/images/task_images/dig.jpg"",""time"":0.29999998211860657},{""stimulus"":""run_exp/static/images/task_images/land.jpg"",""time"":881.5},{""stimulus"":""run_exp/static/images/task_images/dig.jpg"",""time"":1751.5}]",[],10,,,,,,,,,,,,,,
harvest,239,799654,0.0-76.0-1.0,"""event"",""trial"",""time""
""fullscreenenter"",""1"",""11553""
","
","
","""event"",""trial"",""time""
""fullscreenenter"",""1"",""11553""
","
",,null,run_exp/static/images/task_images/gems/25.jpg,null,,,,,,,8,,,10,,,,,25,0.306223181,0.32,,,,,,,
decision,240,799807,0.0-76.0-2.0,"""event"",""trial"",""time""
""fullscreenenter"",""1"",""11553""
","
","
","""event"",""trial"",""time""
""fullscreenenter"",""1"",""11553""
","
",,150.4,run_exp/static/images/task_images/land.jpg,65,,,,,,,8,,,10,,,,,,,,12699,2,1,FALSE,,,
dig,241,802671,0.0-77.0-0.0,"""event"",""trial"",""time""
""fullscreenenter"",""1"",""11553""
","
","
","""event"",""trial"",""time""
""fullscreenenter"",""1"",""11553""
","
",,,,,,,,,,,,"[{""stimulus"":""run_exp/static/images/task_images/dig.jpg"",""time"":0.4000000059604645},{""stimulus"":""run_exp/static/images/task_images/land.jpg"",""time"":951},{""stimulus"":""run_exp/static/images/task_images/dig.jpg"",""time"":1912}]",[],10,,,,,,,,,,,,,,
harvest,242,803680,0.0-77.0-1.0,"""event"",""trial"",""time""
""fullscreenenter"",""1"",""11553""
","
","
","""event"",""trial"",""time""
""fullscreenenter"",""1"",""11553""
","
",,null,run_exp/static/images/task_images/gems/8.jpg,null,,,,,,,1,,,10,,,,,8,0.180299915,0.125,,,,,,,
decision,243,804017,0.0-77.0-2.0,"""event"",""trial"",""time""
""fullscreenenter"",""1"",""11553""
","
","
","""event"",""trial"",""time""
""fullscreenenter"",""1"",""11553""
","
",,335,run_exp/static/images/task_images/land.jpg,76,,,,,,,1,,,10,,,,,,,,16909,2,2,TRUE,,,
travel,244,813685,0.0-78.0-0.0,"""event"",""trial"",""time""
""fullscreenenter"",""1"",""11553""
","
","
","""event"",""trial"",""time""
""fullscreenenter"",""1"",""11553""
","
",,,,,,,,,,,,"[{""stimulus"":""run_exp/static/images/task_images/rocket-01.jpg"",""time"":0.30000001192092896},{""stimulus"":""run_exp/static/images/task_images/rocket-02.jpg"",""time"":1080.7000000178814},{""stimulus"":""run_exp/static/images/task_images/rocket-03.jpg"",""time"":2149.7000000178814},{""stimulus"":""run_exp/static/images/task_images/rocket-04.jpg"",""time"":3223},{""stimulus"":""run_exp/static/images/task_images/rocket-05.jpg"",""time"":4297},{""stimulus"":""run_exp/static/images/task_images/rocket-06.jpg"",""time"":5372.800000011921},{""stimulus"":""run_exp/static/images/task_images/rocket-07.jpg"",""time"":6441.700000017881},{""stimulus"":""run_exp/static/images/task_images/rocket-08.jpg"",""time"":7513.9000000059605},{""stimulus"":""run_exp/static/images/task_images/rocket-09.jpg"",""time"":8592.200000017881}]",[],10,,,,,,,,,,,,,,
alien_welcome,245,818698,0.0-78.0-1.0,"""event"",""trial"",""time""
""fullscreenenter"",""1"",""11553""
","
","
","""event"",""trial"",""time""
""fullscreenenter"",""1"",""11553""
","
",,null,run_exp/static/images/task_images/aliens/old_aliens/planet/alien_planet-47.jpg,null,,,,,,,,,,,,,47,"13,43,42,36,46,75,4,9,21,55,47,56,71,34,32,78,5,52,68,20,37,66,15,3,24,7,57,63,77,74,40,26,1,25,50,45,17,64,72,12",,,,,,,,,,
land,246,819201,0.0-78.0-2.0,"""event"",""trial"",""time""
""fullscreenenter"",""1"",""11553""
","
","
","""event"",""trial"",""time""
""fullscreenenter"",""1"",""11553""
","
",,null,run_exp/static/images/task_images/land.jpg,null,,,,,,,105,,,11,,,,,,,,,,,,,,
dig,247,821206,0.0-78.0-3.0,"""event"",""trial"",""time""
""fullscreenenter"",""1"",""11553""
","
","
","""event"",""trial"",""time""
""fullscreenenter"",""1"",""11553""
","
",,,,,,,,,,,,"[{""stimulus"":""run_exp/static/images/task_images/dig.jpg"",""time"":0.5},{""stimulus"":""run_exp/static/images/task_images/land.jpg"",""time"":673.3000000119209},{""stimulus"":""run_exp/static/images/task_images/dig.jpg"",""time"":1342.4000000059605}]",[],11,,,,,,,,,,,,,,
harvest,248,822214,0.0-78.0-4.0,"""event"",""trial"",""time""
""fullscreenenter"",""1"",""11553""
","
","
","""event"",""trial"",""time""
""fullscreenenter"",""1"",""11553""
","
",,null,run_exp/static/images/task_images/gems/105.jpg,null,,,,,,,20,,,11,,,,,105,0.19426038,0.19047619,,,,,,,
decision,249,822607,0.0-78.0-5.0,"""event"",""trial"",""time""
""fullscreenenter"",""1"",""11553""
","
","
","""event"",""trial"",""time""
""fullscreenenter"",""1"",""11553""
","
",,391.1,run_exp/static/images/task_images/land.jpg,65,,,,,,,20,,,11,,,,,,,,35499,2,0,FALSE,,,
dig,250,825226,0.0-79.0-0.0,"""event"",""trial"",""time""
""fullscreenenter"",""1"",""11553""
","
","
