trial_type,trial_index,time_elapsed,internal_node_id,success,rt,stimulus,key_press,prompt,subject_id,age,gender,button_pressed,next_reward,animation_sequence,responses,planet,curr_prac_trial,n_prac_rounds,alien,aliens,reward_received,decay_rate_actual,decay_rate_exp,time_in_block,block_num,prt,last_trial_on_planet,button_html,bonus,num_failures
pavlovia,0,6,0.0-0.0,,,,,,,,,,,,,,,,,,,,,,,,,,,
fullscreen,1,12691,0.0-1.0,TRUE,,,,,,,,,,,,,,,,,,,,,,,,,,
instruc_welcome,2,22645,0.0-2.0,,null,run_exp/static/audio/clip_1_welcome.m4a,null,"<p>Howdy! In this experiment, you’ll be an explorer traveling through space to collect space treasure.</p><p>Your mission is to collect as much treasure as possible.</p><br><br><p><img src='run_exp/static/images/task_images/opening_img-01.jpg' height='300' width='auto'></p>",trEiwhVO8K99ZMh_a5Ke5UddwllDBGZ_MLRP_5as01E7bGoUhmzY,10.24,male,,,,,,,,,,,,,,,,,,,
audio-keyboard-response,3,39245,0.0-3.0,,null,run_exp/static/audio/clip_2_move.m4a,null,,,,,,,,,,,,,,,,,,,,,,,
welcome_dec,4,41655,0.0-4.0,,2407.49,"<p>Howdy! In this experiment, you’ll be an explorer traveling through space to collect space treasure.</p><p>Your mission is to collect as much treasure as possible.</p><br><br><p><img src='run_exp/static/images/task_images/opening_img-01.jpg' height='300' width='auto'></p>",,,,,,1,,,,,,,,,,,,,,,,,,
html-keyboard-response,5,42826,0.0-5.0,,1169.005,"<p>Howdy! In this experiment, you’ll be an explorer traveling through space to collect space treasure.</p><p>Your mission is to collect as much treasure as possible.</p><br><br><p><img src='run_exp/static/images/task_images/opening_img-01.jpg' height='300' width='auto'></p><button class=""jspsych-html-btn-unchosen""><img src=""run_exp/static/images/task_images/planet-01.jpg"" height=""50""></button><button class=""jspsych-html-btn-chosen""><img src=""run_exp/static/images/task_images/planet-02.jpg"" height=""50""></button><p><b>[press the space bar to lock in your answer]<b><br></p>",32,,,,,,,,,,,,,,,,,,,,,,,
instruc_goal,6,52904,0.0-6.0-0.0,,null,run_exp/static/audio/clip_3_goal.m4a,null,"<p> As a space explorer, you’ll visit different planets to dig for space treasure, these pink gems.</p> <p> The more treasure you dig up, the more bonus money you’ll win! </p><br><br><p><img src='run_exp/static/images/task_images/pink_gem.jpg' height='300' width='auto'></p>",,,,,,,,,,,,,,,,,,,,,,
instruc_goal,7,55174,0.0-6.0-1.0,,2267.475,"<p> As a space explorer, you’ll visit different planets to dig for space treasure, these pink gems.</p> <p> The more treasure you dig up, the more bonus money you’ll win! </p><br><br><p><img src='run_exp/static/images/task_images/pink_gem.jpg' height='300' width='auto'></p>",,,,,,1,,,,,,,,,,,,,,,,,,
html-keyboard-response,8,55695,0.0-6.0-2.0,,520.24,"<p> As a space explorer, you’ll visit different planets to dig for space treasure, these pink gems.</p> <p> The more treasure you dig up, the more bonus money you’ll win! </p><br><br><p><img src='run_exp/static/images/task_images/pink_gem.jpg' height='300' width='auto'></p><button class=""jspsych-html-btn-unchosen""><img src=""run_exp/static/images/task_images/planet-01.jpg"" height=""50""></button><button class=""jspsych-html-btn-chosen""><img src=""run_exp/static/images/task_images/planet-02.jpg"" height=""50""></button><p><b>[press the space bar to lock in your answer]<b><br></p>",32,,,,,,,,,,,,,,,,,,,,,,,
instruc_dig,9,71704,0.0-7.0-0.0,,null,run_exp/static/audio/clip_4_dig.m4a,null,,,,,,100,,,,,,,,,,,,,,,,,
instruc_dig_try,10,72465,0.0-7.0-1.0,,759.78,"<p> When you’ve arrived at a new planet, you will dig once. </p> <p>Then, you get to decide if you want to stay on the planet and dig again or travel to a new planet and dig there.</p> <p> To stay and dig, press the letter <strong>‘A’</strong> on your keyboard. Try pressing it now! </p><p><img src='run_exp/static/images/task_images/land.jpg'  height='700' width='auto'></p>",65,"<p> When you’ve arrived at a new planet, you will dig once. </p> <p>Then, you get to decide if you want to stay on the planet and dig again or travel to a new planet and dig there.</p> <p> To stay and dig, press the letter <strong>‘A’</strong> on your keyboard. Try pressing it now! </p><p><img src='run_exp/static/images/task_images/land.jpg'  height='700' width='auto'></p>",,,,,100,,,,,,,,,,,,,,,,,
dig_prac,11,74479,0.0-7.0-2.0,,,,,,,,,,,"[{""stimulus"":""run_exp/static/images/task_images/dig.jpg"",""time"":0.23499999998603016},{""stimulus"":""run_exp/static/images/task_images/land.jpg"",""time"":669.155000000057},{""stimulus"":""run_exp/static/images/task_images/dig.jpg"",""time"":1335.3349999999919}]",[],,,,,,,,,,,,,,,
instruc_travel,12,110725,0.0-7.0-3.0,,null,run_exp/static/audio/clip_5_travel.m4a,null,"<p>Every time you dig up gems, there are less gems on the planet, so the more you dig on a planet the fewer gems you’ll get with each dig.</p><p>When gems are running low, you may want to travel to a new planet. </p> <p>  Planets are very far apart in this galaxy, so it will take some time to travel between them. </p> <br><p>There are lots and lots of planets for you to visit, so you won’t be able to return to any planets you’ve seen before. </p><br><p>To leave this planet and travel to a new one, press the letter <strong>‘L’</strong> on your keyboard. Try pressing it now! </p><p><img src='run_exp/static/images/task_images/rocket-01.jpg'  height='600' width='auto'></p>",,,,,,,,,,,,,,,,,,,,,,
instruc_travel_try,13,112386,0.0-7.0-4.0,,1659.26,"<p>Every time you dig up gems, there are less gems on the planet, so the more you dig on a planet the fewer gems you’ll get with each dig.</p><p>When gems are running low, you may want to travel to a new planet. </p> <p>  Planets are very far apart in this galaxy, so it will take some time to travel between them. </p> <br><p>There are lots and lots of planets for you to visit, so you won’t be able to return to any planets you’ve seen before. </p><br><p>To leave this planet and travel to a new one, press the letter <strong>‘L’</strong> on your keyboard. Try pressing it now! </p><p><img src='run_exp/static/images/task_images/rocket-01.jpg'  height='600' width='auto'></p>",76,"<p>Every time you dig up gems, there are less gems on the planet, so the more you dig on a planet the fewer gems you’ll get with each dig.</p><p>When gems are running low, you may want to travel to a new planet. </p> <p>  Planets are very far apart in this galaxy, so it will take some time to travel between them. </p> <br><p>There are lots and lots of planets for you to visit, so you won’t be able to return to any planets you’ve seen before. </p><br><p>To leave this planet and travel to a new one, press the letter <strong>‘L’</strong> on your keyboard. Try pressing it now! </p><p><img src='run_exp/static/images/task_images/rocket-01.jpg'  height='600' width='auto'></p>",,,,,,,,,,,,,,,,,,,,,,
travel_prac,14,122394,0.0-7.0-5.0,,,,,,,,,,,"[{""stimulus"":""run_exp/static/images/task_images/rocket-01.jpg"",""time"":0.1750000000174623},{""stimulus"":""run_exp/static/images/task_images/rocket-02.jpg"",""time"":1112.8149999999441},{""stimulus"":""run_exp/static/images/task_images/rocket-03.jpg"",""time"":2231.2799999999697},{""stimulus"":""run_exp/static/images/task_images/rocket-04.jpg"",""time"":3348.1749999999593},{""stimulus"":""run_exp/static/images/task_images/rocket-05.jpg"",""time"":4453.189999999944},{""stimulus"":""run_exp/static/images/task_images/rocket-06.jpg"",""time"":5558.814999999973},{""stimulus"":""run_exp/static/images/task_images/rocket-07.jpg"",""time"":6673.265000000014},{""stimulus"":""run_exp/static/images/task_images/rocket-08.jpg"",""time"":7779.419999999955},{""stimulus"":""run_exp/static/images/task_images/rocket-09.jpg"",""time"":8900.68499999994}]",[],0,,,,,,,,,,,,,,
instruc_alien_greet,15,149575,0.0-7.0-6.0,,null,run_exp/static/audio/clip_6_alien.m4a,null,"<p>When you arrive at a new planet, the alien who owns the treasure mine on that planet will greet you!</p><p>The better an alien takes care of their mine the easier it is to dig for gems. Some aliens take better care of their mine than others. So, you won’t get exactly the same amount of gems on each planet.</p><p>What the alien looks like does not tell you anything about how many gems there are on the planet.</p><br><p><img src=""run_exp/static/images/task_images/aliens/instructions_aliens/planet/alien_planet-1.jpg""  height=""600"" width=""auto""></p>",,,,,,,,,,,,,,,,,,,,,,
instruc_alien_greet,16,151883,0.0-7.0-7.0,,2306.295,"<p>When you arrive at a new planet, the alien who owns the treasure mine on that planet will greet you!</p><p>The better an alien takes care of their mine the easier it is to dig for gems. Some aliens take better care of their mine than others. So, you won’t get exactly the same amount of gems on each planet.</p><p>What the alien looks like does not tell you anything about how many gems there are on the planet.</p><br><p><img src=""run_exp/static/images/task_images/aliens/instructions_aliens/planet/alien_planet-1.jpg""  height=""600"" width=""auto""></p>",,,,,,1,,,,,,,,,,,,,,,,,,
html-keyboard-response,17,152434,0.0-7.0-8.0,,549.09,"<p>When you arrive at a new planet, the alien who owns the treasure mine on that planet will greet you!</p><p>The better an alien takes care of their mine the easier it is to dig for gems. Some aliens take better care of their mine than others. So, you won’t get exactly the same amount of gems on each planet.</p><p>What the alien looks like does not tell you anything about how many gems there are on the planet.</p><br><p><img src=""run_exp/static/images/task_images/aliens/instructions_aliens/planet/alien_planet-1.jpg""  height=""600"" width=""auto""></p><button class=""jspsych-html-btn-unchosen""><img src=""run_exp/static/images/task_images/planet-01.jpg"" height=""50""></button><button class=""jspsych-html-btn-chosen""><img src=""run_exp/static/images/task_images/planet-02.jpg"" height=""50""></button><p><b>[press the space bar to lock in your answer]<b><br></p>",32,,,,,,,,,,,,,,,,,,,,,,,
time_out,18,163535,0.0-8.0-0.0,,null,run_exp/static/audio/clip_7_timeout.m4a,null,"<p>If you don't make your choice fast enough, you’ll have to wait a few seconds before you can make another one.</p><p>You can’t dig for more gems or travel to new planets. You just have to sit and wait.</p><br><p><img src='run_exp/static/images/task_images/time_out.jpg'  height='600' width='auto'></p>",,,,,,,,,,,,,,,,,,,,,,
time_out,19,165409,0.0-8.0-1.0,,1871.34,"<p>If you don't make your choice fast enough, you’ll have to wait a few seconds before you can make another one.</p><p>You can’t dig for more gems or travel to new planets. You just have to sit and wait.</p><br><p><img src='run_exp/static/images/task_images/time_out.jpg'  height='600' width='auto'></p>",,,,,,1,,,,,,,,,,,,,,,,,,
html-keyboard-response,20,165874,0.0-8.0-2.0,,463.125,"<p>If you don't make your choice fast enough, you’ll have to wait a few seconds before you can make another one.</p><p>You can’t dig for more gems or travel to new planets. You just have to sit and wait.</p><br><p><img src='run_exp/static/images/task_images/time_out.jpg'  height='600' width='auto'></p><button class=""jspsych-html-btn-unchosen""><img src=""run_exp/static/images/task_images/planet-01.jpg"" height=""50""></button><button class=""jspsych-html-btn-chosen""><img src=""run_exp/static/images/task_images/planet-02.jpg"" height=""50""></button><p><b>[press the space bar to lock in your answer]<b><br></p>",32,,,,,,,,,,,,,,,,,,,,,,,
instruc_break,21,181555,0.0-9.0-0.0,,null,run_exp/static/audio/clip_8_break.m4a,null,"<p> After digging and traveling for a while, you’ll be able to take a break at home base. </p><p>The game will last 20 minutes no matter what.</p><p>You will visit home base every 5 minutes, so, you will visit home base three times during the game.</p><br><p><img src='run_exp/static/images/task_images/home_base.jpg' height='600' width='auto'></p>",,,,,,,,,,,,,,,,,,,,,,
instruc_break,22,183654,0.0-9.0-1.0,,2094.355,"<p> After digging and traveling for a while, you’ll be able to take a break at home base. </p><p>The game will last 20 minutes no matter what.</p><p>You will visit home base every 5 minutes, so, you will visit home base three times during the game.</p><br><p><img src='run_exp/static/images/task_images/home_base.jpg' height='600' width='auto'></p>",,,,,,1,,,,,,,,,,,,,,,,,,
html-keyboard-response,23,185714,0.0-9.0-2.0,,2058.835,"<p> After digging and traveling for a while, you’ll be able to take a break at home base. </p><p>The game will last 20 minutes no matter what.</p><p>You will visit home base every 5 minutes, so, you will visit home base three times during the game.</p><br><p><img src='run_exp/static/images/task_images/home_base.jpg' height='600' width='auto'></p><button class=""jspsych-html-btn-unchosen""><img src=""run_exp/static/images/task_images/planet-01.jpg"" height=""50""></button><button class=""jspsych-html-btn-chosen""><img src=""run_exp/static/images/task_images/planet-02.jpg"" height=""50""></button><p><b>[press the space bar to lock in your answer]<b><br></p>",32,,,,,,,,,,,,,,,,,,,,,,,
instruc_prac_game,24,195855,0.0-10.0-0.0,,null,run_exp/static/audio/clip_9_practice.m4a,null,"<p> Are you ready to play a practice game? </p> <p>In this practice game, you'll be digging up barrels of gems. But, in the real game, you'll be digging up the gems themselves. </p>",,,,,,,,,,,,,,,,,,,,,,
html-button-response,25,198807,0.0-10.0-1.0,,2949.51,"<p> Are you ready to play a practice game? </p> <p>In this practice game, you'll be digging up barrels of gems. But, in the real game, you'll be digging up the gems themselves. </p>",,,,,,0,,,,,,,,,,,,,,,,,,
alien_welcome_prac,26,203819,0.0-11.0-0.0,,null,run_exp/static/images/task_images/aliens/practice_aliens/planet/alien_planet-5.jpg,null,,,,,,,,,,,,,,,,,,,,,,,
land_prac,27,204327,0.0-11.0-1.0,,null,run_exp/static/images/task_images/land.jpg,null,,,,,,93,,,0,,,,,,,,,,,,,,
dig_prac,28,206336,0.0-11.0-2.0,,,,,,,,,,,"[{""stimulus"":""run_exp/static/images/task_images/dig.jpg"",""time"":0.5250000000523869},{""stimulus"":""run_exp/static/images/task_images/land.jpg"",""time"":679.8949999999895},{""stimulus"":""run_exp/static/images/task_images/dig.jpg"",""time"":1340.0550000000221}]",[],,,,,,,,,,,,,,,
harvest_prac,29,207343,0.0-11.0-3.0,,null,run_exp/static/images/task_images/barrel_text.jpg,null,,,,,,,,,,,,,,,,,,,,,,,
decision_prac,30,210354,0.0-11.0-4.0,,null,run_exp/static/images/task_images/land.jpg,null,,,,,,,,,,1,,,,,,,,,,,,,
time_out,31,212367,0.0-12.0-0.0,,null,run_exp/static/images/task_images/time_out.jpg,null,,,,,,,,,,,,,,,,,,,,,,,
decision_prac,32,213147,0.0-12.0-1.0,,777.65,run_exp/static/images/task_images/land.jpg,65,,,,,,,,,,2,,,,,,,,,,,,,
dig_prac,33,215160,0.0-13.0-0.0,,,,,,,,,,,"[{""stimulus"":""run_exp/static/images/task_images/dig.jpg"",""time"":0.1349999999802094},{""stimulus"":""run_exp/static/images/task_images/land.jpg"",""time"":678.7449999999371},{""stimulus"":""run_exp/static/images/task_images/dig.jpg"",""time"":1337.804999999993}]",[],,,,,,,,,,,,,,,
harvest_prac,34,216168,0.0-13.0-1.0,,null,run_exp/static/images/task_images/barrel_text.jpg,null,,,,,,,,,,,,,,,,,,,,,,,
decision_prac,35,217734,0.0-13.0-2.0,,1565.195,run_exp/static/images/task_images/land.jpg,76,,,,,,,,,,3,,,,,,,,,,,,,
travel,36,226174,0.0-14.0-0.0,,,,,,,,,,,"[{""stimulus"":""run_exp/static/images/task_images/rocket-01.jpg"",""time"":0.1699999999254942},{""stimulus"":""run_exp/static/images/task_images/rocket-02.jpg"",""time"":949.304999999993},{""stimulus"":""run_exp/static/images/task_images/rocket-03.jpg"",""time"":1879.6149999999616},{""stimulus"":""run_exp/static/images/task_images/rocket-04.jpg"",""time"":2814.944999999978},{""stimulus"":""run_exp/static/images/task_images/rocket-05.jpg"",""time"":3754.049999999901},{""stimulus"":""run_exp/static/images/task_images/rocket-06.jpg"",""time"":4693.409999999974},{""stimulus"":""run_exp/static/images/task_images/rocket-07.jpg"",""time"":5630.045000000013},{""stimulus"":""run_exp/static/images/task_images/rocket-08.jpg"",""time"":6568.054999999964},{""stimulus"":""run_exp/static/images/task_images/rocket-09.jpg"",""time"":7511.719999999972}]",[],0,,,,,,,,,,,,,,
alien_welcome_prac,37,231187,0.0-14.0-1.0,,null,run_exp/static/images/task_images/aliens/practice_aliens/planet/alien_planet-4.jpg,null,,,,,,,,,,,,,,,,,,,,,,,
land_prac,38,231700,0.0-14.0-2.0,,null,run_exp/static/images/task_images/land.jpg,null,,,,,,110,,,0,,,,,,,,,,,,,,
dig_prac,39,233708,0.0-14.0-3.0,,,,,,,,,,,"[{""stimulus"":""run_exp/static/images/task_images/dig.jpg"",""time"":0.1750000000174623},{""stimulus"":""run_exp/static/images/task_images/land.jpg"",""time"":675.4349999999977},{""stimulus"":""run_exp/static/images/task_images/dig.jpg"",""time"":1347.4049999999988}]",[],,,,,,,,,,,,,,,
harvest_prac,40,234716,0.0-14.0-4.0,,null,run_exp/static/images/task_images/barrel_text.jpg,null,,,,,,,,,,,,,,,,,,,,,,,
decision_prac,41,235896,0.0-14.0-5.0,,1177.76,run_exp/static/images/task_images/land.jpg,65,,,,,,,,,,4,,,,,,,,,,,,,
dig_prac,42,237919,0.0-15.0-0.0,,,,,,,,,,,"[{""stimulus"":""run_exp/static/images/task_images/dig.jpg"",""time"":0.45000000001164153},{""stimulus"":""run_exp/static/images/task_images/land.jpg"",""time"":684.3349999999627},{""stimulus"":""run_exp/static/images/task_images/dig.jpg"",""time"":1338.4199999999255}]",[],,,,,,,,,,,,,,,
harvest_prac,43,238936,0.0-15.0-1.0,,null,run_exp/static/images/task_images/barrel_text.jpg,null,,,,,,,,,,,,,,,,,,,,,,,
decision_prac,44,240435,0.0-15.0-2.0,,1496.84,run_exp/static/images/task_images/land.jpg,65,,,,,,,,,,,1,,,,,,,,,,,,
quiz_instruc,45,245145,0.0-16.0-0.0,,4700.815,run_exp/static/audio/clip_10_quiz.m4a,,,,,,0,,,,,,,,,,,,,,,,,,
instruc_repeat,46,287935,0.0-16.0-1.0,,null,"<p> Are you ready to play a practice game? </p> <p>In this practice game, you'll be digging up barrels of gems. But, in the real game, you'll be digging up the gems themselves. </p>",null,"<p>In this game, your goal is to collect as many gems as you can. That’s how you will win bonus money. </p> <p>The entire game will last 20 minutes no matter how many gems you collect or how many planets you visit. </p><p>To stay on a planet and dig again, press the letter A on your keyboard. To leave for a new planet, press the letter L.</p><p>The more you dig on a planet, the fewer gems you’ll get with each dig which is why you might consider leaving for a new planet. </p><p>When you arrive at a new planet, you’ll be greeted by an alien. What the alien looks like does not tell you anything about how much treasure is on the planet. </p>",,,,,,,,,,,,,,,,,,,,,,
instruc_repeat_continue,47,290051,0.0-16.0-2.0,,2112.77,"<p> Are you ready to play a practice game? </p> <p>In this practice game, you'll be digging up barrels of gems. But, in the real game, you'll be digging up the gems themselves. </p>",,,,,,0,,,,,,,,,,,,,,,,,,
quiz_q_1_ask,48,295104,0.0-16.0-3.0,,5044.5,run_exp/static/audio/clip_11_q1_ask.m4a,,,,,,2,,,,,,,,,,,,,,,,,,
quiz_q_1_fb_correct,49,298976,0.0-17.0-0.0,,null,run_exp/static/audio/clip_12_q1_corrrect.m4a,null,<p>That’s correct. You win extra money by collecting more gems.</p>,,,,,,,,,,,,,,,,,,,,,,
quiz_q_2_ask,50,302163,0.0-17.0-1.0,,3181.975,run_exp/static/audio/clip_14_q2_ask.m4a,,,,,,1,,,,,,,,,,,,,,,,,,
quiz_q_2_fb_correct,51,306195,0.0-18.0-0.0,,null,run_exp/static/audio/clip_15_q2_correct.m4a,null,<p>That’s correct. The experiment is 20 minutes no matter what.</p>,,,,,,,,,,,,,,,,,,,,,,
quiz_q_3_ask,52,314457,0.0-18.0-1.0,,8257.655,run_exp/static/audio/clip_17_q3_ask.m4a,,,,,,1,,,,,,,,,,,,,,,,,,
quiz_q_3_fb_correct,53,318476,0.0-19.0-0.0,,null,run_exp/static/audio/clip_18_q3_correct.m4a,null,<p> That’s correct. You press the letter L to travel to a new planet.</p>,,,,,,,,,,,,,,,,,,,,,,
quiz_q_4_ask,54,323035,0.0-19.0-1.0,,4554.03,run_exp/static/audio/clip_20_q4_ask.m4a,,,,,,0,,,,,,,,,,,,,,,,,,
quiz_q_4_fb_correct,55,328376,0.0-20.0-0.0,,null,run_exp/static/audio/clip_21_q4_correct.m4a,null,<p> That’s correct. The more you dig on a planet the fewer gems you’ll get with each dig. </p>,,,,,,,,,,,,,,,,,,,,,,
quiz_q_5_ask,56,333061,0.0-20.0-1.0,,4678.74,run_exp/static/audio/clip_23_q5_ask.m4a,,,,,,1,,,,,,,,,,,,,,,,,,
quiz_q_5_fb_correct,57,338098,0.0-21.0-0.0,,null,run_exp/static/audio/clip_24_q5_correct.m4a,null,<p> That’s correct. The alien tells you nothing about how much treasure is on the planet.</p>,,,,,,,,,,,,,,,,,,,,,,
quiz_correct,58,341575,0.0-22.0-0.0,,null,run_exp/static/audio/clip_26_correct_quiz.m4a,null,,,,,,,,,,,,,,,,,,,,,,,
quiz_correct_continue,59,344305,0.0-22.0-1.0,,2725.865,<p>Good job! You're now ready to move on to the real game!</p>,,,,,,0,,,,,,,,,,,,,,,,,,
audio-keyboard-response,60,354456,0.0-22.0-2.0,,null,run_exp/static/audio/clip_28_real_game.m4a,null,,,,,,,,,,,,,,,,,,,,,,,
instruc_begin_exp_contine,61,356360,0.0-22.0-3.0,,1899.09,"<p>Now that you know how  to dig for space treasure and travel to new planets,you can start exploring! </p><p>Do you want to go over the instructions again or get started with the real game?</p>",,,,,,1,,,,,,1,,,,,,,,,,,,
alien_welcome,62,361394,0.0-23.0-0.0,,null,run_exp/static/images/task_images/aliens/old_aliens/planet/alien_planet-63.jpg,null,,,,,,,,,,,,63,"63,56,47,17,10,77,32,61,34,4,27,52,7,80,74,45,44,8,3,9,28,60,78,67,22,37,76,31,25,23,15,48,26,54,68,19,21,40,24,49,1,66,2,41,75,30,62,50,38,70,36,57,5,69,64,6,39,79,20,33,51,72",,,,,,,,,,
land,63,361908,0.0-23.0-1.0,,null,run_exp/static/images/task_images/land.jpg,null,,,,,,101,,,1,,,,,,,,,,,,,,
dig,64,363930,0.0-23.0-2.0,,,,,,,,,,,"[{""stimulus"":""run_exp/static/images/task_images/dig.jpg"",""time"":0.4899999999906868},{""stimulus"":""run_exp/static/images/task_images/land.jpg"",""time"":673.4400000000023},{""stimulus"":""run_exp/static/images/task_images/dig.jpg"",""time"":1345.0699999999488}]",[],1,,,,,,,,,,,,,,
harvest,65,364947,0.0-23.0-3.0,,null,run_exp/static/images/task_images/gems/101.jpg,null,,,,,,30,,,1,,,,,101,0.294392745,0.297029703,,,,,,,
decision,66,366493,0.0-23.0-4.0,,1541.415,run_exp/static/images/task_images/land.jpg,65,,,,,,30,,,1,,,,,,,,10125,1,0,FALSE,,,
dig,67,367957,0.0-24.0-0.0,,,,,,,,,,,"[{""stimulus"":""run_exp/static/images/task_images/dig.jpg"",""time"":0.12500000005820766},{""stimulus"":""run_exp/static/images/task_images/land.jpg"",""time"":492.3199999999488},{""stimulus"":""run_exp/static/images/task_images/dig.jpg"",""time"":982.2299999999814}]",[],1,,,,,,,,,,,,,,
harvest,68,368964,0.0-24.0-1.0,,null,run_exp/static/images/task_images/gems/30.jpg,null,,,,,,6,,,1,,,,,30,0.194431625,0.2,,,,,,,
decision,69,369664,0.0-24.0-2.0,,696.345,run_exp/static/images/task_images/land.jpg,65,,,,,,6,,,1,,,,,,,,13295,1,1,FALSE,,,
dig,70,371968,0.0-25.0-0.0,,,,,,,,,,,"[{""stimulus"":""run_exp/static/images/task_images/dig.jpg"",""time"":0.125},{""stimulus"":""run_exp/static/images/task_images/land.jpg"",""time"":777.9949999999953},{""stimulus"":""run_exp/static/images/task_images/dig.jpg"",""time"":1550.0500000000466}]",[],1,,,,,,,,,,,,,,
harvest,71,372984,0.0-25.0-1.0,,null,run_exp/static/images/task_images/gems/6.jpg,null,,,,,,1,,,1,,,,,6,0.224521664,0.166666667,,,,,,,
decision,72,373165,0.0-25.0-2.0,,177.345,run_exp/static/images/task_images/land.jpg,65,,,,,,1,,,1,,,,,,,,16796,1,2,FALSE,,,
dig,73,376004,0.0-26.0-0.0,,,,,,,,,,,"[{""stimulus"":""run_exp/static/images/task_images/dig.jpg"",""time"":0.49000000004889444},{""stimulus"":""run_exp/static/images/task_images/land.jpg"",""time"":943.3500000000349},{""stimulus"":""run_exp/static/images/task_images/dig.jpg"",""time"":1884.4199999999837}]",[],1,,,,,,,,,,,,,,
harvest,74,377022,0.0-26.0-1.0,,null,run_exp/static/images/task_images/gems/1.jpg,null,,,,,,0,,,1,,,,,1,0.197648955,0,,,,,,,
decision,75,377343,0.0-26.0-2.0,,318.265,run_exp/static/images/task_images/land.jpg,76,,,,,,0,,,1,,,,,,,,20975,1,3,TRUE,,,
travel,76,387044,0.0-27.0-0.0,,,,,,,,,,,"[{""stimulus"":""run_exp/static/images/task_images/rocket-01.jpg"",""time"":0.6300000000046566},{""stimulus"":""run_exp/static/images/task_images/rocket-02.jpg"",""time"":1086.4800000000396},{""stimulus"":""run_exp/static/images/task_images/rocket-03.jpg"",""time"":2165.75},{""stimulus"":""run_exp/static/images/task_images/rocket-04.jpg"",""time"":3235.8700000001118},{""stimulus"":""run_exp/static/images/task_images/rocket-05.jpg"",""time"":4305.500000000058},{""stimulus"":""run_exp/static/images/task_images/rocket-06.jpg"",""time"":5382.10500000004},{""stimulus"":""run_exp/static/images/task_images/rocket-07.jpg"",""time"":6456.310000000056},{""stimulus"":""run_exp/static/images/task_images/rocket-08.jpg"",""time"":7529.975000000035},{""stimulus"":""run_exp/static/images/task_images/rocket-09.jpg"",""time"":8617.180000000051}]",[],1,,,,,,,,,,,,,,
alien_welcome,77,392052,0.0-27.0-1.0,,null,run_exp/static/images/task_images/aliens/old_aliens/planet/alien_planet-56.jpg,null,,,,,,,,,,,,56,"63,56,47,17,10,77,32,61,34,4,27,52,7,80,74,45,44,8,3,9,28,60,78,67,22,37,76,31,25,23,15,48,26,54,68,19,21,40,24,49,1,66,2,41,75,30,62,50,38,70,36,57,5,69,64,6,39,79,20,33,51,72",,,,,,,,,,
land,78,392570,0.0-27.0-2.0,,null,run_exp/static/images/task_images/land.jpg,null,,,,,,96,,,2,,,,,,,,,,,,,,
dig,79,394579,0.0-27.0-3.0,,,,,,,,,,,"[{""stimulus"":""run_exp/static/images/task_images/dig.jpg"",""time"":0.6350000000675209},{""stimulus"":""run_exp/static/images/task_images/land.jpg"",""time"":675.7650000000722},{""stimulus"":""run_exp/static/images/task_images/dig.jpg"",""time"":1348.4249999999884}]",[],2,,,,,,,,,,,,,,
harvest,80,395596,0.0-27.0-4.0,,null,run_exp/static/images/task_images/gems/96.jpg,null,,,,,,25,,,2,,,,,96,0.255524094,0.260416667,,,,,,,
decision,81,396252,0.0-27.0-5.0,,652.85,run_exp/static/images/task_images/land.jpg,65,,,,,,25,,,2,,,,,,,,39883,1,0,FALSE,,,
dig,82,398618,0.0-28.0-0.0,,,,,,,,,,,"[{""stimulus"":""run_exp/static/images/task_images/dig.jpg"",""time"":0.6899999999441206},{""stimulus"":""run_exp/static/images/task_images/land.jpg"",""time"":786.484999999986},{""stimulus"":""run_exp/static/images/task_images/dig.jpg"",""time"":1573.4649999999092}]",[],2,,,,,,,,,,,,,,
harvest,83,399622,0.0-28.0-1.0,,null,run_exp/static/images/task_images/gems/25.jpg,null,,,,,,4,,,2,,,,,25,0.17504788,0.16,,,,,,,
decision,84,400322,0.0-28.0-2.0,,696.64,run_exp/static/images/task_images/land.jpg,76,,,,,,4,,,2,,,,,,,,43953,1,1,TRUE,,,
travel,85,409643,0.0-29.0-0.0,,,,,,,,,,,"[{""stimulus"":""run_exp/static/images/task_images/rocket-01.jpg"",""time"":0.439999999885913},{""stimulus"":""run_exp/static/images/task_images/rocket-02.jpg"",""time"":1041.4449999999488},{""stimulus"":""run_exp/static/images/task_images/rocket-03.jpg"",""time"":2081.6549999999697},{""stimulus"":""run_exp/static/images/task_images/rocket-04.jpg"",""time"":3109.524999999965},{""stimulus"":""run_exp/static/images/task_images/rocket-05.jpg"",""time"":4147.604999999981},{""stimulus"":""run_exp/static/images/task_images/rocket-06.jpg"",""time"":5167.319999999891},{""stimulus"":""run_exp/static/images/task_images/rocket-07.jpg"",""time"":6206.384999999951},{""stimulus"":""run_exp/static/images/task_images/rocket-08.jpg"",""time"":7248.515000000014},{""stimulus"":""run_exp/static/images/task_images/rocket-09.jpg"",""time"":8272.629999999946}]",[],2,,,,,,,,,,,,,,
alien_welcome,86,414648,0.0-29.0-1.0,,null,run_exp/static/images/task_images/aliens/old_aliens/planet/alien_planet-47.jpg,null,,,,,,,,,,,,47,"63,56,47,17,10,77,32,61,34,4,27,52,7,80,74,45,44,8,3,9,28,60,78,67,22,37,76,31,25,23,15,48,26,54,68,19,21,40,24,49,1,66,2,41,75,30,62,50,38,70,36,57,5,69,64,6,39,79,20,33,51,72",,,,,,,,,,
land,87,415153,0.0-29.0-2.0,,null,run_exp/static/images/task_images/land.jpg,null,,,,,,101,,,3,,,,,,,,,,,,,,
dig,88,417163,0.0-29.0-3.0,,,,,,,,,,,"[{""stimulus"":""run_exp/static/images/task_images/dig.jpg"",""time"":0.4749999999185093},{""stimulus"":""run_exp/static/images/task_images/land.jpg"",""time"":671.8800000000047},{""stimulus"":""run_exp/static/images/task_images/dig.jpg"",""time"":1347.2849999999162}]",[],3,,,,,,,,,,,,,,
harvest,89,418182,0.0-29.0-4.0,,null,run_exp/static/images/task_images/gems/101.jpg,null,,,,,,47,,,3,,,,,101,0.461278509,0.465346535,,,,,,,
decision,90,419212,0.0-29.0-5.0,,1026.295,run_exp/static/images/task_images/land.jpg,65,,,,,,47,,,3,,,,,,,,62843,1,0,FALSE,,,
dig,91,421196,0.0-30.0-0.0,,,,,,,,,,,"[{""stimulus"":""run_exp/static/images/task_images/dig.jpg"",""time"":0.15499999996973202},{""stimulus"":""run_exp/static/images/task_images/land.jpg"",""time"":667.9849999999278},{""stimulus"":""run_exp/static/images/task_images/dig.jpg"",""time"":1323.5849999999627}]",[],3,,,,,,,,,,,,,,
harvest,92,422202,0.0-30.0-1.0,,null,run_exp/static/images/task_images/gems/47.jpg,null,,,,,,20,,,3,,,,,47,0.428496805,0.425531915,,,,,,,
decision,93,423393,0.0-30.0-2.0,,1187.325,run_exp/static/images/task_images/land.jpg,76,,,,,,20,,,3,,,,,,,,67024,1,1,TRUE,,,
travel,94,432225,0.0-31.0-0.0,,,,,,,,,,,"[{""stimulus"":""run_exp/static/images/task_images/rocket-01.jpg"",""time"":0.4250000001047738},{""stimulus"":""run_exp/static/images/task_images/rocket-02.jpg"",""time"":987.7350000000442},{""stimulus"":""run_exp/static/images/task_images/rocket-03.jpg"",""time"":1974.0850000000792},{""stimulus"":""run_exp/static/images/task_images/rocket-04.jpg"",""time"":2950.0750000000116},{""stimulus"":""run_exp/static/images/task_images/rocket-05.jpg"",""time"":3926.490000000049},{""stimulus"":""run_exp/static/images/task_images/rocket-06.jpg"",""time"":4902.090000000084},{""stimulus"":""run_exp/static/images/task_images/rocket-07.jpg"",""time"":5887.195000000065},{""stimulus"":""run_exp/static/images/task_images/rocket-08.jpg"",""time"":6869.150000000023},{""stimulus"":""run_exp/static/images/task_images/rocket-09.jpg"",""time"":7837.48000000004}]",[],3,,,,,,,,,,,,,,
alien_welcome,95,437233,0.0-31.0-1.0,,null,run_exp/static/images/task_images/aliens/old_aliens/planet/alien_planet-17.jpg,null,,,,,,,,,,,,17,"63,56,47,17,10,77,32,61,34,4,27,52,7,80,74,45,44,8,3,9,28,60,78,67,22,37,76,31,25,23,15,48,26,54,68,19,21,40,24,49,1,66,2,41,75,30,62,50,38,70,36,57,5,69,64,6,39,79,20,33,51,72",,,,,,,,,,
land,96,437734,0.0-31.0-2.0,,null,run_exp/static/images/task_images/land.jpg,null,,,,,,99,,,4,,,,,,,,,,,,,,
dig,97,439747,0.0-31.0-3.0,,,,,,,,,,,"[{""stimulus"":""run_exp/static/images/task_images/dig.jpg"",""time"":0.18000000005122274},{""stimulus"":""run_exp/static/images/task_images/land.jpg"",""time"":669.6500000000815},{""stimulus"":""run_exp/static/images/task_images/dig.jpg"",""time"":1350.0750000000698}]",[],4,,,,,,,,,,,,,,
harvest,98,440758,0.0-31.0-4.0,,null,run_exp/static/images/task_images/gems/99.jpg,null,,,,,,54,,,4,,,,,99,0.549812339,0.545454545,,,,,,,
decision,99,441151,0.0-31.0-5.0,,392.04,run_exp/static/images/task_images/land.jpg,65,,,,,,54,,,4,,,,,,,,84782,1,0,FALSE,,,
dig,100,443761,0.0-32.0-0.0,,,,,,,,,,,"[{""stimulus"":""run_exp/static/images/task_images/dig.jpg"",""time"":0.1600000000325963},{""stimulus"":""run_exp/static/images/task_images/land.jpg"",""time"":870.5099999999511},{""stimulus"":""run_exp/static/images/task_images/dig.jpg"",""time"":1744.015000000014}]",[],4,,,,,,,,,,,,,,
harvest,101,444764,0.0-32.0-1.0,,null,run_exp/static/images/task_images/gems/54.jpg,null,,,,,,22,,,4,,,,,54,0.402514148,0.407407407,,,,,,,
decision,102,445351,0.0-32.0-2.0,,586.21,run_exp/static/images/task_images/land.jpg,65,,,,,,22,,,4,,,,,,,,88982,1,1,FALSE,,,
dig,103,447768,0.0-33.0-0.0,,,,,,,,,,,"[{""stimulus"":""run_exp/static/images/task_images/dig.jpg"",""time"":0.15000000008149073},{""stimulus"":""run_exp/static/images/task_images/land.jpg"",""time"":820.0000000000582},{""stimulus"":""run_exp/static/images/task_images/dig.jpg"",""time"":1612.6700000001001}]",[],4,,,,,,,,,,,,,,
harvest,104,448781,0.0-33.0-1.0,,null,run_exp/static/images/task_images/gems/22.jpg,null,,,,,,11,,,4,,,,,22,0.486187979,0.5,,,,,,,
decision,105,448921,0.0-33.0-2.0,,139.705,run_exp/static/images/task_images/land.jpg,76,,,,,,11,,,4,,,,,,,,92552,1,2,TRUE,,,
travel,106,458789,0.0-34.0-0.0,,,,,,,,,,,"[{""stimulus"":""run_exp/static/images/task_images/rocket-01.jpg"",""time"":0.17499999987194315},{""stimulus"":""run_exp/static/images/task_images/rocket-02.jpg"",""time"":1107.0199999999022},{""stimulus"":""run_exp/static/images/task_images/rocket-03.jpg"",""time"":2200.0299999999697},{""stimulus"":""run_exp/static/images/task_images/rocket-04.jpg"",""time"":3289.7249999999767},{""stimulus"":""run_exp/static/images/task_images/rocket-05.jpg"",""time"":4394.979999999923},{""stimulus"":""run_exp/static/images/task_images/rocket-06.jpg"",""time"":5483.579999999958},{""stimulus"":""run_exp/static/images/task_images/rocket-07.jpg"",""time"":6575.384999999951},{""stimulus"":""run_exp/static/images/task_images/rocket-08.jpg"",""time"":7668.744999999937},{""stimulus"":""run_exp/static/images/task_images/rocket-09.jpg"",""time"":8770.819999999949}]",[],4,,,,,,,,,,,,,,
alien_welcome,107,463796,0.0-34.0-1.0,,null,run_exp/static/images/task_images/aliens/old_aliens/planet/alien_planet-10.jpg,null,,,,,,,,,,,,10,"63,56,47,17,10,77,32,61,34,4,27,52,7,80,74,45,44,8,3,9,28,60,78,67,22,37,76,31,25,23,15,48,26,54,68,19,21,40,24,49,1,66,2,41,75,30,62,50,38,70,36,57,5,69,64,6,39,79,20,33,51,72",,,,,,,,,,
land,108,464300,0.0-34.0-2.0,,null,run_exp/static/images/task_images/land.jpg,null,,,,,,109,,,5,,,,,,,,,,,,,,
dig,109,466303,0.0-34.0-3.0,,,,,,,,,,,"[{""stimulus"":""run_exp/static/images/task_images/dig.jpg"",""time"":0.2699999999604188},{""stimulus"":""run_exp/static/images/task_images/land.jpg"",""time"":679.0549999999348},{""stimulus"":""run_exp/static/images/task_images/dig.jpg"",""time"":1343.0049999999464}]",[],5,,,,,,,,,,,,,,
harvest,110,467307,0.0-34.0-4.0,,null,run_exp/static/images/task_images/gems/109.jpg,null,,,,,,52,,,5,,,,,109,0.472510178,0.47706422,,,,,,,
decision,111,467881,0.0-34.0-5.0,,573.425,run_exp/static/images/task_images/land.jpg,65,,,,,,52,,,5,,,,,,,,111512,1,0,FALSE,,,
dig,112,470320,0.0-35.0-0.0,,,,,,,,,,,"[{""stimulus"":""run_exp/static/images/task_images/dig.jpg"",""time"":0.20000000001164153},{""stimulus"":""run_exp/static/images/task_images/land.jpg"",""time"":824.2350000000442},{""stimulus"":""run_exp/static/images/task_images/dig.jpg"",""time"":1631.3700000000536}]",[],5,,,,,,,,,,,,,,
harvest,113,471333,0.0-35.0-1.0,,null,run_exp/static/images/task_images/gems/52.jpg,null,,,,,,24,,,5,,,,,52,0.454182251,0.461538462,,,,,,,
decision,114,472441,0.0-35.0-2.0,,1106.475,run_exp/static/images/task_images/land.jpg,76,,,,,,24,,,5,,,,,,,,116072,1,1,TRUE,,,
travel,115,481352,0.0-36.0-0.0,,,,,,,,,,,"[{""stimulus"":""run_exp/static/images/task_images/rocket-01.jpg"",""time"":0.1499999999650754},{""stimulus"":""run_exp/static/images/task_images/rocket-02.jpg"",""time"":1000.4299999999348},{""stimulus"":""run_exp/static/images/task_images/rocket-03.jpg"",""time"":1980.7399999999907},{""stimulus"":""run_exp/static/images/task_images/rocket-04.jpg"",""time"":2974.5199999999604},{""stimulus"":""run_exp/static/images/task_images/rocket-05.jpg"",""time"":3956.314999999886},{""stimulus"":""run_exp/static/images/task_images/rocket-06.jpg"",""time"":4945.6699999999255},{""stimulus"":""run_exp/static/images/task_images/rocket-07.jpg"",""time"":5936.699999999953},{""stimulus"":""run_exp/static/images/task_images/rocket-08.jpg"",""time"":6928.715000000026},{""stimulus"":""run_exp/static/images/task_images/rocket-09.jpg"",""time"":7917.02999999997}]",[],5,,,,,,,,,,,,,,
alien_welcome,116,486362,0.0-36.0-1.0,,null,run_exp/static/images/task_images/aliens/old_aliens/planet/alien_planet-77.jpg,null,,,,,,,,,,,,77,"63,56,47,17,10,77,32,61,34,4,27,52,7,80,74,45,44,8,3,9,28,60,78,67,22,37,76,31,25,23,15,48,26,54,68,19,21,40,24,49,1,66,2,41,75,30,62,50,38,70,36,57,5,69,64,6,39,79,20,33,51,72",,,,,,,,,,
land,117,486867,0.0-36.0-2.0,,null,run_exp/static/images/task_images/land.jpg,null,,,,,,105,,,6,,,,,,,,,,,,,,
dig,118,488875,0.0-36.0-3.0,,,,,,,,,,,"[{""stimulus"":""run_exp/static/images/task_images/dig.jpg"",""time"":0.1749999999301508},{""stimulus"":""run_exp/static/images/task_images/land.jpg"",""time"":680.2499999998836},{""stimulus"":""run_exp/static/images/task_images/dig.jpg"",""time"":1342.8349999999627}]",[],6,,,,,,,,,,,,,,
harvest,119,489880,0.0-36.0-4.0,,null,run_exp/static/images/task_images/gems/105.jpg,null,,,,,,78,,,6,,,,,105,0.740967904,0.742857143,,,,,,,
decision,120,490401,0.0-36.0-5.0,,519.23,run_exp/static/images/task_images/land.jpg,65,,,,,,78,,,6,,,,,,,,134032,1,0,FALSE,,,
dig,121,492894,0.0-37.0-0.0,,,,,,,,,,,"[{""stimulus"":""run_exp/static/images/task_images/dig.jpg"",""time"":0.16999999998370185},{""stimulus"":""run_exp/static/images/task_images/land.jpg"",""time"":829.8050000000512},{""stimulus"":""run_exp/static/images/task_images/dig.jpg"",""time"":1665.8349999999627}]",[],6,,,,,,,,,,,,,,
harvest,122,493906,0.0-37.0-1.0,,null,run_exp/static/images/task_images/gems/78.jpg,null,,,,,,60,,,6,,,,,78,0.7700695,0.769230769,,,,,,,
decision,123,493961,0.0-37.0-2.0,,54.025,run_exp/static/images/task_images/land.jpg,65,,,,,,60,,,6,,,,,,,,137592,1,1,FALSE,,,
dig,124,496918,0.0-38.0-0.0,,,,,,,,,,,"[{""stimulus"":""run_exp/static/images/task_images/dig.jpg"",""time"":0.17000000004190952},{""stimulus"":""run_exp/static/images/task_images/land.jpg"",""time"":997.520000000135},{""stimulus"":""run_exp/static/images/task_images/dig.jpg"",""time"":1972.6749999999884}]",[],6,,,,,,,,,,,,,,
harvest,125,497925,0.0-38.0-1.0,,null,run_exp/static/images/task_images/gems/60.jpg,null,,,,,,50,,,6,,,,,60,0.825339939,0.833333333,,,,,,,
decision,126,498471,0.0-38.0-2.0,,544.845,run_exp/static/images/task_images/land.jpg,65,,,,,,50,,,6,,,,,,,,142102,1,2,FALSE,,,
dig,127,500934,0.0-39.0-0.0,,,,,,,,,,,"[{""stimulus"":""run_exp/static/images/task_images/dig.jpg"",""time"":0.18000000005122274},{""stimulus"":""run_exp/static/images/task_images/land.jpg"",""time"":821.4650000000838},{""stimulus"":""run_exp/static/images/task_images/dig.jpg"",""time"":1641.3649999999907}]",[],6,,,,,,,,,,,,,,
harvest,128,501942,0.0-39.0-1.0,,null,run_exp/static/images/task_images/gems/50.jpg,null,,,,,,40,,,6,,,,,50,0.805294076,0.8,,,,,,,
decision,129,502420,0.0-39.0-2.0,,475.935,run_exp/static/images/task_images/land.jpg,76,,,,,,40,,,6,,,,,,,,146051,1,3,TRUE,,,
travel,130,511951,0.0-40.0-0.0,,,,,,,,,,,"[{""stimulus"":""run_exp/static/images/task_images/rocket-01.jpg"",""time"":0.1749999999301508},{""stimulus"":""run_exp/static/images/task_images/rocket-02.jpg"",""time"":1072.6999999999534},{""stimulus"":""run_exp/static/images/task_images/rocket-03.jpg"",""time"":2117.909999999916},{""stimulus"":""run_exp/static/images/task_images/rocket-04.jpg"",""time"":3189.204999999958},{""stimulus"":""run_exp/static/images/task_images/rocket-05.jpg"",""time"":4246.959999999963},{""stimulus"":""run_exp/static/images/task_images/rocket-06.jpg"",""time"":5301.755000000005},{""stimulus"":""run_exp/static/images/task_images/rocket-07.jpg"",""time"":6357.530000000028},{""stimulus"":""run_exp/static/images/task_images/rocket-08.jpg"",""time"":7413.625},{""stimulus"":""run_exp/static/images/task_images/rocket-09.jpg"",""time"":8473.499999999884}]",[],6,,,,,,,,,,,,,,
alien_welcome,131,516952,0.0-40.0-1.0,,null,run_exp/static/images/task_images/aliens/old_aliens/planet/alien_planet-32.jpg,null,,,,,,,,,,,,32,"63,56,47,17,10,77,32,61,34,4,27,52,7,80,74,45,44,8,3,9,28,60,78,67,22,37,76,31,25,23,15,48,26,54,68,19,21,40,24,49,1,66,2,41,75,30,62,50,38,70,36,57,5,69,64,6,39,79,20,33,51,72",,,,,,,,,,
land,132,517460,0.0-40.0-2.0,,null,run_exp/static/images/task_images/land.jpg,null,,,,,,101,,,7,,,,,,,,,,,,,,
dig,133,519470,0.0-40.0-3.0,,,,,,,,,,,"[{""stimulus"":""run_exp/static/images/task_images/dig.jpg"",""time"":0.15999999991618097},{""stimulus"":""run_exp/static/images/task_images/land.jpg"",""time"":678.4350000000559},{""stimulus"":""run_exp/static/images/task_images/dig.jpg"",""time"":1345.0599999999395}]",[],7,,,,,,,,,,,,,,
harvest,134,520481,0.0-40.0-4.0,,null,run_exp/static/images/task_images/gems/101.jpg,null,,,,,,79,,,7,,,,,101,0.780658237,0.782178218,,,,,,,
decision,135,521190,0.0-40.0-5.0,,707.47,run_exp/static/images/task_images/land.jpg,65,,,,,,79,,,7,,,,,,,,164821,1,0,FALSE,,,
dig,136,523491,0.0-41.0-0.0,,,,,,,,,,,"[{""stimulus"":""run_exp/static/images/task_images/dig.jpg"",""time"":0.13500000000931323},{""stimulus"":""run_exp/static/images/task_images/land.jpg"",""time"":774.1600000000326},{""stimulus"":""run_exp/static/images/task_images/dig.jpg"",""time"":1543.8850000001257}]",[],7,,,,,,,,,,,,,,
harvest,137,524505,0.0-41.0-1.0,,null,run_exp/static/images/task_images/gems/79.jpg,null,,,,,,64,,,7,,,,,79,0.810431252,0.810126582,,,,,,,
decision,138,524950,0.0-41.0-2.0,,443.48,run_exp/static/images/task_images/land.jpg,76,,,,,,64,,,7,,,,,,,,168581,1,1,TRUE,,,
travel,139,534507,0.0-42.0-0.0,,,,,,,,,,,"[{""stimulus"":""run_exp/static/images/task_images/rocket-01.jpg"",""time"":0.1699999999254942},{""stimulus"":""run_exp/static/images/task_images/rocket-02.jpg"",""time"":1070.015000000014},{""stimulus"":""run_exp/static/images/task_images/rocket-03.jpg"",""time"":2129.5449999999255},{""stimulus"":""run_exp/static/images/task_images/rocket-04.jpg"",""time"":3188.0549999998184},{""stimulus"":""run_exp/static/images/task_images/rocket-05.jpg"",""time"":4250.4049999999115},{""stimulus"":""run_exp/static/images/task_images/rocket-06.jpg"",""time"":5312.424999999814},{""stimulus"":""run_exp/static/images/task_images/rocket-07.jpg"",""time"":6368.429999999935},{""stimulus"":""run_exp/static/images/task_images/rocket-08.jpg"",""time"":7443.464999999967},{""stimulus"":""run_exp/static/images/task_images/rocket-09.jpg"",""time"":8490.104999999749}]",[],7,,,,,,,,,,,,,,
alien_welcome,140,539522,0.0-42.0-1.0,,null,run_exp/static/images/task_images/aliens/old_aliens/planet/alien_planet-61.jpg,null,,,,,,,,,,,,61,"63,56,47,17,10,77,32,61,34,4,27,52,7,80,74,45,44,8,3,9,28,60,78,67,22,37,76,31,25,23,15,48,26,54,68,19,21,40,24,49,1,66,2,41,75,30,62,50,38,70,36,57,5,69,64,6,39,79,20,33,51,72",,,,,,,,,,
land,141,540028,0.0-42.0-2.0,,null,run_exp/static/images/task_images/land.jpg,null,,,,,,99,,,8,,,,,,,,,,,,,,
dig,142,542032,0.0-42.0-3.0,,,,,,,,,,,"[{""stimulus"":""run_exp/static/images/task_images/dig.jpg"",""time"":0.19999999995343387},{""stimulus"":""run_exp/static/images/task_images/land.jpg"",""time"":671.3149999998277},{""stimulus"":""run_exp/static/images/task_images/dig.jpg"",""time"":1337.3899999998976}]",[],8,,,,,,,,,,,,,,
harvest,143,543046,0.0-42.0-4.0,,null,run_exp/static/images/task_images/gems/99.jpg,null,,,,,,87,,,8,,,,,99,0.881508711,0.878787879,,,,,,,
decision,144,543760,0.0-42.0-5.0,,712.92,run_exp/static/images/task_images/land.jpg,76,,,,,,87,,,8,,,,,,,,187391,1,0,TRUE,,,
travel,145,553054,0.0-43.0-0.0,,,,,,,,,,,"[{""stimulus"":""run_exp/static/images/task_images/rocket-01.jpg"",""time"":0.18500000017229468},{""stimulus"":""run_exp/static/images/task_images/rocket-02.jpg"",""time"":1045.5250000000233},{""stimulus"":""run_exp/static/images/task_images/rocket-03.jpg"",""time"":2069.2050000000745},{""stimulus"":""run_exp/static/images/task_images/rocket-04.jpg"",""time"":3096.455000000191},{""stimulus"":""run_exp/static/images/task_images/rocket-05.jpg"",""time"":4140.270000000135},{""stimulus"":""run_exp/static/images/task_images/rocket-06.jpg"",""time"":5156},{""stimulus"":""run_exp/static/images/task_images/rocket-07.jpg"",""time"":6200.495000000112},{""stimulus"":""run_exp/static/images/task_images/rocket-08.jpg"",""time"":7225.5},{""stimulus"":""run_exp/static/images/task_images/rocket-09.jpg"",""time"":8262.69000000006}]",[],8,,,,,,,,,,,,,,
alien_welcome,146,558064,0.0-43.0-1.0,,null,run_exp/static/images/task_images/aliens/old_aliens/planet/alien_planet-34.jpg,null,,,,,,,,,,,,34,"63,56,47,17,10,77,32,61,34,4,27,52,7,80,74,45,44,8,3,9,28,60,78,67,22,37,76,31,25,23,15,48,26,54,68,19,21,40,24,49,1,66,2,41,75,30,62,50,38,70,36,57,5,69,64,6,39,79,20,33,51,72",,,,,,,,,,
land,147,558570,0.0-43.0-2.0,,null,run_exp/static/images/task_images/land.jpg,null,,,,,,97,,,9,,,,,,,,,,,,,,
dig,148,560586,0.0-43.0-3.0,,,,,,,,,,,"[{""stimulus"":""run_exp/static/images/task_images/dig.jpg"",""time"":0.16499999992083758},{""stimulus"":""run_exp/static/images/task_images/land.jpg"",""time"":676.2600000000093},{""stimulus"":""run_exp/static/images/task_images/dig.jpg"",""time"":1337.8049999999348}]",[],9,,,,,,,,,,,,,,
harvest,149,561598,0.0-43.0-4.0,,null,run_exp/static/images/task_images/gems/97.jpg,null,,,,,,15,,,9,,,,,97,0.155769216,0.154639175,,,,,,,
decision,150,561610,0.0-43.0-5.0,,11.275,run_exp/static/images/task_images/land.jpg,76,,,,,,15,,,9,,,,,,,,205241,1,0,TRUE,,,
travel,151,571603,0.0-44.0-0.0,,,,,,,,,,,"[{""stimulus"":""run_exp/static/images/task_images/rocket-01.jpg"",""time"":0.18500000005587935},{""stimulus"":""run_exp/static/images/task_images/rocket-02.jpg"",""time"":1124.8600000001024},{""stimulus"":""run_exp/static/images/task_images/rocket-03.jpg"",""time"":2230.725000000093},{""stimulus"":""run_exp/static/images/task_images/rocket-04.jpg"",""time"":3330.6400000001304},{""stimulus"":""run_exp/static/images/task_images/rocket-05.jpg"",""time"":4441.494999999995},{""stimulus"":""run_exp/static/images/task_images/rocket-06.jpg"",""time"":5551.119999999995},{""stimulus"":""run_exp/static/images/task_images/rocket-07.jpg"",""time"":6658.920000000042},{""stimulus"":""run_exp/static/images/task_images/rocket-08.jpg"",""time"":7768.819999999949},{""stimulus"":""run_exp/static/images/task_images/rocket-09.jpg"",""time"":8884.900000000023}]",[],9,,,,,,,,,,,,,,
alien_welcome,152,576606,0.0-44.0-1.0,,null,run_exp/static/images/task_images/aliens/old_aliens/planet/alien_planet-4.jpg,null,,,,,,,,,,,,4,"63,56,47,17,10,77,32,61,34,4,27,52,7,80,74,45,44,8,3,9,28,60,78,67,22,37,76,31,25,23,15,48,26,54,68,19,21,40,24,49,1,66,2,41,75,30,62,50,38,70,36,57,5,69,64,6,39,79,20,33,51,72",,,,,,,,,,
land,153,577113,0.0-44.0-2.0,,null,run_exp/static/images/task_images/land.jpg,null,,,,,,101,,,10,,,,,,,,,,,,,,
dig,154,579128,0.0-44.0-3.0,,,,,,,,,,,"[{""stimulus"":""run_exp/static/images/task_images/dig.jpg"",""time"":0.17999999993480742},{""stimulus"":""run_exp/static/images/task_images/land.jpg"",""time"":680.0550000000512},{""stimulus"":""run_exp/static/images/task_images/dig.jpg"",""time"":1350.7050000000745}]",[],10,,,,,,,,,,,,,,
harvest,155,580139,0.0-44.0-4.0,,null,run_exp/static/images/task_images/gems/101.jpg,null,,,,,,24,,,10,,,,,101,0.239419473,0.237623762,,,,,,,
decision,156,580710,0.0-44.0-5.0,,570.35,run_exp/static/images/task_images/land.jpg,76,,,,,,24,,,10,,,,,,,,224341,1,0,TRUE,,,
travel,157,590138,0.0-45.0-0.0,,,,,,,,,,,"[{""stimulus"":""run_exp/static/images/task_images/rocket-01.jpg"",""time"":0.17000000004190952},{""stimulus"":""run_exp/static/images/task_images/rocket-02.jpg"",""time"":1049.4499999999534},{""stimulus"":""run_exp/static/images/task_images/rocket-03.jpg"",""time"":2107.8599999998696},{""stimulus"":""run_exp/static/images/task_images/rocket-04.jpg"",""time"":3152.75},{""stimulus"":""run_exp/static/images/task_images/rocket-05.jpg"",""time"":4194.79999999993},{""stimulus"":""run_exp/static/images/task_images/rocket-06.jpg"",""time"":5236.789999999921},{""stimulus"":""run_exp/static/images/task_images/rocket-07.jpg"",""time"":6296.469999999972},{""stimulus"":""run_exp/static/images/task_images/rocket-08.jpg"",""time"":7340.5299999999115},{""stimulus"":""run_exp/static/images/task_images/rocket-09.jpg"",""time"":8380.344999999972}]",[],10,,,,,,,,,,,,,,
alien_welcome,158,595141,0.0-45.0-1.0,,null,run_exp/static/images/task_images/aliens/old_aliens/planet/alien_planet-27.jpg,null,,,,,,,,,,,,27,"63,56,47,17,10,77,32,61,34,4,27,52,7,80,74,45,44,8,3,9,28,60,78,67,22,37,76,31,25,23,15,48,26,54,68,19,21,40,24,49,1,66,2,41,75,30,62,50,38,70,36,57,5,69,64,6,39,79,20,33,51,72",,,,,,,,,,
land,159,595661,0.0-45.0-2.0,,null,run_exp/static/images/task_images/land.jpg,null,,,,,,96,,,11,,,,,,,,,,,,,,
dig,160,597676,0.0-45.0-3.0,,,,,,,,,,,"[{""stimulus"":""run_exp/static/images/task_images/dig.jpg"",""time"":0.5699999999487773},{""stimulus"":""run_exp/static/images/task_images/land.jpg"",""time"":674.8800000000047},{""stimulus"":""run_exp/static/images/task_images/dig.jpg"",""time"":1350.2350000001024}]",[],11,,,,,,,,,,,,,,
harvest,161,598684,0.0-45.0-4.0,,null,run_exp/static/images/task_images/gems/96.jpg,null,,,,,,18,,,11,,,,,96,0.18634848,0.1875,,,,,,,
decision,162,599092,0.0-45.0-5.0,,405.245,run_exp/static/images/task_images/land.jpg,76,,,,,,18,,,11,,,,,,,,242723,1,0,TRUE,,,
travel,163,608708,0.0-46.0-0.0,,,,,,,,,,,"[{""stimulus"":""run_exp/static/images/task_images/rocket-01.jpg"",""time"":0.4450000001816079},{""stimulus"":""run_exp/static/images/task_images/rocket-02.jpg"",""time"":1069.0800000000745},{""stimulus"":""run_exp/static/images/task_images/rocket-03.jpg"",""time"":2137.2100000001956},{""stimulus"":""run_exp/static/images/task_images/rocket-04.jpg"",""time"":3210.6750000000466},{""stimulus"":""run_exp/static/images/task_images/rocket-05.jpg"",""time"":4269.945000000065},{""stimulus"":""run_exp/static/images/task_images/rocket-06.jpg"",""time"":5346.010000000009},{""stimulus"":""run_exp/static/images/task_images/rocket-07.jpg"",""time"":6413.099999999977},{""stimulus"":""run_exp/static/images/task_images/rocket-08.jpg"",""time"":7464.5800000000745},{""stimulus"":""run_exp/static/images/task_images/rocket-09.jpg"",""time"":8542.520000000019}]",[],11,,,,,,,,,,,,,,
alien_welcome,164,613717,0.0-46.0-1.0,,null,run_exp/static/images/task_images/aliens/old_aliens/planet/alien_planet-52.jpg,null,,,,,,,,,,,,52,"63,56,47,17,10,77,32,61,34,4,27,52,7,80,74,45,44,8,3,9,28,60,78,67,22,37,76,31,25,23,15,48,26,54,68,19,21,40,24,49,1,66,2,41,75,30,62,50,38,70,36,57,5,69,64,6,39,79,20,33,51,72",,,,,,,,,,
land,165,614234,0.0-46.0-2.0,,null,run_exp/static/images/task_images/land.jpg,null,,,,,,95,,,12,,,,,,,,,,,,,,
dig,166,616248,0.0-46.0-3.0,,,,,,,,,,,"[{""stimulus"":""run_exp/static/images/task_images/dig.jpg"",""time"":0.17000000004190952},{""stimulus"":""run_exp/static/images/task_images/land.jpg"",""time"":673.785000000149},{""stimulus"":""run_exp/static/images/task_images/dig.jpg"",""time"":1337.719999999972}]",[],12,,,,,,,,,,,,,,
harvest,167,617257,0.0-46.0-4.0,,null,run_exp/static/images/task_images/gems/95.jpg,null,,,,,,16,,,12,,,,,95,0.170643916,0.168421053,,,,,,,
decision,168,617681,0.0-46.0-5.0,,420.915,run_exp/static/images/task_images/land.jpg,76,,,,,,16,,,12,,,,,,,,261313,1,0,TRUE,,,
travel,169,627274,0.0-47.0-0.0,,,,,,,,,,,"[{""stimulus"":""run_exp/static/images/task_images/rocket-01.jpg"",""time"":0.4900000001071021},{""stimulus"":""run_exp/static/images/task_images/rocket-02.jpg"",""time"":1067.1199999999953},{""stimulus"":""run_exp/static/images/task_images/rocket-03.jpg"",""time"":2136.67499999993},{""stimulus"":""run_exp/static/images/task_images/rocket-04.jpg"",""time"":3207.094999999972},{""stimulus"":""run_exp/static/images/task_images/rocket-05.jpg"",""time"":4266.875},{""stimulus"":""run_exp/static/images/task_images/rocket-06.jpg"",""time"":5327.780000000144},{""stimulus"":""run_exp/static/images/task_images/rocket-07.jpg"",""time"":6401.75},{""stimulus"":""run_exp/static/images/task_images/rocket-08.jpg"",""time"":7454.844999999972},{""stimulus"":""run_exp/static/images/task_images/rocket-09.jpg"",""time"":8529.27500000014}]",[],12,,,,,,,,,,,,,,
alien_welcome,170,632286,0.0-47.0-1.0,,null,run_exp/static/images/task_images/aliens/old_aliens/planet/alien_planet-7.jpg,null,,,,,,,,,,,,7,"63,56,47,17,10,77,32,61,34,4,27,52,7,80,74,45,44,8,3,9,28,60,78,67,22,37,76,31,25,23,15,48,26,54,68,19,21,40,24,49,1,66,2,41,75,30,62,50,38,70,36,57,5,69,64,6,39,79,20,33,51,72",,,,,,,,,,
land,171,632802,0.0-47.0-2.0,,null,run_exp/static/images/task_images/land.jpg,null,,,,,,97,,,13,,,,,,,,,,,,,,
dig,172,634822,0.0-47.0-3.0,,,,,,,,,,,"[{""stimulus"":""run_exp/static/images/task_images/dig.jpg"",""time"":0.16499999992083758},{""stimulus"":""run_exp/static/images/task_images/land.jpg"",""time"":674.1399999998976},{""stimulus"":""run_exp/static/images/task_images/dig.jpg"",""time"":1348.6449999997858}]",[],13,,,,,,,,,,,,,,
harvest,173,635827,0.0-47.0-4.0,,null,run_exp/static/images/task_images/gems/97.jpg,null,,,,,,20,,,13,,,,,97,0.207910449,0.206185567,,,,,,,
decision,174,635859,0.0-47.0-5.0,,28.93,run_exp/static/images/task_images/land.jpg,76,,,,,,20,,,13,,,,,,,,279490,1,0,TRUE,,,
travel,175,645827,0.0-48.0-0.0,,,,,,,,,,,"[{""stimulus"":""run_exp/static/images/task_images/rocket-01.jpg"",""time"":0.1600000000325963},{""stimulus"":""run_exp/static/images/task_images/rocket-02.jpg"",""time"":1111.4350000000559},{""stimulus"":""run_exp/static/images/task_images/rocket-03.jpg"",""time"":2225.134999999893},{""stimulus"":""run_exp/static/images/task_images/rocket-04.jpg"",""time"":3327.7099999999627},{""stimulus"":""run_exp/static/images/task_images/rocket-05.jpg"",""time"":4443.594999999972},{""stimulus"":""run_exp/static/images/task_images/rocket-06.jpg"",""time"":5541.919999999809},{""stimulus"":""run_exp/static/images/task_images/rocket-07.jpg"",""time"":6651.934999999823},{""stimulus"":""run_exp/static/images/task_images/rocket-08.jpg"",""time"":7765.6699999999255},{""stimulus"":""run_exp/static/images/task_images/rocket-09.jpg"",""time"":8865.919999999925}]",[],13,,,,,,,,,,,,,,
alien_welcome,176,650834,0.0-48.0-1.0,,null,run_exp/static/images/task_images/aliens/old_aliens/planet/alien_planet-80.jpg,null,,,,,,,,,,,,80,"63,56,47,17,10,77,32,61,34,4,27,52,7,80,74,45,44,8,3,9,28,60,78,67,22,37,76,31,25,23,15,48,26,54,68,19,21,40,24,49,1,66,2,41,75,30,62,50,38,70,36,57,5,69,64,6,39,79,20,33,51,72",,,,,,,,,,
land,177,651338,0.0-48.0-2.0,,null,run_exp/static/images/task_images/land.jpg,null,,,,,,106,,,14,,,,,,,,,,,,,,
dig,178,653356,0.0-48.0-3.0,,,,,,,,,,,"[{""stimulus"":""run_exp/static/images/task_images/dig.jpg"",""time"":0.219999999855645},{""stimulus"":""run_exp/static/images/task_images/land.jpg"",""time"":675.9600000000792},{""stimulus"":""run_exp/static/images/task_images/dig.jpg"",""time"":1337.3750000001164}]",[],14,,,,,,,,,,,,,,
harvest,179,654360,0.0-48.0-4.0,,null,run_exp/static/images/task_images/gems/106.jpg,null,,,,,,90,,,14,,,,,106,0.84992185,0.849056604,,,,,,,
decision,180,655131,0.0-48.0-5.0,,767.38,run_exp/static/images/task_images/land.jpg,76,,,,,,90,,,14,,,,,,,,298762,1,0,TRUE,,,
travel,181,664378,0.0-49.0-0.0,,,,,,,,,,,"[{""stimulus"":""run_exp/static/images/task_images/rocket-01.jpg"",""time"":0.4149999999208376},{""stimulus"":""run_exp/static/images/task_images/rocket-02.jpg"",""time"":1028.7099999998463},{""stimulus"":""run_exp/static/images/task_images/rocket-03.jpg"",""time"":2067.314999999944},{""stimulus"":""run_exp/static/images/task_images/rocket-04.jpg"",""time"":3085.7099999998463},{""stimulus"":""run_exp/static/images/task_images/rocket-05.jpg"",""time"":4111.629999999888},{""stimulus"":""run_exp/static/images/task_images/rocket-06.jpg"",""time"":5136.699999999953},{""stimulus"":""run_exp/static/images/task_images/rocket-07.jpg"",""time"":6160.339999999851},{""stimulus"":""run_exp/static/images/task_images/rocket-08.jpg"",""time"":7185.464999999735},{""stimulus"":""run_exp/static/images/task_images/rocket-09.jpg"",""time"":8215.279999999912}]",[],14,,,,,,,,,,,,,,
alien_welcome,182,669384,0.0-49.0-1.0,,null,run_exp/static/images/task_images/aliens/old_aliens/planet/alien_planet-74.jpg,null,,,,,,,,,,,,74,"63,56,47,17,10,77,32,61,34,4,27,52,7,80,74,45,44,8,3,9,28,60,78,67,22,37,76,31,25,23,15,48,26,54,68,19,21,40,24,49,1,66,2,41,75,30,62,50,38,70,36,57,5,69,64,6,39,79,20,33,51,72",,,,,,,,,,
land,183,669888,0.0-49.0-2.0,,null,run_exp/static/images/task_images/land.jpg,null,,,,,,99,,,15,,,,,,,,,,,,,,
dig,184,671901,0.0-49.0-3.0,,,,,,,,,,,"[{""stimulus"":""run_exp/static/images/task_images/dig.jpg"",""time"":0.5050000000046566},{""stimulus"":""run_exp/static/images/task_images/land.jpg"",""time"":681.214999999851},{""stimulus"":""run_exp/static/images/task_images/dig.jpg"",""time"":1338.3249999999534}]",[],15,,,,,,,,,,,,,,
harvest,185,672916,0.0-49.0-4.0,,null,run_exp/static/images/task_images/gems/99.jpg,null,,,,,,82,,,15,,,,,99,0.832529229,0.828282828,,,,,,,
decision,186,674391,0.0-49.0-5.0,,1470.71,run_exp/static/images/task_images/land.jpg,76,,,,,,82,,,15,,,,,,,,318022,1,0,TRUE,,,
end_of_block_continue,187,683266,0.0-50.0-0.0,,null,run_exp/static/audio/clip_32_block_end.m4a,,,,,,null,,,,,,,,,,,,,,,,,,
alien_welcome,188,688285,0.0-51.0-0.0,,null,run_exp/static/images/task_images/aliens/old_aliens/planet/alien_planet-45.jpg,null,,,,,,,,,,,,45,"63,56,47,17,10,77,32,61,34,4,27,52,7,80,74,45,44,8,3,9,28,60,78,67,22,37,76,31,25,23,15,48,26,54,68,19,21,40,24,49,1,66,2,41,75,30,62,50,38,70,36,57,5,69,64,6,39,79,20,33,51,72",,,,,,,,,,
land,189,688799,0.0-51.0-1.0,,null,run_exp/static/images/task_images/land.jpg,null,,,,,,99,,,16,,,,,,,,,,,,,,
dig,190,690815,0.0-51.0-2.0,,,,,,,,,,,"[{""stimulus"":""run_exp/static/images/task_images/dig.jpg"",""time"":0.1600000000325963},{""stimulus"":""run_exp/static/images/task_images/land.jpg"",""time"":676.0799999999581},{""stimulus"":""run_exp/static/images/task_images/dig.jpg"",""time"":1335.2550000000047}]",[],16,,,,,,,,,,,,,,
harvest,191,691822,0.0-51.0-3.0,,null,run_exp/static/images/task_images/gems/99.jpg,null,,,,,,15,,,16,,,,,99,0.147847214,0.151515152,,,,,,,
decision,192,692220,0.0-51.0-4.0,,395.975,run_exp/static/images/task_images/land.jpg,76,,,,,,15,,,16,,,,,,,,8948,2,0,TRUE,,,
travel,193,701836,0.0-52.0-0.0,,,,,,,,,,,"[{""stimulus"":""run_exp/static/images/task_images/rocket-01.jpg"",""time"":0.31500000006053597},{""stimulus"":""run_exp/static/images/task_images/rocket-02.jpg"",""time"":1081.740000000107},{""stimulus"":""run_exp/static/images/task_images/rocket-03.jpg"",""time"":2141.3549999999814},{""stimulus"":""run_exp/static/images/task_images/rocket-04.jpg"",""time"":3212.5050000000047},{""stimulus"":""run_exp/static/images/task_images/rocket-05.jpg"",""time"":4272.6900000000605},{""stimulus"":""run_exp/static/images/task_images/rocket-06.jpg"",""time"":5338.614999999874},{""stimulus"":""run_exp/static/images/task_images/rocket-07.jpg"",""time"":6419.130000000005},{""stimulus"":""run_exp/static/images/task_images/rocket-08.jpg"",""time"":7472.804999999935},{""stimulus"":""run_exp/static/images/task_images/rocket-09.jpg"",""time"":8547.869999999879}]",[],16,,,,,,,,,,,,,,
alien_welcome,194,706851,0.0-52.0-1.0,,null,run_exp/static/images/task_images/aliens/old_aliens/planet/alien_planet-44.jpg,null,,,,,,,,,,,,44,"63,56,47,17,10,77,32,61,34,4,27,52,7,80,74,45,44,8,3,9,28,60,78,67,22,37,76,31,25,23,15,48,26,54,68,19,21,40,24,49,1,66,2,41,75,30,62,50,38,70,36,57,5,69,64,6,39,79,20,33,51,72",,,,,,,,,,
land,195,707368,0.0-52.0-2.0,,null,run_exp/static/images/task_images/land.jpg,null,,,,,,99,,,17,,,,,,,,,,,,,,
dig,196,709374,0.0-52.0-3.0,,,,,,,,,,,"[{""stimulus"":""run_exp/static/images/task_images/dig.jpg"",""time"":0.16499999992083758},{""stimulus"":""run_exp/static/images/task_images/land.jpg"",""time"":676.1499999999069},{""stimulus"":""run_exp/static/images/task_images/dig.jpg"",""time"":1336.5499999999302}]",[],17,,,,,,,,,,,,,,
harvest,197,710387,0.0-52.0-4.0,,null,run_exp/static/images/task_images/gems/99.jpg,null,,,,,,16,,,17,,,,,99,0.165324693,0.161616162,,,,,,,
decision,198,711091,0.0-52.0-5.0,,700.145,run_exp/static/images/task_images/land.jpg,76,,,,,,16,,,17,,,,,,,,27819,2,0,TRUE,,,
travel,199,720411,0.0-53.0-0.0,,,,,,,,,,,"[{""stimulus"":""run_exp/static/images/task_images/rocket-01.jpg"",""time"":0.43499999993946403},{""stimulus"":""run_exp/static/images/task_images/rocket-02.jpg"",""time"":1049.2750000001397},{""stimulus"":""run_exp/static/images/task_images/rocket-03.jpg"",""time"":2069.300000000163},{""stimulus"":""run_exp/static/images/task_images/rocket-04.jpg"",""time"":3103.7800000001444},{""stimulus"":""run_exp/static/images/task_images/rocket-05.jpg"",""time"":4148.415000000154},{""stimulus"":""run_exp/static/images/task_images/rocket-06.jpg"",""time"":5167.535000000033},{""stimulus"":""run_exp/static/images/task_images/rocket-07.jpg"",""time"":6211.234999999986},{""stimulus"":""run_exp/static/images/task_images/rocket-08.jpg"",""time"":7246.760000000009},{""stimulus"":""run_exp/static/images/task_images/rocket-09.jpg"",""time"":8278.520000000135}]",[],17,,,,,,,,,,,,,,
alien_welcome,200,725426,0.0-53.0-1.0,,null,run_exp/static/images/task_images/aliens/old_aliens/planet/alien_planet-8.jpg,null,,,,,,,,,,,,8,"63,56,47,17,10,77,32,61,34,4,27,52,7,80,74,45,44,8,3,9,28,60,78,67,22,37,76,31,25,23,15,48,26,54,68,19,21,40,24,49,1,66,2,41,75,30,62,50,38,70,36,57,5,69,64,6,39,79,20,33,51,72",,,,,,,,,,
land,201,725931,0.0-53.0-2.0,,null,run_exp/static/images/task_images/land.jpg,null,,,,,,99,,,18,,,,,,,,,,,,,,
dig,202,727946,0.0-53.0-3.0,,,,,,,,,,,"[{""stimulus"":""run_exp/static/images/task_images/dig.jpg"",""time"":0.16500000015366822},{""stimulus"":""run_exp/static/images/task_images/land.jpg"",""time"":673.175000000163},{""stimulus"":""run_exp/static/images/task_images/dig.jpg"",""time"":1350.5899999999674}]",[],18,,,,,,,,,,,,,,
harvest,203,728951,0.0-53.0-4.0,,null,run_exp/static/images/task_images/gems/99.jpg,null,,,,,,23,,,18,,,,,99,0.230468479,0.232323232,,,,,,,
decision,204,729181,0.0-53.0-5.0,,225.7,run_exp/static/images/task_images/land.jpg,76,,,,,,23,,,18,,,,,,,,45909,2,0,TRUE,,,
travel,205,738972,0.0-54.0-0.0,,,,,,,,,,,"[{""stimulus"":""run_exp/static/images/task_images/rocket-01.jpg"",""time"":0.46500000008381903},{""stimulus"":""run_exp/static/images/task_images/rocket-02.jpg"",""time"":1096.6900000000605},{""stimulus"":""run_exp/static/images/task_images/rocket-03.jpg"",""time"":2184.605000000098},{""stimulus"":""run_exp/static/images/task_images/rocket-04.jpg"",""time"":3270.355000000098},{""stimulus"":""run_exp/static/images/task_images/rocket-05.jpg"",""time"":4357.165000000154},{""stimulus"":""run_exp/static/images/task_images/rocket-06.jpg"",""time"":5443.414999999921},{""stimulus"":""run_exp/static/images/task_images/rocket-07.jpg"",""time"":6524.755000000121},{""stimulus"":""run_exp/static/images/task_images/rocket-08.jpg"",""time"":7611.660000000033},{""stimulus"":""run_exp/static/images/task_images/rocket-09.jpg"",""time"":8697.370000000112}]",[],18,,,,,,,,,,,,,,
alien_welcome,206,743983,0.0-54.0-1.0,,null,run_exp/static/images/task_images/aliens/old_aliens/planet/alien_planet-3.jpg,null,,,,,,,,,,,,3,"63,56,47,17,10,77,32,61,34,4,27,52,7,80,74,45,44,8,3,9,28,60,78,67,22,37,76,31,25,23,15,48,26,54,68,19,21,40,24,49,1,66,2,41,75,30,62,50,38,70,36,57,5,69,64,6,39,79,20,33,51,72",,,,,,,,,,
land,207,744501,0.0-54.0-2.0,,null,run_exp/static/images/task_images/land.jpg,null,,,,,,101,,,19,,,,,,,,,,,,,,
dig,208,746508,0.0-54.0-3.0,,,,,,,,,,,"[{""stimulus"":""run_exp/static/images/task_images/dig.jpg"",""time"":0.2800000000279397},{""stimulus"":""run_exp/static/images/task_images/land.jpg"",""time"":675.5550000000512},{""stimulus"":""run_exp/static/images/task_images/dig.jpg"",""time"":1349.030000000028}]",[],19,,,,,,,,,,,,,,
harvest,209,747514,0.0-54.0-4.0,,null,run_exp/static/images/task_images/gems/101.jpg,null,,,,,,79,,,19,,,,,101,0.786330284,0.782178218,,,,,,,
decision,210,747538,0.0-54.0-5.0,,23.525,run_exp/static/images/task_images/land.jpg,76,,,,,,79,,,19,,,,,,,,64266,2,0,TRUE,,,
travel,211,757530,0.0-55.0-0.0,,,,,,,,,,,"[{""stimulus"":""run_exp/static/images/task_images/rocket-01.jpg"",""time"":0.2099999999627471},{""stimulus"":""run_exp/static/images/task_images/rocket-02.jpg"",""time"":1124.7100000000792},{""stimulus"":""run_exp/static/images/task_images/rocket-03.jpg"",""time"":2223.594999999972},{""stimulus"":""run_exp/static/images/task_images/rocket-04.jpg"",""time"":3330.564999999944},{""stimulus"":""run_exp/static/images/task_images/rocket-05.jpg"",""time"":4440.344999999972},{""stimulus"":""run_exp/static/images/task_images/rocket-06.jpg"",""time"":5546.814999999944},{""stimulus"":""run_exp/static/images/task_images/rocket-07.jpg"",""time"":6657.175000000047},{""stimulus"":""run_exp/static/images/task_images/rocket-08.jpg"",""time"":7766.405000000144},{""stimulus"":""run_exp/static/images/task_images/rocket-09.jpg"",""time"":8873.540000000037}]",[],19,,,,,,,,,,,,,,
alien_welcome,212,762548,0.0-55.0-1.0,,null,run_exp/static/images/task_images/aliens/old_aliens/planet/alien_planet-9.jpg,null,,,,,,,,,,,,9,"63,56,47,17,10,77,32,61,34,4,27,52,7,80,74,45,44,8,3,9,28,60,78,67,22,37,76,31,25,23,15,48,26,54,68,19,21,40,24,49,1,66,2,41,75,30,62,50,38,70,36,57,5,69,64,6,39,79,20,33,51,72",,,,,,,,,,
land,213,763053,0.0-55.0-2.0,,null,run_exp/static/images/task_images/land.jpg,null,,,,,,105,,,20,,,,,,,,,,,,,,
dig,214,765060,0.0-55.0-3.0,,,,,,,,,,,"[{""stimulus"":""run_exp/static/images/task_images/dig.jpg"",""time"":0.469999999855645},{""stimulus"":""run_exp/static/images/task_images/land.jpg"",""time"":676.3999999997905},{""stimulus"":""run_exp/static/images/task_images/dig.jpg"",""time"":1345.779999999795}]",[],20,,,,,,,,,,,,,,
harvest,215,766078,0.0-55.0-4.0,,null,run_exp/static/images/task_images/gems/105.jpg,null,,,,,,80,,,20,,,,,105,0.762032498,0.761904762,,,,,,,
decision,216,766860,0.0-55.0-5.0,,779.315,run_exp/static/images/task_images/land.jpg,65,,,,,,80,,,20,,,,,,,,83589,2,0,FALSE,,,
dig,217,769103,0.0-56.0-0.0,,,,,,,,,,,"[{""stimulus"":""run_exp/static/images/task_images/dig.jpg"",""time"":0.3099999998230487},{""stimulus"":""run_exp/static/images/task_images/land.jpg"",""time"":743.5249999997905},{""stimulus"":""run_exp/static/images/task_images/dig.jpg"",""time"":1489.169999999809}]",[],20,,,,,,,,,,,,,,
harvest,218,770119,0.0-56.0-1.0,,null,run_exp/static/images/task_images/gems/80.jpg,null,,,,,,63,,,20,,,,,80,0.789696797,0.7875,,,,,,,
decision,219,770128,0.0-56.0-2.0,,6.705,run_exp/static/images/task_images/land.jpg,76,,,,,,63,,,20,,,,,,,,86856,2,1,TRUE,,,
travel,220,780124,0.0-57.0-0.0,,,,,,,,,,,"[{""stimulus"":""run_exp/static/images/task_images/rocket-01.jpg"",""time"":0.11999999999534339},{""stimulus"":""run_exp/static/images/task_images/rocket-02.jpg"",""time"":1118.4499999999534},{""stimulus"":""run_exp/static/images/task_images/rocket-03.jpg"",""time"":2233.1149999999907},{""stimulus"":""run_exp/static/images/task_images/rocket-04.jpg"",""time"":3340.1650000001537},{""stimulus"":""run_exp/static/images/task_images/rocket-05.jpg"",""time"":4450.04999999993},{""stimulus"":""run_exp/static/images/task_images/rocket-06.jpg"",""time"":5565.290000000037},{""stimulus"":""run_exp/static/images/task_images/rocket-07.jpg"",""time"":6669.79999999993},{""stimulus"":""run_exp/static/images/task_images/rocket-08.jpg"",""time"":7772.465000000084},{""stimulus"":""run_exp/static/images/task_images/rocket-09.jpg"",""time"":8882.035000000149}]",[],20,,,,,,,,,,,,,,
alien_welcome,221,785141,0.0-57.0-1.0,,null,run_exp/static/images/task_images/aliens/old_aliens/planet/alien_planet-28.jpg,null,,,,,,,,,,,,28,"63,56,47,17,10,77,32,61,34,4,27,52,7,80,74,45,44,8,3,9,28,60,78,67,22,37,76,31,25,23,15,48,26,54,68,19,21,40,24,49,1,66,2,41,75,30,62,50,38,70,36,57,5,69,64,6,39,79,20,33,51,72",,,,,,,,,,
land,222,785643,0.0-57.0-2.0,,null,run_exp/static/images/task_images/land.jpg,null,,,,,,91,,,21,,,,,,,,,,,,,,
dig,223,787646,0.0-57.0-3.0,,,,,,,,,,,"[{""stimulus"":""run_exp/static/images/task_images/dig.jpg"",""time"":0.16499999992083758},{""stimulus"":""run_exp/static/images/task_images/land.jpg"",""time"":669.9249999999302},{""stimulus"":""run_exp/static/images/task_images/dig.jpg"",""time"":1342.8649999997579}]",[],21,,,,,,,,,,,,,,
harvest,224,788656,0.0-57.0-4.0,,null,run_exp/static/images/task_images/gems/91.jpg,null,,,,,,74,,,21,,,,,91,0.816347921,0.813186813,,,,,,,
decision,225,788748,0.0-57.0-5.0,,91.19,run_exp/static/images/task_images/land.jpg,76,,,,,,74,,,21,,,,,,,,105476,2,0,TRUE,,,
travel,226,798663,0.0-58.0-0.0,,,,,,,,,,,"[{""stimulus"":""run_exp/static/images/task_images/rocket-01.jpg"",""time"":0.14500000001862645},{""stimulus"":""run_exp/static/images/task_images/rocket-02.jpg"",""time"":1116.6049999999814},{""stimulus"":""run_exp/static/images/task_images/rocket-03.jpg"",""time"":2209.5350000000326},{""stimulus"":""run_exp/static/images/task_images/rocket-04.jpg"",""time"":3302.67499999993},{""stimulus"":""run_exp/static/images/task_images/rocket-05.jpg"",""time"":4410.275000000023},{""stimulus"":""run_exp/static/images/task_images/rocket-06.jpg"",""time"":5502.459999999963},{""stimulus"":""run_exp/static/images/task_images/rocket-07.jpg"",""time"":6609.670000000042},{""stimulus"":""run_exp/static/images/task_images/rocket-08.jpg"",""time"":7704.385000000009},{""stimulus"":""run_exp/static/images/task_images/rocket-09.jpg"",""time"":8814.229999999981}]",[],21,,,,,,,,,,,,,,
alien_welcome,227,803681,0.0-58.0-1.0,,null,run_exp/static/images/task_images/aliens/old_aliens/planet/alien_planet-60.jpg,null,,,,,,,,,,,,60,"63,56,47,17,10,77,32,61,34,4,27,52,7,80,74,45,44,8,3,9,28,60,78,67,22,37,76,31,25,23,15,48,26,54,68,19,21,40,24,49,1,66,2,41,75,30,62,50,38,70,36,57,5,69,64,6,39,79,20,33,51,72",,,,,,,,,,
land,228,804197,0.0-58.0-2.0,,null,run_exp/static/images/task_images/land.jpg,null,,,,,,91,,,22,,,,,,,,,,,,,,
dig,229,806206,0.0-58.0-3.0,,,,,,,,,,,"[{""stimulus"":""run_exp/static/images/task_images/dig.jpg"",""time"":0.5200000000186265},{""stimulus"":""run_exp/static/images/task_images/land.jpg"",""time"":681.2600000000093},{""stimulus"":""run_exp/static/images/task_images/dig.jpg"",""time"":1342.155000000028}]",[],22,,,,,,,,,,,,,,
harvest,230,807214,0.0-58.0-4.0,,null,run_exp/static/images/task_images/gems/91.jpg,null,,,,,,72,,,22,,,,,91,0.793308948,0.791208791,,,,,,,
decision,231,807361,0.0-58.0-5.0,,142.94,run_exp/static/images/task_images/land.jpg,76,,,,,,72,,,22,,,,,,,,124090,2,0,TRUE,,,
travel,232,817230,0.0-59.0-0.0,,,,,,,,,,,"[{""stimulus"":""run_exp/static/images/task_images/rocket-01.jpg"",""time"":0.1299999998882413},{""stimulus"":""run_exp/static/images/task_images/rocket-02.jpg"",""time"":1101.8950000000186},{""stimulus"":""run_exp/static/images/task_images/rocket-03.jpg"",""time"":2202.6899999998277},{""stimulus"":""run_exp/static/images/task_images/rocket-04.jpg"",""time"":3301.669999999809},{""stimulus"":""run_exp/static/images/task_images/rocket-05.jpg"",""time"":4390.319999999949},{""stimulus"":""run_exp/static/images/task_images/rocket-06.jpg"",""time"":5479.779999999795},{""stimulus"":""run_exp/static/images/task_images/rocket-07.jpg"",""time"":6586.329999999842},{""stimulus"":""run_exp/static/images/task_images/rocket-08.jpg"",""time"":7673.939999999828},{""stimulus"":""run_exp/static/images/task_images/rocket-09.jpg"",""time"":8770.23499999987}]",[],22,,,,,,,,,,,,,,
alien_welcome,233,822235,0.0-59.0-1.0,,null,run_exp/static/images/task_images/aliens/old_aliens/planet/alien_planet-78.jpg,null,,,,,,,,,,,,78,"63,56,47,17,10,77,32,61,34,4,27,52,7,80,74,45,44,8,3,9,28,60,78,67,22,37,76,31,25,23,15,48,26,54,68,19,21,40,24,49,1,66,2,41,75,30,62,50,38,70,36,57,5,69,64,6,39,79,20,33,51,72",,,,,,,,,,
land,234,822739,0.0-59.0-2.0,,null,run_exp/static/images/task_images/land.jpg,null,,,,,,98,,,23,,,,,,,,,,,,,,
dig,235,824756,0.0-59.0-3.0,,,,,,,,,,,"[{""stimulus"":""run_exp/static/images/task_images/dig.jpg"",""time"":0.4850000001024455},{""stimulus"":""run_exp/static/images/task_images/land.jpg"",""time"":672.2800000000279},{""stimulus"":""run_exp/static/images/task_images/dig.jpg"",""time"":1336.0849999999627}]",[],23,,,,,,,,,,,,,,
harvest,236,825763,0.0-59.0-4.0,,null,run_exp/static/images/task_images/gems/98.jpg,null,,,,,,83,,,23,,,,,98,0.850875165,0.846938776,,,,,,,
decision,237,826658,0.0-59.0-5.0,,891.46,run_exp/static/images/task_images/land.jpg,65,,,,,,83,,,23,,,,,,,,143386,2,0,FALSE,,,
dig,238,828773,0.0-60.0-0.0,,,,,,,,,,,"[{""stimulus"":""run_exp/static/images/task_images/dig.jpg"",""time"":0.15000000002328306},{""stimulus"":""run_exp/static/images/task_images/land.jpg"",""time"":706.3700000001118},{""stimulus"":""run_exp/static/images/task_images/dig.jpg"",""time"":1406.2949999999255}]",[],23,,,,,,,,,,,,,,
harvest,239,829790,0.0-60.0-1.0,,null,run_exp/static/images/task_images/gems/83.jpg,null,,,,,,68,,,23,,,,,83,0.820307762,0.819277108,,,,,,,
decision,240,830378,0.0-60.0-2.0,,587.185,run_exp/static/images/task_images/land.jpg,76,,,,,,68,,,23,,,,,,,,147106,2,1,TRUE,,,
travel,241,839791,0.0-61.0-0.0,,,,,,,,,,,"[{""stimulus"":""run_exp/static/images/task_images/rocket-01.jpg"",""time"":0.13999999989755452},{""stimulus"":""run_exp/static/images/task_images/rocket-02.jpg"",""time"":1051.125},{""stimulus"":""run_exp/static/images/task_images/rocket-03.jpg"",""time"":2105.4150000000373},{""stimulus"":""run_exp/static/images/task_images/rocket-04.jpg"",""time"":3145.579999999958},{""stimulus"":""run_exp/static/images/task_images/rocket-05.jpg"",""time"":4190.5449999999255},{""stimulus"":""run_exp/static/images/task_images/rocket-06.jpg"",""time"":5231.374999999884},{""stimulus"":""run_exp/static/images/task_images/rocket-07.jpg"",""time"":6286.210000000079},{""stimulus"":""run_exp/static/images/task_images/rocket-08.jpg"",""time"":7328.624999999884},{""stimulus"":""run_exp/static/images/task_images/rocket-09.jpg"",""time"":8367.515000000014}]",[],23,,,,,,,,,,,,,,
alien_welcome,242,844803,0.0-61.0-1.0,,null,run_exp/static/images/task_images/aliens/old_aliens/planet/alien_planet-67.jpg,null,,,,,,,,,,,,67,"63,56,47,17,10,77,32,61,34,4,27,52,7,80,74,45,44,8,3,9,28,60,78,67,22,37,76,31,25,23,15,48,26,54,68,19,21,40,24,49,1,66,2,41,75,30,62,50,38,70,36,57,5,69,64,6,39,79,20,33,51,72",,,,,,,,,,
land,243,845305,0.0-61.0-2.0,,null,run_exp/static/images/task_images/land.jpg,null,,,,,,100,,,24,,,,,,,,,,,,,,
dig,244,847326,0.0-61.0-3.0,,,,,,,,,,,"[{""stimulus"":""run_exp/static/images/task_images/dig.jpg"",""time"":0.4949999999953434},{""stimulus"":""run_exp/static/images/task_images/land.jpg"",""time"":673.7399999998743},{""stimulus"":""run_exp/static/images/task_images/dig.jpg"",""time"":1337.069999999716}]",[],24,,,,,,,,,,,,,,
harvest,245,848334,0.0-61.0-4.0,,null,run_exp/static/images/task_images/gems/100.jpg,null,,,,,,48,,,24,,,,,100,0.482346249,0.48,,,,,,,
decision,246,849450,0.0-61.0-5.0,,1112.89,run_exp/static/images/task_images/land.jpg,76,,,,,,48,,,24,,,,,,,,166179,2,0,TRUE,,,
travel,247,858360,0.0-62.0-0.0,,,,,,,,,,,"[{""stimulus"":""run_exp/static/images/task_images/rocket-01.jpg"",""time"":0.4050000000279397},{""stimulus"":""run_exp/static/images/task_images/rocket-02.jpg"",""time"":993.2100000000792},{""stimulus"":""run_exp/static/images/task_images/rocket-03.jpg"",""time"":1979.3050000000512},{""stimulus"":""run_exp/static/images/task_images/rocket-04.jpg"",""time"":2964.6450000000186},{""stimulus"":""run_exp/static/images/task_images/rocket-05.jpg"",""time"":3955.7600000001257},{""stimulus"":""run_exp/static/images/task_images/rocket-06.jpg"",""time"":4939.980000000098},{""stimulus"":""run_exp/static/images/task_images/rocket-07.jpg"",""time"":5932.70000000007},{""stimulus"":""run_exp/static/images/task_images/rocket-08.jpg"",""time"":6913.2050000000745},{""stimulus"":""run_exp/static/images/task_images/rocket-09.jpg"",""time"":7907.780000000028}]",[],24,,,,,,,,,,,,,,
alien_welcome,248,863376,0.0-62.0-1.0,,null,run_exp/static/images/task_images/aliens/old_aliens/planet/alien_planet-22.jpg,null,,,,,,,,,,,,22,"63,56,47,17,10,77,32,61,34,4,27,52,7,80,74,45,44,8,3,9,28,60,78,67,22,37,76,31,25,23,15,48,26,54,68,19,21,40,24,49,1,66,2,41,75,30,62,50,38,70,36,57,5,69,64,6,39,79,20,33,51,72",,,,,,,,,,
land,249,863892,0.0-62.0-2.0,,null,run_exp/static/images/task_images/land.jpg,null,,,,,,98,,,25,,,,,,,,,,,,,,
dig,250,865908,0.0-62.0-3.0,,,,,,,,,,,"[{""stimulus"":""run_exp/static/images/task_images/dig.jpg"",""time"":0.35999999998603016},{""stimulus"":""run_exp/static/images/task_images/land.jpg"",""time"":680.4199999999255},{""stimulus"":""run_exp/static/images/task_images/dig.jpg"",""time"":1351.3349999998463}]",[],25,,,,,,,,,,,,,,
harvest,251,866918,0.0-62.0-4.0,,null,run_exp/static/images/task_images/gems/98.jpg,null,,,,,,86,,,25,,,,,98,0.876125962,0.87755102,,,,,,,
decision,252,867459,0.0-62.0-5.0,,537.235,run_exp/static/images/task_images/land.jpg,76,,,,,,86,,,25,,,,,,,,184187,2,0,TRUE,,,
travel,253,876942,0.0-63.0-0.0,,,,,,,,,,,"[{""stimulus"":""run_exp/static/images/task_images/rocket-01.jpg"",""time"":0.4200000000419095},{""stimulus"":""run_exp/static/images/task_images/rocket-02.jpg"",""time"":1055.3200000001816},{""stimulus"":""run_exp/static/images/task_images/rocket-03.jpg"",""time"":2110.7750000001397},{""stimulus"":""run_exp/static/images/task_images/rocket-04.jpg"",""time"":3167.615000000107},{""stimulus"":""run_exp/static/images/task_images/rocket-05.jpg"",""time"":4208.415000000037},{""stimulus"":""run_exp/static/images/task_images/rocket-06.jpg"",""time"":5272.110000000102},{""stimulus"":""run_exp/static/images/task_images/rocket-07.jpg"",""time"":6322.60000000021},{""stimulus"":""run_exp/static/images/task_images/rocket-08.jpg"",""time"":7362.175000000279},{""stimulus"":""run_exp/static/images/task_images/rocket-09.jpg"",""time"":8419.110000000102}]",[],25,,,,,,,,,,,,,,
alien_welcome,254,881950,0.0-63.0-1.0,,null,run_exp/static/images/task_images/aliens/old_aliens/planet/alien_planet-37.jpg,null,,,,,,,,,,,,37,"63,56,47,17,10,77,32,61,34,4,27,52,7,80,74,45,44,8,3,9,28,60,78,67,22,37,76,31,25,23,15,48,26,54,68,19,21,40,24,49,1,66,2,41,75,30,62,50,38,70,36,57,5,69,64,6,39,79,20,33,51,72",,,,,,,,,,
land,255,882453,0.0-63.0-2.0,,null,run_exp/static/images/task_images/land.jpg,null,,,,,,96,,,26,,,,,,,,,,,,,,
dig,256,884468,0.0-63.0-3.0,,,,,,,,,,,"[{""stimulus"":""run_exp/static/images/task_images/dig.jpg"",""time"":0.1600000000325963},{""stimulus"":""run_exp/static/images/task_images/land.jpg"",""time"":679.2599999998929},{""stimulus"":""run_exp/static/images/task_images/dig.jpg"",""time"":1350.5299999999115}]",[],26,,,,,,,,,,,,,,
harvest,257,885481,0.0-63.0-4.0,,null,run_exp/static/images/task_images/gems/96.jpg,null,,,,,,79,,,26,,,,,96,0.81872258,0.822916667,,,,,,,
decision,258,885839,0.0-63.0-5.0,,353.72,run_exp/static/images/task_images/land.jpg,65,,,,,,79,,,26,,,,,,,,202567,2,0,FALSE,,,
dig,259,888500,0.0-64.0-0.0,,,,,,,,,,,"[{""stimulus"":""run_exp/static/images/task_images/dig.jpg"",""time"":0.1600000000325963},{""stimulus"":""run_exp/static/images/task_images/land.jpg"",""time"":886.1500000000233},{""stimulus"":""run_exp/static/images/task_images/dig.jpg"",""time"":1775.619999999879}]",[],26,,,,,,,,,,,,,,
harvest,260,889517,0.0-64.0-1.0,,null,run_exp/static/images/task_images/gems/79.jpg,null,,,,,,63,,,26,,,,,79,0.791165279,0.797468354,,,,,,,
decision,261,890838,0.0-64.0-2.0,,1317.905,run_exp/static/images/task_images/land.jpg,65,,,,,,63,,,26,,,,,,,,207566,2,1,FALSE,,,
dig,262,892526,0.0-65.0-0.0,,,,,,,,,,,"[{""stimulus"":""run_exp/static/images/task_images/dig.jpg"",""time"":0.15999999979976565},{""stimulus"":""run_exp/static/images/task_images/land.jpg"",""time"":571.4499999999534},{""stimulus"":""run_exp/static/images/task_images/dig.jpg"",""time"":1135.280000000028}]",[],26,,,,,,,,,,,,,,
harvest,263,893540,0.0-65.0-1.0,,null,run_exp/static/images/task_images/gems/63.jpg,null,,,,,,50,,,26,,,,,63,0.799846291,0.793650794,,,,,,,
decision,264,894578,0.0-65.0-2.0,,1036.64,run_exp/static/images/task_images/land.jpg,65,,,,,,50,,,26,,,,,,,,211307,2,2,FALSE,,,
dig,265,896553,0.0-66.0-0.0,,,,,,,,,,,"[{""stimulus"":""run_exp/static/images/task_images/dig.jpg"",""time"":0.38000000012107193},{""stimulus"":""run_exp/static/images/task_images/land.jpg"",""time"":659.3800000000047},{""stimulus"":""run_exp/static/images/task_images/dig.jpg"",""time"":1315.704999999958}]",[],26,,,,,,,,,,,,,,
harvest,266,897559,0.0-66.0-1.0,,null,run_exp/static/images/task_images/gems/50.jpg,null,,,,,,42,,,26,,,,,50,0.836582685,0.84,,,,,,,
decision,267,898418,0.0-66.0-2.0,,855.46,run_exp/static/images/task_images/land.jpg,65,,,,,,42,,,26,,,,,,,,215147,2,3,FALSE,,,
dig,268,900585,0.0-67.0-0.0,,,,,,,,,,,"[{""stimulus"":""run_exp/static/images/task_images/dig.jpg"",""time"":0.22000000020489097},{""stimulus"":""run_exp/static/images/task_images/land.jpg"",""time"":726.0250000002561},{""stimulus"":""run_exp/static/images/task_images/dig.jpg"",""time"":1436.2850000000326}]",[],26,,,,,,,,,,,,,,
harvest,269,901590,0.0-67.0-1.0,,null,run_exp/static/images/task_images/gems/42.jpg,null,,,,,,32,,,26,,,,,42,0.7584313,0.761904762,,,,,,,
decision,270,902808,0.0-67.0-2.0,,1215.375,run_exp/static/images/task_images/land.jpg,65,,,,,,32,,,26,,,,,,,,219537,2,4,FALSE,,,
dig,271,904607,0.0-68.0-0.0,,,,,,,,,,,"[{""stimulus"":""run_exp/static/images/task_images/dig.jpg"",""time"":0.3750000001164153},{""stimulus"":""run_exp/static/images/task_images/land.jpg"",""time"":600.020000000135},{""stimulus"":""run_exp/static/images/task_images/dig.jpg"",""time"":1192.3400000000838}]",[],26,,,,,,,,,,,,,,
harvest,272,905610,0.0-68.0-1.0,,null,run_exp/static/images/task_images/gems/32.jpg,null,,,,,,26,,,26,,,,,32,0.823322722,0.8125,,,,,,,
decision,273,906109,0.0-68.0-2.0,,495.63,run_exp/static/images/task_images/land.jpg,65,,,,,,26,,,26,,,,,,,,222837,2,5,FALSE,,,
dig,274,908628,0.0-69.0-0.0,,,,,,,,,,,"[{""stimulus"":""run_exp/static/images/task_images/dig.jpg"",""time"":0.14000000013038516},{""stimulus"":""run_exp/static/images/task_images/land.jpg"",""time"":844.4850000001024},{""stimulus"":""run_exp/static/images/task_images/dig.jpg"",""time"":1678.1200000001118}]",[],26,,,,,,,,,,,,,,
harvest,275,909636,0.0-69.0-1.0,,null,run_exp/static/images/task_images/gems/26.jpg,null,,,,,,19,,,26,,,,,26,0.718932397,0.730769231,,,,,,,
decision,276,909699,0.0-69.0-2.0,,60.14,run_exp/static/images/task_images/land.jpg,65,,,,,,19,,,26,,,,,,,,226427,2,6,FALSE,,,
dig,277,912658,0.0-70.0-0.0,,,,,,,,,,,"[{""stimulus"":""run_exp/static/images/task_images/dig.jpg"",""time"":0.4799999998649582},{""stimulus"":""run_exp/static/images/task_images/land.jpg"",""time"":987.699999999837},{""stimulus"":""run_exp/static/images/task_images/dig.jpg"",""time"":1960.6650000000373}]",[],26,,,,,,,,,,,,,,
harvest,278,913663,0.0-70.0-1.0,,null,run_exp/static/images/task_images/gems/19.jpg,null,,,,,,15,,,26,,,,,19,0.80567888,0.789473684,,,,,,,
decision,279,915669,0.0-70.0-2.0,,2001.895,run_exp/static/images/task_images/land.jpg,65,,,,,,15,,,26,,,,,,,,232397,2,7,FALSE,,,
dig,280,916682,0.0-71.0-0.0,,,,,,,,,,,"[{""stimulus"":""run_exp/static/images/task_images/dig.jpg"",""time"":0.12500000011641532},{""stimulus"":""run_exp/static/images/task_images/land.jpg"",""time"":348},{""stimulus"":""run_exp/static/images/task_images/dig.jpg"",""time"":678.6850000001723}]",[],26,,,,,,,,,,,,,,
harvest,281,917691,0.0-71.0-1.0,,null,run_exp/static/images/task_images/gems/15.jpg,null,,,,,,13,,,26,,,,,15,0.842030372,0.866666667,,,,,,,
decision,282,917707,0.0-71.0-2.0,,13.285,run_exp/static/images/task_images/land.jpg,65,,,,,,13,,,26,,,,,,,,234435,2,8,FALSE,,,
dig,283,920696,0.0-72.0-0.0,,,,,,,,,,,"[{""stimulus"":""run_exp/static/images/task_images/dig.jpg"",""time"":0.13500000000931323},{""stimulus"":""run_exp/static/images/task_images/land.jpg"",""time"":1003.6849999999395},{""stimulus"":""run_exp/static/images/task_images/dig.jpg"",""time"":1993.7849999999162}]",[],26,,,,,,,,,,,,,,
harvest,284,921705,0.0-72.0-1.0,,null,run_exp/static/images/task_images/gems/13.jpg,null,,,,,,11,,,26,,,,,13,0.884480836,0.846153846,,,,,,,
decision,285,923069,0.0-72.0-2.0,,1359.13,run_exp/static/images/task_images/land.jpg,65,,,,,,11,,,26,,,,,,,,239797,2,9,FALSE,,,
dig,286,924724,0.0-73.0-0.0,,,,,,,,,,,"[{""stimulus"":""run_exp/static/images/task_images/dig.jpg"",""time"":0.17000000004190952},{""stimulus"":""run_exp/static/images/task_images/land.jpg"",""time"":548.6550000001444},{""stimulus"":""run_exp/static/images/task_images/dig.jpg"",""time"":1100.9650000002002}]",[],26,,,,,,,,,,,,,,
harvest,287,925731,0.0-73.0-1.0,,null,run_exp/static/images/task_images/gems/11.jpg,null,,,,,,9,,,26,,,,,11,0.82252906,0.818181818,,,,,,,
decision,288,927529,0.0-73.0-2.0,,1794.03,run_exp/static/images/task_images/land.jpg,65,,,,,,9,,,26,,,,,,,,244257,2,10,FALSE,,,
dig,289,928755,0.0-74.0-0.0,,,,,,,,,,,"[{""stimulus"":""run_exp/static/images/task_images/dig.jpg"",""time"":0.4249999999301508},{""stimulus"":""run_exp/static/images/task_images/land.jpg"",""time"":418.99499999999534},{""stimulus"":""run_exp/static/images/task_images/dig.jpg"",""time"":810.2149999999674}]",[],26,,,,,,,,,,,,,,
harvest,290,929761,0.0-74.0-1.0,,null,run_exp/static/images/task_images/gems/9.jpg,null,,,,,,8,,,26,,,,,9,0.88262983,0.888888889,,,,,,,
decision,291,931959,0.0-74.0-2.0,,2193.84,run_exp/static/images/task_images/land.jpg,65,,,,,,8,,,26,,,,,,,,248687,2,11,FALSE,,,
dig,292,932791,0.0-75.0-0.0,,,,,,,,,,,"[{""stimulus"":""run_exp/static/images/task_images/dig.jpg"",""time"":0.3449999999720603},{""stimulus"":""run_exp/static/images/task_images/land.jpg"",""time"":281.2249999999767},{""stimulus"":""run_exp/static/images/task_images/dig.jpg"",""time"":552.3149999999441}]",[],26,,,,,,,,,,,,,,
harvest,293,933795,0.0-75.0-1.0,,null,run_exp/static/images/task_images/gems/8.jpg,null,,,,,,7,,,26,,,,,8,0.828483485,0.875,,,,,,,
decision,294,935218,0.0-75.0-2.0,,1419.865,run_exp/static/images/task_images/land.jpg,65,,,,,,7,,,26,,,,,,,,251947,2,12,FALSE,,,
dig,295,936804,0.0-76.0-0.0,,,,,,,,,,,"[{""stimulus"":""run_exp/static/images/task_images/dig.jpg"",""time"":0.12000000011175871},{""stimulus"":""run_exp/static/images/task_images/land.jpg"",""time"":539.1899999999441},{""stimulus"":""run_exp/static/images/task_images/dig.jpg"",""time"":1057.0700000000652}]",[],26,,,,,,,,,,,,,,
harvest,296,937822,0.0-76.0-1.0,,null,run_exp/static/images/task_images/gems/7.jpg,null,,,,,,6,,,26,,,,,7,0.811021139,0.857142857,,,,,,,
decision,297,940169,0.0-76.0-2.0,,2343.32,run_exp/static/images/task_images/land.jpg,65,,,,,,6,,,26,,,,,,,,256897,2,13,FALSE,,,
dig,298,940837,0.0-77.0-0.0,,,,,,,,,,,"[{""stimulus"":""run_exp/static/images/task_images/dig.jpg"",""time"":0.12500000011641532},{""stimulus"":""run_exp/static/images/task_images/land.jpg"",""time"":226.58500000019558},{""stimulus"":""run_exp/static/images/task_images/dig.jpg"",""time"":445.9550000001909}]",[],26,,,,,,,,,,,,,,
harvest,299,941859,0.0-77.0-1.0,,null,run_exp/static/images/task_images/gems/6.jpg,null,,,,,,5,,,26,,,,,6,0.827796491,0.833333333,,,,,,,
decision,300,942839,0.0-77.0-2.0,,977.185,run_exp/static/images/task_images/land.jpg,65,,,,,,5,,,26,,,,,,,,259567,2,14,FALSE,,,
dig,301,944870,0.0-78.0-0.0,,,,,,,,,,,"[{""stimulus"":""run_exp/static/images/task_images/dig.jpg"",""time"":0.125},{""stimulus"":""run_exp/static/images/task_images/land.jpg"",""time"":689.1000000000931},{""stimulus"":""run_exp/static/images/task_images/dig.jpg"",""time"":1352.795000000042}]",[],26,,,,,,,,,,,,,,
harvest,302,945876,0.0-78.0-1.0,,null,run_exp/static/images/task_images/gems/5.jpg,null,,,,,,5,,,26,,,,,5,0.901589284,1,,,,,,,
decision,303,945918,0.0-78.0-2.0,,39.89,run_exp/static/images/task_images/land.jpg,76,,,,,,5,,,26,,,,,,,,262647,2,15,TRUE,,,
travel,304,955896,0.0-79.0-0.0,,,,,,,,,,,"[{""stimulus"":""run_exp/static/images/task_images/rocket-01.jpg"",""time"":0.4150000000372529},{""stimulus"":""run_exp/static/images/task_images/rocket-02.jpg"",""time"":1121.255000000121},{""stimulus"":""run_exp/static/images/task_images/rocket-03.jpg"",""time"":2217.859999999986},{""stimulus"":""run_exp/static/images/task_images/rocket-04.jpg"",""time"":3333.550000000163},{""stimulus"":""run_exp/static/images/task_images/rocket-05.jpg"",""time"":4439.339999999967},{""stimulus"":""run_exp/static/images/task_images/rocket-06.jpg"",""time"":5532.170000000042},{""stimulus"":""run_exp/static/images/task_images/rocket-07.jpg"",""time"":6650.420000000042},{""stimulus"":""run_exp/static/images/task_images/rocket-08.jpg"",""time"":7747.545000000042},{""stimulus"":""run_exp/static/images/task_images/rocket-09.jpg"",""time"":8851.214999999967}]",[],26,,,,,,,,,,,,,,
alien_welcome,305,960907,0.0-79.0-1.0,,null,run_exp/static/images/task_images/aliens/old_aliens/planet/alien_planet-76.jpg,null,,,,,,,,,,,,76,"63,56,47,17,10,77,32,61,34,4,27,52,7,80,74,45,44,8,3,9,28,60,78,67,22,37,76,31,25,23,15,48,26,54,68,19,21,40,24,49,1,66,2,41,75,30,62,50,38,70,36,57,5,69,64,6,39,79,20,33,51,72",,,,,,,,,,
land,306,961422,0.0-79.0-2.0,,null,run_exp/static/images/task_images/land.jpg,null,,,,,,91,,,27,,,,,,,,,,,,,,
dig,307,963440,0.0-79.0-3.0,,,,,,,,,,,"[{""stimulus"":""run_exp/static/images/task_images/dig.jpg"",""time"":0.4850000001024455},{""stimulus"":""run_exp/static/images/task_images/land.jpg"",""time"":676.3799999998882},{""stimulus"":""run_exp/static/images/task_images/dig.jpg"",""time"":1336.160000000149}]",[],27,,,,,,,,,,,,,,
harvest,308,964447,0.0-79.0-4.0,,null,run_exp/static/images/task_images/gems/91.jpg,null,,,,,,17,,,27,,,,,91,0.186489621,0.186813187,,,,,,,
decision,309,967068,0.0-79.0-5.0,,2617.725,run_exp/static/images/task_images/land.jpg,76,,,,,,17,,,27,,,,,,,,283797,2,0,TRUE,,,
travel,310,974467,0.0-80.0-0.0,,,,,,,,,,,"[{""stimulus"":""run_exp/static/images/task_images/rocket-01.jpg"",""time"":0.3749999998835847},{""stimulus"":""run_exp/static/images/task_images/rocket-02.jpg"",""time"":832.1049999999814},{""stimulus"":""run_exp/static/images/task_images/rocket-03.jpg"",""time"":1651.9550000000745},{""stimulus"":""run_exp/static/images/task_images/rocket-04.jpg"",""time"":2475.8749999998836},{""stimulus"":""run_exp/static/images/task_images/rocket-05.jpg"",""time"":3296.689999999944},{""stimulus"":""run_exp/static/images/task_images/rocket-06.jpg"",""time"":4112.594999999856},{""stimulus"":""run_exp/static/images/task_images/rocket-07.jpg"",""time"":4934.649999999907},{""stimulus"":""run_exp/static/images/task_images/rocket-08.jpg"",""time"":5752.8099999999395},{""stimulus"":""run_exp/static/images/task_images/rocket-09.jpg"",""time"":6566.704999999958}]",[],27,,,,,,,,,,,,,,
alien_welcome,311,979483,0.0-80.0-1.0,,null,run_exp/static/images/task_images/aliens/old_aliens/planet/alien_planet-31.jpg,null,,,,,,,,,,,,31,"63,56,47,17,10,77,32,61,34,4,27,52,7,80,74,45,44,8,3,9,28,60,78,67,22,37,76,31,25,23,15,48,26,54,68,19,21,40,24,49,1,66,2,41,75,30,62,50,38,70,36,57,5,69,64,6,39,79,20,33,51,72",,,,,,,,,,
land,312,979998,0.0-80.0-2.0,,null,run_exp/static/images/task_images/land.jpg,null,,,,,,97,,,28,,,,,,,,,,,,,,
dig,313,982018,0.0-80.0-3.0,,,,,,,,,,,"[{""stimulus"":""run_exp/static/images/task_images/dig.jpg"",""time"":0.2999999999301508},{""stimulus"":""run_exp/static/images/task_images/land.jpg"",""time"":679.4949999998789},{""stimulus"":""run_exp/static/images/task_images/dig.jpg"",""time"":1341.8349999999627}]",[],28,,,,,,,,,,,,,,
harvest,314,983031,0.0-80.0-4.0,,null,run_exp/static/images/task_images/gems/97.jpg,null,,,,,,10,,,28,,,,,97,0.102253103,0.103092784,,,,,,,
decision,315,985748,0.0-80.0-5.0,,2712.96,run_exp/static/images/task_images/land.jpg,76,,,,,,10,,,28,,,,,,,,302477,2,0,TRUE,,,
end_of_block_continue,316,994606,0.0-81.0-0.0,,null,run_exp/static/audio/clip_32_block_end.m4a,,,,,,null,,,,,,,,,,,,,,,,,,
alien_welcome,317,999628,0.0-82.0-0.0,,null,run_exp/static/images/task_images/aliens/old_aliens/planet/alien_planet-25.jpg,null,,,,,,,,,,,,25,"63,56,47,17,10,77,32,61,34,4,27,52,7,80,74,45,44,8,3,9,28,60,78,67,22,37,76,31,25,23,15,48,26,54,68,19,21,40,24,49,1,66,2,41,75,30,62,50,38,70,36,57,5,69,64,6,39,79,20,33,51,72",,,,,,,,,,
land,318,1000143,0.0-82.0-1.0,,null,run_exp/static/images/task_images/land.jpg,null,,,,,,85,,,29,,,,,,,,,,,,,,
dig,319,1002162,0.0-82.0-2.0,,,,,,,,,,,"[{""stimulus"":""run_exp/static/images/task_images/dig.jpg"",""time"":0.1749999999301508},{""stimulus"":""run_exp/static/images/task_images/land.jpg"",""time"":672.5349999999162},{""stimulus"":""run_exp/static/images/task_images/dig.jpg"",""time"":1347.0499999998137}]",[],29,,,,,,,,,,,,,,
harvest,320,1003170,0.0-82.0-3.0,,null,run_exp/static/images/task_images/gems/85.jpg,null,,,,,,43,,,29,,,,,85,0.505093076,0.505882353,,,,,,,
decision,321,1004128,0.0-82.0-4.0,,956.405,run_exp/static/images/task_images/land.jpg,76,,,,,,43,,,29,,,,,,,,9515,3,0,TRUE,,,
travel,322,1013193,0.0-83.0-0.0,,,,,,,,,,,"[{""stimulus"":""run_exp/static/images/task_images/rocket-01.jpg"",""time"":0.4200000000419095},{""stimulus"":""run_exp/static/images/task_images/rocket-02.jpg"",""time"":1017.160000000149},{""stimulus"":""run_exp/static/images/task_images/rocket-03.jpg"",""time"":2024.6800000000512},{""stimulus"":""run_exp/static/images/task_images/rocket-04.jpg"",""time"":3020.320000000065},{""stimulus"":""run_exp/static/images/task_images/rocket-05.jpg"",""time"":4032.8800000000047},{""stimulus"":""run_exp/static/images/task_images/rocket-06.jpg"",""time"":5023.785000000149},{""stimulus"":""run_exp/static/images/task_images/rocket-07.jpg"",""time"":6036.525000000023},{""stimulus"":""run_exp/static/images/task_images/rocket-08.jpg"",""time"":7042.484999999986},{""stimulus"":""run_exp/static/images/task_images/rocket-09.jpg"",""time"":8046.255000000005}]",[],29,,,,,,,,,,,,,,
alien_welcome,323,1018208,0.0-83.0-1.0,,null,run_exp/static/images/task_images/aliens/old_aliens/planet/alien_planet-23.jpg,null,,,,,,,,,,,,23,"63,56,47,17,10,77,32,61,34,4,27,52,7,80,74,45,44,8,3,9,28,60,78,67,22,37,76,31,25,23,15,48,26,54,68,19,21,40,24,49,1,66,2,41,75,30,62,50,38,70,36,57,5,69,64,6,39,79,20,33,51,72",,,,,,,,,,
land,324,1018711,0.0-83.0-2.0,,null,run_exp/static/images/task_images/land.jpg,null,,,,,,102,,,30,,,,,,,,,,,,,,
dig,325,1020731,0.0-83.0-3.0,,,,,,,,,,,"[{""stimulus"":""run_exp/static/images/task_images/dig.jpg"",""time"":0.5050000000046566},{""stimulus"":""run_exp/static/images/task_images/land.jpg"",""time"":669.2849999999162},{""stimulus"":""run_exp/static/images/task_images/dig.jpg"",""time"":1343.854999999865}]",[],30,,,,,,,,,,,,,,
harvest,326,1021748,0.0-83.0-4.0,,null,run_exp/static/images/task_images/gems/102.jpg,null,,,,,,85,,,30,,,,,102,0.833182615,0.833333333,,,,,,,
decision,327,1022407,0.0-83.0-5.0,,655.265,run_exp/static/images/task_images/land.jpg,76,,,,,,85,,,30,,,,,,,,27794,3,0,TRUE,,,
travel,328,1031776,0.0-84.0-0.0,,,,,,,,,,,"[{""stimulus"":""run_exp/static/images/task_images/rocket-01.jpg"",""time"":0.4150000000372529},{""stimulus"":""run_exp/static/images/task_images/rocket-02.jpg"",""time"":1056.3250000001863},{""stimulus"":""run_exp/static/images/task_images/rocket-03.jpg"",""time"":2079.9000000003725},{""stimulus"":""run_exp/static/images/task_images/rocket-04.jpg"",""time"":3124.7399999999907},{""stimulus"":""run_exp/static/images/task_images/rocket-05.jpg"",""time"":4159.465000000317},{""stimulus"":""run_exp/static/images/task_images/rocket-06.jpg"",""time"":5206.750000000233},{""stimulus"":""run_exp/static/images/task_images/rocket-07.jpg"",""time"":6232.235000000335},{""stimulus"":""run_exp/static/images/task_images/rocket-08.jpg"",""time"":7270.375000000233},{""stimulus"":""run_exp/static/images/task_images/rocket-09.jpg"",""time"":8314.200000000186}]",[],30,,,,,,,,,,,,,,
alien_welcome,329,1036791,0.0-84.0-1.0,,null,run_exp/static/images/task_images/aliens/old_aliens/planet/alien_planet-15.jpg,null,,,,,,,,,,,,15,"63,56,47,17,10,77,32,61,34,4,27,52,7,80,74,45,44,8,3,9,28,60,78,67,22,37,76,31,25,23,15,48,26,54,68,19,21,40,24,49,1,66,2,41,75,30,62,50,38,70,36,57,5,69,64,6,39,79,20,33,51,72",,,,,,,,,,
land,330,1037294,0.0-84.0-2.0,,null,run_exp/static/images/task_images/land.jpg,null,,,,,,105,,,31,,,,,,,,,,,,,,
dig,331,1039299,0.0-84.0-3.0,,,,,,,,,,,"[{""stimulus"":""run_exp/static/images/task_images/dig.jpg"",""time"":0.2750000001396984},{""stimulus"":""run_exp/static/images/task_images/land.jpg"",""time"":675.0700000000652},{""stimulus"":""run_exp/static/images/task_images/dig.jpg"",""time"":1339.0900000000838}]",[],31,,,,,,,,,,,,,,
harvest,332,1040313,0.0-84.0-4.0,,null,run_exp/static/images/task_images/gems/105.jpg,null,,,,,,55,,,31,,,,,105,0.523710981,0.523809524,,,,,,,
decision,333,1040716,0.0-84.0-5.0,,399.72,run_exp/static/images/task_images/land.jpg,76,,,,,,55,,,31,,,,,,,,46103,3,0,TRUE,,,
travel,334,1050322,0.0-85.0-0.0,,,,,,,,,,,"[{""stimulus"":""run_exp/static/images/task_images/rocket-01.jpg"",""time"":0.15500000026077032},{""stimulus"":""run_exp/static/images/task_images/rocket-02.jpg"",""time"":1074.1700000001583},{""stimulus"":""run_exp/static/images/task_images/rocket-03.jpg"",""time"":2146.230000000214},{""stimulus"":""run_exp/static/images/task_images/rocket-04.jpg"",""time"":3211.685000000056},{""stimulus"":""run_exp/static/images/task_images/rocket-05.jpg"",""time"":4274.15000000014},{""stimulus"":""run_exp/static/images/task_images/rocket-06.jpg"",""time"":5345.260000000009},{""stimulus"":""run_exp/static/images/task_images/rocket-07.jpg"",""time"":6410.625},{""stimulus"":""run_exp/static/images/task_images/rocket-08.jpg"",""time"":7479.285000000149},{""stimulus"":""run_exp/static/images/task_images/rocket-09.jpg"",""time"":8533.310000000056}]",[],31,,,,,,,,,,,,,,
alien_welcome,335,1055330,0.0-85.0-1.0,,null,run_exp/static/images/task_images/aliens/old_aliens/planet/alien_planet-48.jpg,null,,,,,,,,,,,,48,"63,56,47,17,10,77,32,61,34,4,27,52,7,80,74,45,44,8,3,9,28,60,78,67,22,37,76,31,25,23,15,48,26,54,68,19,21,40,24,49,1,66,2,41,75,30,62,50,38,70,36,57,5,69,64,6,39,79,20,33,51,72",,,,,,,,,,
land,336,1055833,0.0-85.0-2.0,,null,run_exp/static/images/task_images/land.jpg,null,,,,,,95,,,32,,,,,,,,,,,,,,
dig,337,1057838,0.0-85.0-3.0,,,,,,,,,,,"[{""stimulus"":""run_exp/static/images/task_images/dig.jpg"",""time"":0.19499999983236194},{""stimulus"":""run_exp/static/images/task_images/land.jpg"",""time"":677.7199999999721},{""stimulus"":""run_exp/static/images/task_images/dig.jpg"",""time"":1348.2399999997579}]",[],32,,,,,,,,,,,,,,
harvest,338,1058841,0.0-85.0-4.0,,null,run_exp/static/images/task_images/gems/95.jpg,null,,,,,,35,,,32,,,,,95,0.370317994,0.368421053,,,,,,,
decision,339,1058926,0.0-85.0-5.0,,83.805,run_exp/static/images/task_images/land.jpg,76,,,,,,35,,,32,,,,,,,,64313,3,0,TRUE,,,
travel,340,1068846,0.0-86.0-0.0,,,,,,,,,,,"[{""stimulus"":""run_exp/static/images/task_images/rocket-01.jpg"",""time"":0.11000000010244548},{""stimulus"":""run_exp/static/images/task_images/rocket-02.jpg"",""time"":1114.3900000001304},{""stimulus"":""run_exp/static/images/task_images/rocket-03.jpg"",""time"":2213.185000000056},{""stimulus"":""run_exp/static/images/task_images/rocket-04.jpg"",""time"":3316.030000000028},{""stimulus"":""run_exp/static/images/task_images/rocket-05.jpg"",""time"":4416.524999999907},{""stimulus"":""run_exp/static/images/task_images/rocket-06.jpg"",""time"":5521.664999999804},{""stimulus"":""run_exp/static/images/task_images/rocket-07.jpg"",""time"":6620.060000000056},{""stimulus"":""run_exp/static/images/task_images/rocket-08.jpg"",""time"":7716.059999999823},{""stimulus"":""run_exp/static/images/task_images/rocket-09.jpg"",""time"":8822.86499999999}]",[],32,,,,,,,,,,,,,,
alien_welcome,341,1073857,0.0-86.0-1.0,,null,run_exp/static/images/task_images/aliens/old_aliens/planet/alien_planet-26.jpg,null,,,,,,,,,,,,26,"63,56,47,17,10,77,32,61,34,4,27,52,7,80,74,45,44,8,3,9,28,60,78,67,22,37,76,31,25,23,15,48,26,54,68,19,21,40,24,49,1,66,2,41,75,30,62,50,38,70,36,57,5,69,64,6,39,79,20,33,51,72",,,,,,,,,,
land,342,1074360,0.0-86.0-2.0,,null,run_exp/static/images/task_images/land.jpg,null,,,,,,97,,,33,,,,,,,,,,,,,,
dig,343,1076371,0.0-86.0-3.0,,,,,,,,,,,"[{""stimulus"":""run_exp/static/images/task_images/dig.jpg"",""time"":0.5},{""stimulus"":""run_exp/static/images/task_images/land.jpg"",""time"":675.535000000149},{""stimulus"":""run_exp/static/images/task_images/dig.jpg"",""time"":1348.2650000001304}]",[],33,,,,,,,,,,,,,,
harvest,344,1077378,0.0-86.0-4.0,,null,run_exp/static/images/task_images/gems/97.jpg,null,,,,,,40,,,33,,,,,97,0.417505094,0.412371134,,,,,,,
