trial_type,trial_index,time_elapsed,internal_node_id,interactions,blur_events,focus_events,fullscreenenter_events,fullscreenexit_events,success,rt,stimulus,key_press,prompt,subject_id,participant_id,age,gender,button_pressed,next_reward,animation_sequence,responses,planet,curr_prac_trial,n_prac_rounds,alien,aliens,reward_received,decay_rate_actual,decay_rate_exp,time_in_block,block_num,prt,last_trial_on_planet,button_html,bonus,num_failures
pavlovia,0,6,0.0-0.0,"""event"",""trial"",""time""
""fullscreenenter"",""1"",""3662""
","
","
","""event"",""trial"",""time""
""fullscreenenter"",""1"",""3662""
","
",,,,,,,,,,,,,,,,,,,,,,,,,,,,
fullscreen,1,4658,0.0-1.0,"""event"",""trial"",""time""
""fullscreenenter"",""1"",""3662""
","
","
","""event"",""trial"",""time""
""fullscreenenter"",""1"",""3662""
","
",TRUE,,,,,,,,,,,,,,,,,,,,,,,,,,,
instruc_welcome,2,15030,0.0-2.0,"""event"",""trial"",""time""
""fullscreenenter"",""1"",""3662""
","
","
","""event"",""trial"",""time""
""fullscreenenter"",""1"",""3662""
","
",,null,run_exp/static/audio/clip_1_welcome.m4a,null,"<p>Howdy! In this experiment, you’ll be an explorer traveling through space to collect space treasure.</p><p>Your mission is to collect as much treasure as possible.</p><br><br><p><img src='run_exp/static/images/task_images/opening_img-01.jpg' height='300' width='auto'></p>",8079,918,23.74,Male,,,,,,,,,,,,,,,,,,,
audio-keyboard-response,3,31819,0.0-3.0,"""event"",""trial"",""time""
""fullscreenenter"",""1"",""3662""
","
","
","""event"",""trial"",""time""
""fullscreenenter"",""1"",""3662""
","
",,null,run_exp/static/audio/clip_2_move.m4a,null,,,,,,,,,,,,,,,,,,,,,,,,
welcome_dec,4,32389,0.0-4.0,"""event"",""trial"",""time""
""fullscreenenter"",""1"",""3662""
","
","
","""event"",""trial"",""time""
""fullscreenenter"",""1"",""3662""
","
",,567,"<p>Howdy! In this experiment, you’ll be an explorer traveling through space to collect space treasure.</p><p>Your mission is to collect as much treasure as possible.</p><br><br><p><img src='run_exp/static/images/task_images/opening_img-01.jpg' height='300' width='auto'></p>",,,,,,,1,,,,,,,,,,,,,,,,,,
html-keyboard-response,5,32901,0.0-5.0,"""event"",""trial"",""time""
""fullscreenenter"",""1"",""3662""
","
","
","""event"",""trial"",""time""
""fullscreenenter"",""1"",""3662""
","
",,510.4,"<p>Howdy! In this experiment, you’ll be an explorer traveling through space to collect space treasure.</p><p>Your mission is to collect as much treasure as possible.</p><br><br><p><img src='run_exp/static/images/task_images/opening_img-01.jpg' height='300' width='auto'></p><button class=""jspsych-html-btn-unchosen""><img src=""run_exp/static/images/task_images/planet-01.jpg"" height=""50""></button><button class=""jspsych-html-btn-chosen""><img src=""run_exp/static/images/task_images/planet-02.jpg"" height=""50""></button><p><b>[press the space bar to lock in your answer]<b><br></p>",32,,,,,,,,,,,,,,,,,,,,,,,,
instruc_goal,6,43149,0.0-6.0-0.0,"""event"",""trial"",""time""
""fullscreenenter"",""1"",""3662""
","
","
","""event"",""trial"",""time""
""fullscreenenter"",""1"",""3662""
","
",,null,run_exp/static/audio/clip_3_goal.m4a,null,"<p> As a space explorer, you’ll visit different planets to dig for space treasure, these pink gems.</p> <p> The more treasure you dig up, the more bonus money you’ll win! </p><br><br><p><img src='run_exp/static/images/task_images/pink_gem.jpg' height='300' width='auto'></p>",,,,,,,,,,,,,,,,,,,,,,,
instruc_goal,7,44332,0.0-6.0-1.0,"""event"",""trial"",""time""
""fullscreenenter"",""1"",""3662""
","
","
","""event"",""trial"",""time""
""fullscreenenter"",""1"",""3662""
","
",,1181.1,"<p> As a space explorer, you’ll visit different planets to dig for space treasure, these pink gems.</p> <p> The more treasure you dig up, the more bonus money you’ll win! </p><br><br><p><img src='run_exp/static/images/task_images/pink_gem.jpg' height='300' width='auto'></p>",,,,,,,1,,,,,,,,,,,,,,,,,,
html-keyboard-response,8,44696,0.0-6.0-2.0,"""event"",""trial"",""time""
""fullscreenenter"",""1"",""3662""
","
","
","""event"",""trial"",""time""
""fullscreenenter"",""1"",""3662""
","
",,361.8,"<p> As a space explorer, you’ll visit different planets to dig for space treasure, these pink gems.</p> <p> The more treasure you dig up, the more bonus money you’ll win! </p><br><br><p><img src='run_exp/static/images/task_images/pink_gem.jpg' height='300' width='auto'></p><button class=""jspsych-html-btn-unchosen""><img src=""run_exp/static/images/task_images/planet-01.jpg"" height=""50""></button><button class=""jspsych-html-btn-chosen""><img src=""run_exp/static/images/task_images/planet-02.jpg"" height=""50""></button><p><b>[press the space bar to lock in your answer]<b><br></p>",32,,,,,,,,,,,,,,,,,,,,,,,,
instruc_dig,9,60859,0.0-7.0-0.0,"""event"",""trial"",""time""
""fullscreenenter"",""1"",""3662""
","
","
","""event"",""trial"",""time""
""fullscreenenter"",""1"",""3662""
","
",,null,run_exp/static/audio/clip_4_dig.m4a,null,,,,,,,100,,,,,,,,,,,,,,,,,
instruc_dig_try,10,61251,0.0-7.0-1.0,"""event"",""trial"",""time""
""fullscreenenter"",""1"",""3662""
","
","
","""event"",""trial"",""time""
""fullscreenenter"",""1"",""3662""
","
",,390.6999999,"<p> When you’ve arrived at a new planet, you will dig once. </p> <p>Then, you get to decide if you want to stay on the planet and dig again or travel to a new planet and dig there.</p> <p> To stay and dig, press the letter <strong>‘A’</strong> on your keyboard. Try pressing it now! </p><p><img src='run_exp/static/images/task_images/land.jpg'  height='700' width='auto'></p>",65,"<p> When you’ve arrived at a new planet, you will dig once. </p> <p>Then, you get to decide if you want to stay on the planet and dig again or travel to a new planet and dig there.</p> <p> To stay and dig, press the letter <strong>‘A’</strong> on your keyboard. Try pressing it now! </p><p><img src='run_exp/static/images/task_images/land.jpg'  height='700' width='auto'></p>",,,,,,100,,,,,,,,,,,,,,,,,
dig_prac,11,63276,0.0-7.0-2.0,"""event"",""trial"",""time""
""fullscreenenter"",""1"",""3662""
","
","
","""event"",""trial"",""time""
""fullscreenenter"",""1"",""3662""
","
",,,,,,,,,,,,"[{""stimulus"":""run_exp/static/images/task_images/dig.jpg"",""time"":0.2999999523162842},{""stimulus"":""run_exp/static/images/task_images/land.jpg"",""time"":673.6999999284744},{""stimulus"":""run_exp/static/images/task_images/dig.jpg"",""time"":1336.6000000238419}]",[],,,,,,,,,,,,,,,
instruc_travel,12,99679,0.0-7.0-3.0,"""event"",""trial"",""time""
""fullscreenenter"",""1"",""3662""
","
","
","""event"",""trial"",""time""
""fullscreenenter"",""1"",""3662""
","
",,null,run_exp/static/audio/clip_5_travel.m4a,null,"<p>Every time you dig up gems, there are less gems on the planet, so the more you dig on a planet the fewer gems you’ll get with each dig.</p><p>When gems are running low, you may want to travel to a new planet. </p> <p>  Planets are very far apart in this galaxy, so it will take some time to travel between them. </p> <br><p>There are lots and lots of planets for you to visit, so you won’t be able to return to any planets you’ve seen before. </p><br><p>To leave this planet and travel to a new one, press the letter <strong>‘L’</strong> on your keyboard. Try pressing it now! </p><p><img src='run_exp/static/images/task_images/rocket-01.jpg'  height='600' width='auto'></p>",,,,,,,,,,,,,,,,,,,,,,,
instruc_travel_try,13,100250,0.0-7.0-4.0,"""event"",""trial"",""time""
""fullscreenenter"",""1"",""3662""
","
","
","""event"",""trial"",""time""
""fullscreenenter"",""1"",""3662""
","
",,569.1,"<p>Every time you dig up gems, there are less gems on the planet, so the more you dig on a planet the fewer gems you’ll get with each dig.</p><p>When gems are running low, you may want to travel to a new planet. </p> <p>  Planets are very far apart in this galaxy, so it will take some time to travel between them. </p> <br><p>There are lots and lots of planets for you to visit, so you won’t be able to return to any planets you’ve seen before. </p><br><p>To leave this planet and travel to a new one, press the letter <strong>‘L’</strong> on your keyboard. Try pressing it now! </p><p><img src='run_exp/static/images/task_images/rocket-01.jpg'  height='600' width='auto'></p>",76,"<p>Every time you dig up gems, there are less gems on the planet, so the more you dig on a planet the fewer gems you’ll get with each dig.</p><p>When gems are running low, you may want to travel to a new planet. </p> <p>  Planets are very far apart in this galaxy, so it will take some time to travel between them. </p> <br><p>There are lots and lots of planets for you to visit, so you won’t be able to return to any planets you’ve seen before. </p><br><p>To leave this planet and travel to a new one, press the letter <strong>‘L’</strong> on your keyboard. Try pressing it now! </p><p><img src='run_exp/static/images/task_images/rocket-01.jpg'  height='600' width='auto'></p>",,,,,,,,,,,,,,,,,,,,,,,
travel_prac,14,110258,0.0-7.0-5.0,"""event"",""trial"",""time""
""fullscreenenter"",""1"",""3662""
","
","
","""event"",""trial"",""time""
""fullscreenenter"",""1"",""3662""
","
",,,,,,,,,,,,"[{""stimulus"":""run_exp/static/images/task_images/rocket-01.jpg"",""time"":0.19999992847442627},{""stimulus"":""run_exp/static/images/task_images/rocket-02.jpg"",""time"":1123.1000000238419},{""stimulus"":""run_exp/static/images/task_images/rocket-03.jpg"",""time"":2233},{""stimulus"":""run_exp/static/images/task_images/rocket-04.jpg"",""time"":3335},{""stimulus"":""run_exp/static/images/task_images/rocket-05.jpg"",""time"":4448.600000023842},{""stimulus"":""run_exp/static/images/task_images/rocket-06.jpg"",""time"":5559.799999952316},{""stimulus"":""run_exp/static/images/task_images/rocket-07.jpg"",""time"":6671.299999952316},{""stimulus"":""run_exp/static/images/task_images/rocket-08.jpg"",""time"":7783.299999952316},{""stimulus"":""run_exp/static/images/task_images/rocket-09.jpg"",""time"":8899.199999928474}]",[],0,,,,,,,,,,,,,,
instruc_alien_greet,15,137618,0.0-7.0-6.0,"""event"",""trial"",""time""
""fullscreenenter"",""1"",""3662""
","
","
","""event"",""trial"",""time""
""fullscreenenter"",""1"",""3662""
","
",,null,run_exp/static/audio/clip_6_alien.m4a,null,"<p>When you arrive at a new planet, the alien who owns the treasure mine on that planet will greet you!</p><p>The better an alien takes care of their mine the easier it is to dig for gems. Some aliens take better care of their mine than others. So, you won’t get exactly the same amount of gems on each planet.</p><p>What the alien looks like does not tell you anything about how many gems there are on the planet.</p><br><p><img src=""run_exp/static/images/task_images/aliens/instructions_aliens/planet/alien_planet-1.jpg""  height=""600"" width=""auto""></p>",,,,,,,,,,,,,,,,,,,,,,,
instruc_alien_greet,16,139283,0.0-7.0-7.0,"""event"",""trial"",""time""
""fullscreenenter"",""1"",""3662""
","
","
","""event"",""trial"",""time""
""fullscreenenter"",""1"",""3662""
","
",,1662.7,"<p>When you arrive at a new planet, the alien who owns the treasure mine on that planet will greet you!</p><p>The better an alien takes care of their mine the easier it is to dig for gems. Some aliens take better care of their mine than others. So, you won’t get exactly the same amount of gems on each planet.</p><p>What the alien looks like does not tell you anything about how many gems there are on the planet.</p><br><p><img src=""run_exp/static/images/task_images/aliens/instructions_aliens/planet/alien_planet-1.jpg""  height=""600"" width=""auto""></p>",,,,,,,1,,,,,,,,,,,,,,,,,,
html-keyboard-response,17,139415,0.0-7.0-8.0,"""event"",""trial"",""time""
""fullscreenenter"",""1"",""3662""
","
","
","""event"",""trial"",""time""
""fullscreenenter"",""1"",""3662""
","
",,130,"<p>When you arrive at a new planet, the alien who owns the treasure mine on that planet will greet you!</p><p>The better an alien takes care of their mine the easier it is to dig for gems. Some aliens take better care of their mine than others. So, you won’t get exactly the same amount of gems on each planet.</p><p>What the alien looks like does not tell you anything about how many gems there are on the planet.</p><br><p><img src=""run_exp/static/images/task_images/aliens/instructions_aliens/planet/alien_planet-1.jpg""  height=""600"" width=""auto""></p><button class=""jspsych-html-btn-unchosen""><img src=""run_exp/static/images/task_images/planet-01.jpg"" height=""50""></button><button class=""jspsych-html-btn-chosen""><img src=""run_exp/static/images/task_images/planet-02.jpg"" height=""50""></button><p><b>[press the space bar to lock in your answer]<b><br></p>",32,,,,,,,,,,,,,,,,,,,,,,,,
time_out,18,150679,0.0-8.0-0.0,"""event"",""trial"",""time""
""fullscreenenter"",""1"",""3662""
","
","
","""event"",""trial"",""time""
""fullscreenenter"",""1"",""3662""
","
",,null,run_exp/static/audio/clip_7_timeout.m4a,null,"<p>If you don't make your choice fast enough, you’ll have to wait a few seconds before you can make another one.</p><p>You can’t dig for more gems or travel to new planets. You just have to sit and wait.</p><br><p><img src='run_exp/static/images/task_images/time_out.jpg'  height='600' width='auto'></p>",,,,,,,,,,,,,,,,,,,,,,,
time_out,19,151983,0.0-8.0-1.0,"""event"",""trial"",""time""
""fullscreenenter"",""1"",""3662""
","
","
","""event"",""trial"",""time""
""fullscreenenter"",""1"",""3662""
","
",,1301.4,"<p>If you don't make your choice fast enough, you’ll have to wait a few seconds before you can make another one.</p><p>You can’t dig for more gems or travel to new planets. You just have to sit and wait.</p><br><p><img src='run_exp/static/images/task_images/time_out.jpg'  height='600' width='auto'></p>",,,,,,,1,,,,,,,,,,,,,,,,,,
html-keyboard-response,20,152054,0.0-8.0-2.0,"""event"",""trial"",""time""
""fullscreenenter"",""1"",""3662""
","
","
","""event"",""trial"",""time""
""fullscreenenter"",""1"",""3662""
","
",,70.10000002,"<p>If you don't make your choice fast enough, you’ll have to wait a few seconds before you can make another one.</p><p>You can’t dig for more gems or travel to new planets. You just have to sit and wait.</p><br><p><img src='run_exp/static/images/task_images/time_out.jpg'  height='600' width='auto'></p><button class=""jspsych-html-btn-unchosen""><img src=""run_exp/static/images/task_images/planet-01.jpg"" height=""50""></button><button class=""jspsych-html-btn-chosen""><img src=""run_exp/static/images/task_images/planet-02.jpg"" height=""50""></button><p><b>[press the space bar to lock in your answer]<b><br></p>",32,,,,,,,,,,,,,,,,,,,,,,,,
instruc_break,21,167899,0.0-9.0-0.0,"""event"",""trial"",""time""
""fullscreenenter"",""1"",""3662""
","
","
","""event"",""trial"",""time""
""fullscreenenter"",""1"",""3662""
","
",,null,run_exp/static/audio/clip_8_break.m4a,null,"<p> After digging and traveling for a while, you’ll be able to take a break at home base. </p><p>The game will last 20 minutes no matter what.</p><p>You will visit home base every 5 minutes, so, you will visit home base three times during the game.</p><br><p><img src='run_exp/static/images/task_images/home_base.jpg' height='600' width='auto'></p>",,,,,,,,,,,,,,,,,,,,,,,
instruc_break,22,168854,0.0-9.0-1.0,"""event"",""trial"",""time""
""fullscreenenter"",""1"",""3662""
","
","
","""event"",""trial"",""time""
""fullscreenenter"",""1"",""3662""
","
",,952.1,"<p> After digging and traveling for a while, you’ll be able to take a break at home base. </p><p>The game will last 20 minutes no matter what.</p><p>You will visit home base every 5 minutes, so, you will visit home base three times during the game.</p><br><p><img src='run_exp/static/images/task_images/home_base.jpg' height='600' width='auto'></p>",,,,,,,1,,,,,,,,,,,,,,,,,,
html-keyboard-response,23,168937,0.0-9.0-2.0,"""event"",""trial"",""time""
""fullscreenenter"",""1"",""3662""
","
","
","""event"",""trial"",""time""
""fullscreenenter"",""1"",""3662""
","
",,81.70000005,"<p> After digging and traveling for a while, you’ll be able to take a break at home base. </p><p>The game will last 20 minutes no matter what.</p><p>You will visit home base every 5 minutes, so, you will visit home base three times during the game.</p><br><p><img src='run_exp/static/images/task_images/home_base.jpg' height='600' width='auto'></p><button class=""jspsych-html-btn-unchosen""><img src=""run_exp/static/images/task_images/planet-01.jpg"" height=""50""></button><button class=""jspsych-html-btn-chosen""><img src=""run_exp/static/images/task_images/planet-02.jpg"" height=""50""></button><p><b>[press the space bar to lock in your answer]<b><br></p>",32,,,,,,,,,,,,,,,,,,,,,,,,
instruc_prac_game,24,179249,0.0-10.0-0.0,"""event"",""trial"",""time""
""fullscreenenter"",""1"",""3662""
","
","
","""event"",""trial"",""time""
""fullscreenenter"",""1"",""3662""
","
",,null,run_exp/static/audio/clip_9_practice.m4a,null,"<p> Are you ready to play a practice game? </p> <p>In this practice game, you'll be digging up barrels of gems. But, in the real game, you'll be digging up the gems themselves. </p>",,,,,,,,,,,,,,,,,,,,,,,
html-button-response,25,180383,0.0-10.0-1.0,"""event"",""trial"",""time""
""fullscreenenter"",""1"",""3662""
","
","
","""event"",""trial"",""time""
""fullscreenenter"",""1"",""3662""
","
",,1133.1,"<p> Are you ready to play a practice game? </p> <p>In this practice game, you'll be digging up barrels of gems. But, in the real game, you'll be digging up the gems themselves. </p>",,,,,,,0,,,,,,,,,,,,,,,,,,
alien_welcome_prac,26,185394,0.0-11.0-0.0,"""event"",""trial"",""time""
""fullscreenenter"",""1"",""3662""
","
","
","""event"",""trial"",""time""
""fullscreenenter"",""1"",""3662""
","
",,null,run_exp/static/images/task_images/aliens/practice_aliens/planet/alien_planet-5.jpg,null,,,,,,,,,,,,,,,,,,,,,,,,
land_prac,27,185899,0.0-11.0-1.0,"""event"",""trial"",""time""
""fullscreenenter"",""1"",""3662""
","
","
","""event"",""trial"",""time""
""fullscreenenter"",""1"",""3662""
","
",,null,run_exp/static/images/task_images/land.jpg,null,,,,,,,103,,,0,,,,,,,,,,,,,,
dig_prac,28,187908,0.0-11.0-2.0,"""event"",""trial"",""time""
""fullscreenenter"",""1"",""3662""
","
","
","""event"",""trial"",""time""
""fullscreenenter"",""1"",""3662""
","
",,,,,,,,,,,,"[{""stimulus"":""run_exp/static/images/task_images/dig.jpg"",""time"":0.3999999761581421},{""stimulus"":""run_exp/static/images/task_images/land.jpg"",""time"":680.5},{""stimulus"":""run_exp/static/images/task_images/dig.jpg"",""time"":1340.8000000715256}]",[],,,,,,,,,,,,,,,
harvest_prac,29,188916,0.0-11.0-3.0,"""event"",""trial"",""time""
""fullscreenenter"",""1"",""3662""
","
","
","""event"",""trial"",""time""
""fullscreenenter"",""1"",""3662""
","
",,null,run_exp/static/images/task_images/barrel_text.jpg,null,,,,,,,,,,,,,,,,,,,,,,,,
decision_prac,30,191922,0.0-11.0-4.0,"""event"",""trial"",""time""
""fullscreenenter"",""1"",""3662""
","
","
","""event"",""trial"",""time""
""fullscreenenter"",""1"",""3662""
","
",,null,run_exp/static/images/task_images/land.jpg,null,,,,,,,,,,,1,,,,,,,,,,,,,
time_out,31,193933,0.0-12.0-0.0,"""event"",""trial"",""time""
""fullscreenenter"",""1"",""3662""
","
","
","""event"",""trial"",""time""
""fullscreenenter"",""1"",""3662""
","
",,null,run_exp/static/images/task_images/time_out.jpg,null,,,,,,,,,,,,,,,,,,,,,,,,
decision_prac,32,195517,0.0-12.0-1.0,"""event"",""trial"",""time""
""fullscreenenter"",""1"",""3662""
","
","
","""event"",""trial"",""time""
""fullscreenenter"",""1"",""3662""
","
",,1581.9,run_exp/static/images/task_images/land.jpg,65,,,,,,,,,,,2,,,,,,,,,,,,,
dig_prac,33,197533,0.0-13.0-0.0,"""event"",""trial"",""time""
""fullscreenenter"",""1"",""3662""
","
","
","""event"",""trial"",""time""
""fullscreenenter"",""1"",""3662""
","
",,,,,,,,,,,,"[{""stimulus"":""run_exp/static/images/task_images/dig.jpg"",""time"":0.19999992847442627},{""stimulus"":""run_exp/static/images/task_images/land.jpg"",""time"":674.6999999284744},{""stimulus"":""run_exp/static/images/task_images/dig.jpg"",""time"":1337.0999999046326}]",[],,,,,,,,,,,,,,,
harvest_prac,34,198540,0.0-13.0-1.0,"""event"",""trial"",""time""
""fullscreenenter"",""1"",""3662""
","
","
","""event"",""trial"",""time""
""fullscreenenter"",""1"",""3662""
","
",,null,run_exp/static/images/task_images/barrel_text.jpg,null,,,,,,,,,,,,,,,,,,,,,,,,
decision_prac,35,199509,0.0-13.0-2.0,"""event"",""trial"",""time""
""fullscreenenter"",""1"",""3662""
","
","
","""event"",""trial"",""time""
""fullscreenenter"",""1"",""3662""
","
",,967.4,run_exp/static/images/task_images/land.jpg,65,,,,,,,,,,,3,,,,,,,,,,,,,
dig_prac,36,201525,0.0-14.0-0.0,"""event"",""trial"",""time""
""fullscreenenter"",""1"",""3662""
","
","
","""event"",""trial"",""time""
""fullscreenenter"",""1"",""3662""
","
",,,,,,,,,,,,"[{""stimulus"":""run_exp/static/images/task_images/dig.jpg"",""time"":0.19999992847442627},{""stimulus"":""run_exp/static/images/task_images/land.jpg"",""time"":674.3999999761581},{""stimulus"":""run_exp/static/images/task_images/dig.jpg"",""time"":1339.7999999523163}]",[],,,,,,,,,,,,,,,
harvest_prac,37,202530,0.0-14.0-1.0,"""event"",""trial"",""time""
""fullscreenenter"",""1"",""3662""
","
","
","""event"",""trial"",""time""
""fullscreenenter"",""1"",""3662""
","
",,null,run_exp/static/images/task_images/barrel_text.jpg,null,,,,,,,,,,,,,,,,,,,,,,,,
decision_prac,38,203296,0.0-14.0-2.0,"""event"",""trial"",""time""
""fullscreenenter"",""1"",""3662""
","
","
","""event"",""trial"",""time""
""fullscreenenter"",""1"",""3662""
","
",,764.5,run_exp/static/images/task_images/land.jpg,65,,,,,,,,,,,4,,,,,,,,,,,,,
dig_prac,39,205309,0.0-15.0-0.0,"""event"",""trial"",""time""
""fullscreenenter"",""1"",""3662""
","
","
","""event"",""trial"",""time""
""fullscreenenter"",""1"",""3662""
","
",,,,,,,,,,,,"[{""stimulus"":""run_exp/static/images/task_images/dig.jpg"",""time"":0.10000002384185791},{""stimulus"":""run_exp/static/images/task_images/land.jpg"",""time"":670.7000000476837},{""stimulus"":""run_exp/static/images/task_images/dig.jpg"",""time"":1343}]",[],,,,,,,,,,,,,,,
harvest_prac,40,206314,0.0-15.0-1.0,"""event"",""trial"",""time""
""fullscreenenter"",""1"",""3662""
","
","
","""event"",""trial"",""time""
""fullscreenenter"",""1"",""3662""
","
",,null,run_exp/static/images/task_images/barrel_text.jpg,null,,,,,,,,,,,,,,,,,,,,,,,,
decision_prac,41,207159,0.0-15.0-2.0,"""event"",""trial"",""time""
""fullscreenenter"",""1"",""3662""
","
","
","""event"",""trial"",""time""
""fullscreenenter"",""1"",""3662""
","
",,843.4000001,run_exp/static/images/task_images/land.jpg,65,,,,,,,,,,,,1,,,,,,,,,,,,
quiz_instruc,42,212295,0.0-16.0-0.0,"""event"",""trial"",""time""
""fullscreenenter"",""1"",""3662""
","
","
","""event"",""trial"",""time""
""fullscreenenter"",""1"",""3662""
","
",,5132.3,run_exp/static/audio/clip_10_quiz.m4a,,,,,,,0,,,,,,,,,,,,,,,,,,
instruc_repeat,43,255209,0.0-16.0-1.0,"""event"",""trial"",""time""
""fullscreenenter"",""1"",""3662""
","
","
","""event"",""trial"",""time""
""fullscreenenter"",""1"",""3662""
","
",,null,"<p> Are you ready to play a practice game? </p> <p>In this practice game, you'll be digging up barrels of gems. But, in the real game, you'll be digging up the gems themselves. </p>",null,"<p>In this game, your goal is to collect as many gems as you can. That’s how you will win bonus money. </p> <p>The entire game will last 20 minutes no matter how many gems you collect or how many planets you visit. </p><p>To stay on a planet and dig again, press the letter A on your keyboard. To leave for a new planet, press the letter L.</p><p>The more you dig on a planet, the fewer gems you’ll get with each dig which is why you might consider leaving for a new planet. </p><p>When you arrive at a new planet, you’ll be greeted by an alien. What the alien looks like does not tell you anything about how much treasure is on the planet. </p>",,,,,,,,,,,,,,,,,,,,,,,
instruc_repeat_continue,44,256761,0.0-16.0-2.0,"""event"",""trial"",""time""
""fullscreenenter"",""1"",""3662""
","
","
","""event"",""trial"",""time""
""fullscreenenter"",""1"",""3662""
","
",,1551.2,"<p> Are you ready to play a practice game? </p> <p>In this practice game, you'll be digging up barrels of gems. But, in the real game, you'll be digging up the gems themselves. </p>",,,,,,,0,,,,,,,,,,,,,,,,,,
quiz_q_1_ask,45,259487,0.0-16.0-3.0,"""event"",""trial"",""time""
""fullscreenenter"",""1"",""3662""
","
","
","""event"",""trial"",""time""
""fullscreenenter"",""1"",""3662""
","
",,2724.1,run_exp/static/audio/clip_11_q1_ask.m4a,,,,,,,2,,,,,,,,,,,,,,,,,,
quiz_q_1_fb_correct,46,263509,0.0-17.0-0.0,"""event"",""trial"",""time""
""fullscreenenter"",""1"",""3662""
","
","
","""event"",""trial"",""time""
""fullscreenenter"",""1"",""3662""
","
",,null,run_exp/static/audio/clip_12_q1_correct.m4a,null,<p>That’s correct. You win extra money by collecting more gems.</p>,,,,,,,,,,,,,,,,,,,,,,,
quiz_q_2_ask,47,266546,0.0-17.0-1.0,"""event"",""trial"",""time""
""fullscreenenter"",""1"",""3662""
","
","
","""event"",""trial"",""time""
""fullscreenenter"",""1"",""3662""
","
",,3034.9,run_exp/static/audio/clip_14_q2_ask.m4a,,,,,,,1,,,,,,,,,,,,,,,,,,
quiz_q_2_fb_correct,48,270718,0.0-18.0-0.0,"""event"",""trial"",""time""
""fullscreenenter"",""1"",""3662""
","
","
","""event"",""trial"",""time""
""fullscreenenter"",""1"",""3662""
","
",,null,run_exp/static/audio/clip_15_q2_correct.m4a,null,<p>That’s correct. The experiment is 20 minutes no matter what.</p>,,,,,,,,,,,,,,,,,,,,,,,
quiz_q_3_ask,49,272980,0.0-18.0-1.0,"""event"",""trial"",""time""
""fullscreenenter"",""1"",""3662""
","
","
","""event"",""trial"",""time""
""fullscreenenter"",""1"",""3662""
","
",,2259.6,run_exp/static/audio/clip_17_q3_ask.m4a,,,,,,,1,,,,,,,,,,,,,,,,,,
quiz_q_3_fb_correct,50,277119,0.0-19.0-0.0,"""event"",""trial"",""time""
""fullscreenenter"",""1"",""3662""
","
","
","""event"",""trial"",""time""
""fullscreenenter"",""1"",""3662""
","
",,null,run_exp/static/audio/clip_18_q3_correct.m4a,null,<p> That’s correct. You press the letter L to travel to a new planet.</p>,,,,,,,,,,,,,,,,,,,,,,,
quiz_q_4_ask,51,279954,0.0-19.0-1.0,"""event"",""trial"",""time""
""fullscreenenter"",""1"",""3662""
","
","
","""event"",""trial"",""time""
""fullscreenenter"",""1"",""3662""
","
",,2833.3,run_exp/static/audio/clip_20_q4_ask.m4a,,,,,,,0,,,,,,,,,,,,,,,,,,
quiz_q_4_fb_correct,52,285438,0.0-20.0-0.0,"""event"",""trial"",""time""
""fullscreenenter"",""1"",""3662""
","
","
","""event"",""trial"",""time""
""fullscreenenter"",""1"",""3662""
","
",,null,run_exp/static/audio/clip_21_q4_correct.m4a,null,<p> That’s correct. The more you dig on a planet the fewer gems you’ll get with each dig. </p>,,,,,,,,,,,,,,,,,,,,,,,
quiz_q_5_ask,53,287599,0.0-20.0-1.0,"""event"",""trial"",""time""
""fullscreenenter"",""1"",""3662""
","
","
","""event"",""trial"",""time""
""fullscreenenter"",""1"",""3662""
","
",,2159,run_exp/static/audio/clip_23_q5_ask.m4a,,,,,,,1,,,,,,,,,,,,,,,,,,
quiz_q_5_fb_correct,54,292768,0.0-21.0-0.0,"""event"",""trial"",""time""
""fullscreenenter"",""1"",""3662""
","
","
","""event"",""trial"",""time""
""fullscreenenter"",""1"",""3662""
","
",,null,run_exp/static/audio/clip_24_q5_correct.m4a,null,<p> That’s correct. The alien tells you nothing about how much treasure is on the planet.</p>,,,,,,,,,,,,,,,,,,,,,,,
quiz_correct,55,296398,0.0-22.0-0.0,"""event"",""trial"",""time""
""fullscreenenter"",""1"",""3662""
","
","
","""event"",""trial"",""time""
""fullscreenenter"",""1"",""3662""
","
",,null,run_exp/static/audio/clip_26_correct_quiz.m4a,null,,,,,,,,,,,,,,,,,,,,,,,,
quiz_correct_continue,56,297299,0.0-22.0-1.0,"""event"",""trial"",""time""
""fullscreenenter"",""1"",""3662""
","
","
","""event"",""trial"",""time""
""fullscreenenter"",""1"",""3662""
","
",,900.3,<p>Good job! You're now ready to move on to the real game!</p>,,,,,,,0,,,,,,,,,,,,,,,,,,
audio-keyboard-response,57,307578,0.0-22.0-2.0,"""event"",""trial"",""time""
""fullscreenenter"",""1"",""3662""
","
","
","""event"",""trial"",""time""
""fullscreenenter"",""1"",""3662""
","
",,null,run_exp/static/audio/clip_28_real_game.m4a,null,,,,,,,,,,,,,,,,,,,,,,,,
instruc_begin_exp_contine,58,308333,0.0-22.0-3.0,"""event"",""trial"",""time""
""fullscreenenter"",""1"",""3662""
","
","
","""event"",""trial"",""time""
""fullscreenenter"",""1"",""3662""
","
",,752.6,"<p>Now that you know how  to dig for space treasure and travel to new planets,you can start exploring! </p><p>Do you want to go over the instructions again or get started with the real game?</p>",,,,,,,1,,,,,,1,,,,,,,,,,,,
alien_welcome,59,313348,0.0-23.0-0.0,"""event"",""trial"",""time""
""fullscreenenter"",""1"",""3662""
","
","
","""event"",""trial"",""time""
""fullscreenenter"",""1"",""3662""
","
",,null,run_exp/static/images/task_images/aliens/old_aliens/planet/alien_planet-63.jpg,null,,,,,,,,,,,,,63,"63,68,37,28,76,15,59,39,66,11,5,35,77,23,47,50,43,4,79,7,49,78,56,19,57,69,33,30,34,62,26,13,51,12,53,17,40,36,60,46,44,54,8",,,,,,,,,,
land,60,313861,0.0-23.0-1.0,"""event"",""trial"",""time""
""fullscreenenter"",""1"",""3662""
","
","
","""event"",""trial"",""time""
""fullscreenenter"",""1"",""3662""
","
",,null,run_exp/static/images/task_images/land.jpg,null,,,,,,,88,,,1,,,,,,,,,,,,,,
dig,61,315877,0.0-23.0-2.0,"""event"",""trial"",""time""
""fullscreenenter"",""1"",""3662""
","
","
","""event"",""trial"",""time""
""fullscreenenter"",""1"",""3662""
","
",,,,,,,,,,,,"[{""stimulus"":""run_exp/static/images/task_images/dig.jpg"",""time"":0.30000007152557373},{""stimulus"":""run_exp/static/images/task_images/land.jpg"",""time"":674.3999999761581},{""stimulus"":""run_exp/static/images/task_images/dig.jpg"",""time"":1339.3000000715256}]",[],1,,,,,,,,,,,,,,
harvest,62,316881,0.0-23.0-3.0,"""event"",""trial"",""time""
""fullscreenenter"",""1"",""3662""
","
","
","""event"",""trial"",""time""
""fullscreenenter"",""1"",""3662""
","
",,null,run_exp/static/images/task_images/gems/88.jpg,null,,,,,,,17,,,1,,,,,88,0.188698513,0.193181818,,,,,,,
decision,63,317571,0.0-23.0-4.0,"""event"",""trial"",""time""
""fullscreenenter"",""1"",""3662""
","
","
","""event"",""trial"",""time""
""fullscreenenter"",""1"",""3662""
","
",,688,run_exp/static/images/task_images/land.jpg,65,,,,,,,17,,,1,,,,,,,,9237,1,0,FALSE,,,
dig,64,319892,0.0-24.0-0.0,"""event"",""trial"",""time""
""fullscreenenter"",""1"",""3662""
","
","
","""event"",""trial"",""time""
""fullscreenenter"",""1"",""3662""
","
",,,,,,,,,,,,"[{""stimulus"":""run_exp/static/images/task_images/dig.jpg"",""time"":0.19999992847442627},{""stimulus"":""run_exp/static/images/task_images/land.jpg"",""time"":779},{""stimulus"":""run_exp/static/images/task_images/dig.jpg"",""time"":1542.0999999046326}]",[],1,,,,,,,,,,,,,,
harvest,65,320898,0.0-24.0-1.0,"""event"",""trial"",""time""
""fullscreenenter"",""1"",""3662""
","
","
","""event"",""trial"",""time""
""fullscreenenter"",""1"",""3662""
","
",,null,run_exp/static/images/task_images/gems/17.jpg,null,,,,,,,2,,,1,,,,,17,0.141486626,0.117647059,,,,,,,
decision,66,321353,0.0-24.0-2.0,"""event"",""trial"",""time""
""fullscreenenter"",""1"",""3662""
","
","
","""event"",""trial"",""time""
""fullscreenenter"",""1"",""3662""
","
",,453.8,run_exp/static/images/task_images/land.jpg,76,,,,,,,2,,,1,,,,,,,,13018,1,1,TRUE,,,
travel,67,330908,0.0-25.0-0.0,"""event"",""trial"",""time""
""fullscreenenter"",""1"",""3662""
","
","
","""event"",""trial"",""time""
""fullscreenenter"",""1"",""3662""
","
",,,,,,,,,,,,"[{""stimulus"":""run_exp/static/images/task_images/rocket-01.jpg"",""time"":0.19999992847442627},{""stimulus"":""run_exp/static/images/task_images/rocket-02.jpg"",""time"":1066.0999999046326},{""stimulus"":""run_exp/static/images/task_images/rocket-03.jpg"",""time"":2124.7999999523163},{""stimulus"":""run_exp/static/images/task_images/rocket-04.jpg"",""time"":3191.1999999284744},{""stimulus"":""run_exp/static/images/task_images/rocket-05.jpg"",""time"":4245.199999928474},{""stimulus"":""run_exp/static/images/task_images/rocket-06.jpg"",""time"":5311.399999976158},{""stimulus"":""run_exp/static/images/task_images/rocket-07.jpg"",""time"":6364.699999928474},{""stimulus"":""run_exp/static/images/task_images/rocket-08.jpg"",""time"":7428.199999928474},{""stimulus"":""run_exp/static/images/task_images/rocket-09.jpg"",""time"":8484.199999928474}]",[],1,,,,,,,,,,,,,,
alien_welcome,68,335913,0.0-25.0-1.0,"""event"",""trial"",""time""
""fullscreenenter"",""1"",""3662""
","
","
","""event"",""trial"",""time""
""fullscreenenter"",""1"",""3662""
","
",,null,run_exp/static/images/task_images/aliens/old_aliens/planet/alien_planet-68.jpg,null,,,,,,,,,,,,,68,"63,68,37,28,76,15,59,39,66,11,5,35,77,23,47,50,43,4,79,7,49,78,56,19,57,69,33,30,34,62,26,13,51,12,53,17,40,36,60,46,44,54,8",,,,,,,,,,
land,69,336417,0.0-25.0-2.0,"""event"",""trial"",""time""
""fullscreenenter"",""1"",""3662""
","
","
","""event"",""trial"",""time""
""fullscreenenter"",""1"",""3662""
","
",,null,run_exp/static/images/task_images/land.jpg,null,,,,,,,102,,,2,,,,,,,,,,,,,,
dig,70,338424,0.0-25.0-3.0,"""event"",""trial"",""time""
""fullscreenenter"",""1"",""3662""
","
","
","""event"",""trial"",""time""
""fullscreenenter"",""1"",""3662""
","
",,,,,,,,,,,,"[{""stimulus"":""run_exp/static/images/task_images/dig.jpg"",""time"":0.30000007152557373},{""stimulus"":""run_exp/static/images/task_images/land.jpg"",""time"":670.8000000715256},{""stimulus"":""run_exp/static/images/task_images/dig.jpg"",""time"":1343.8000000715256}]",[],2,,,,,,,,,,,,,,
harvest,71,339435,0.0-25.0-4.0,"""event"",""trial"",""time""
""fullscreenenter"",""1"",""3662""
","
","
","""event"",""trial"",""time""
""fullscreenenter"",""1"",""3662""
","
",,null,run_exp/static/images/task_images/gems/102.jpg,null,,,,,,,29,,,2,,,,,102,0.28358667,0.284313725,,,,,,,
decision,72,340053,0.0-25.0-5.0,"""event"",""trial"",""time""
""fullscreenenter"",""1"",""3662""
","
","
","""event"",""trial"",""time""
""fullscreenenter"",""1"",""3662""
","
",,616.3,run_exp/static/images/task_images/land.jpg,65,,,,,,,29,,,2,,,,,,,,31718,1,0,FALSE,,,
dig,73,342445,0.0-26.0-0.0,"""event"",""trial"",""time""
""fullscreenenter"",""1"",""3662""
","
","
","""event"",""trial"",""time""
""fullscreenenter"",""1"",""3662""
","
",,,,,,,,,,,,"[{""stimulus"":""run_exp/static/images/task_images/dig.jpg"",""time"":0.10000002384185791},{""stimulus"":""run_exp/static/images/task_images/land.jpg"",""time"":797.3999999761581},{""stimulus"":""run_exp/static/images/task_images/dig.jpg"",""time"":1597.8000000715256}]",[],2,,,,,,,,,,,,,,
harvest,74,343451,0.0-26.0-1.0,"""event"",""trial"",""time""
""fullscreenenter"",""1"",""3662""
","
","
","""event"",""trial"",""time""
""fullscreenenter"",""1"",""3662""
","
",,null,run_exp/static/images/task_images/gems/29.jpg,null,,,,,,,7,,,2,,,,,29,0.24122423,0.24137931,,,,,,,
decision,75,343982,0.0-26.0-2.0,"""event"",""trial"",""time""
""fullscreenenter"",""1"",""3662""
","
","
","""event"",""trial"",""time""
""fullscreenenter"",""1"",""3662""
","
",,530,run_exp/static/images/task_images/land.jpg,65,,,,,,,7,,,2,,,,,,,,35647,1,1,FALSE,,,
dig,76,346458,0.0-27.0-0.0,"""event"",""trial"",""time""
""fullscreenenter"",""1"",""3662""
","
","
","""event"",""trial"",""time""
""fullscreenenter"",""1"",""3662""
","
",,,,,,,,,,,,"[{""stimulus"":""run_exp/static/images/task_images/dig.jpg"",""time"":0.20000004768371582},{""stimulus"":""run_exp/static/images/task_images/land.jpg"",""time"":834.4000000953674},{""stimulus"":""run_exp/static/images/task_images/dig.jpg"",""time"":1659.4000000953674}]",[],2,,,,,,,,,,,,,,
harvest,77,347469,0.0-27.0-1.0,"""event"",""trial"",""time""
""fullscreenenter"",""1"",""3662""
","
","
","""event"",""trial"",""time""
""fullscreenenter"",""1"",""3662""
","
",,null,run_exp/static/images/task_images/gems/7.jpg,null,,,,,,,2,,,2,,,,,7,0.217242037,0.285714286,,,,,,,
decision,78,348344,0.0-27.0-2.0,"""event"",""trial"",""time""
""fullscreenenter"",""1"",""3662""
","
","
","""event"",""trial"",""time""
""fullscreenenter"",""1"",""3662""
","
",,873.4000001,run_exp/static/images/task_images/land.jpg,76,,,,,,,2,,,2,,,,,,,,40009,1,2,TRUE,,,
travel,79,357485,0.0-28.0-0.0,"""event"",""trial"",""time""
""fullscreenenter"",""1"",""3662""
","
","
","""event"",""trial"",""time""
""fullscreenenter"",""1"",""3662""
","
",,,,,,,,,,,,"[{""stimulus"":""run_exp/static/images/task_images/rocket-01.jpg"",""time"":0.20000004768371582},{""stimulus"":""run_exp/static/images/task_images/rocket-02.jpg"",""time"":1021.6000000238419},{""stimulus"":""run_exp/static/images/task_images/rocket-03.jpg"",""time"":2037.8000000715256},{""stimulus"":""run_exp/static/images/task_images/rocket-04.jpg"",""time"":3045.899999976158},{""stimulus"":""run_exp/static/images/task_images/rocket-05.jpg"",""time"":4061.2000000476837},{""stimulus"":""run_exp/static/images/task_images/rocket-06.jpg"",""time"":5080.600000023842},{""stimulus"":""run_exp/static/images/task_images/rocket-07.jpg"",""time"":6097.399999976158},{""stimulus"":""run_exp/static/images/task_images/rocket-08.jpg"",""time"":7100.899999976158},{""stimulus"":""run_exp/static/images/task_images/rocket-09.jpg"",""time"":8121.100000023842}]",[],2,,,,,,,,,,,,,,
alien_welcome,80,362488,0.0-28.0-1.0,"""event"",""trial"",""time""
""fullscreenenter"",""1"",""3662""
","
","
","""event"",""trial"",""time""
""fullscreenenter"",""1"",""3662""
","
",,null,run_exp/static/images/task_images/aliens/old_aliens/planet/alien_planet-37.jpg,null,,,,,,,,,,,,,37,"63,68,37,28,76,15,59,39,66,11,5,35,77,23,47,50,43,4,79,7,49,78,56,19,57,69,33,30,34,62,26,13,51,12,53,17,40,36,60,46,44,54,8",,,,,,,,,,
land,81,362992,0.0-28.0-2.0,"""event"",""trial"",""time""
""fullscreenenter"",""1"",""3662""
","
","
","""event"",""trial"",""time""
""fullscreenenter"",""1"",""3662""
","
",,null,run_exp/static/images/task_images/land.jpg,null,,,,,,,107,,,3,,,,,,,,,,,,,,
dig,82,365001,0.0-28.0-3.0,"""event"",""trial"",""time""
""fullscreenenter"",""1"",""3662""
","
","
","""event"",""trial"",""time""
""fullscreenenter"",""1"",""3662""
","
",,,,,,,,,,,,"[{""stimulus"":""run_exp/static/images/task_images/dig.jpg"",""time"":0.3999999761581421},{""stimulus"":""run_exp/static/images/task_images/land.jpg"",""time"":671.2000000476837},{""stimulus"":""run_exp/static/images/task_images/dig.jpg"",""time"":1344.1000000238419}]",[],3,,,,,,,,,,,,,,
harvest,83,366009,0.0-28.0-4.0,"""event"",""trial"",""time""
""fullscreenenter"",""1"",""3662""
","
","
","""event"",""trial"",""time""
""fullscreenenter"",""1"",""3662""
","
",,null,run_exp/static/images/task_images/gems/107.jpg,null,,,,,,,55,,,3,,,,,107,0.514334864,0.514018692,,,,,,,
decision,84,366441,0.0-28.0-5.0,"""event"",""trial"",""time""
""fullscreenenter"",""1"",""3662""
","
","
","""event"",""trial"",""time""
""fullscreenenter"",""1"",""3662""
","
",,430.7,run_exp/static/images/task_images/land.jpg,65,,,,,,,55,,,3,,,,,,,,58106,1,0,FALSE,,,
dig,85,369021,0.0-29.0-0.0,"""event"",""trial"",""time""
""fullscreenenter"",""1"",""3662""
","
","
","""event"",""trial"",""time""
""fullscreenenter"",""1"",""3662""
","
",,,,,,,,,,,,"[{""stimulus"":""run_exp/static/images/task_images/dig.jpg"",""time"":0.19999992847442627},{""stimulus"":""run_exp/static/images/task_images/land.jpg"",""time"":861.1999999284744},{""stimulus"":""run_exp/static/images/task_images/dig.jpg"",""time"":1721}]",[],3,,,,,,,,,,,,,,
harvest,86,370028,0.0-29.0-1.0,"""event"",""trial"",""time""
""fullscreenenter"",""1"",""3662""
","
","
","""event"",""trial"",""time""
""fullscreenenter"",""1"",""3662""
","
",,null,run_exp/static/images/task_images/gems/55.jpg,null,,,,,,,33,,,3,,,,,55,0.595153671,0.6,,,,,,,
decision,87,370032,0.0-29.0-2.0,"""event"",""trial"",""time""
""fullscreenenter"",""1"",""3662""
","
","
","""event"",""trial"",""time""
""fullscreenenter"",""1"",""3662""
","
",,2.5,run_exp/static/images/task_images/land.jpg,65,,,,,,,33,,,3,,,,,,,,61697,1,1,FALSE,,,
dig,88,373041,0.0-30.0-0.0,"""event"",""trial"",""time""
""fullscreenenter"",""1"",""3662""
","
","
","""event"",""trial"",""time""
""fullscreenenter"",""1"",""3662""
","
",,,,,,,,,,,,"[{""stimulus"":""run_exp/static/images/task_images/dig.jpg"",""time"":0.30000007152557373},{""stimulus"":""run_exp/static/images/task_images/land.jpg"",""time"":1010},{""stimulus"":""run_exp/static/images/task_images/dig.jpg"",""time"":2009.8000000715256}]",[],3,,,,,,,,,,,,,,
harvest,89,374052,0.0-30.0-1.0,"""event"",""trial"",""time""
""fullscreenenter"",""1"",""3662""
","
","
","""event"",""trial"",""time""
""fullscreenenter"",""1"",""3662""
","
",,null,run_exp/static/images/task_images/gems/33.jpg,null,,,,,,,16,,,3,,,,,33,0.495326702,0.484848485,,,,,,,
decision,90,375314,0.0-30.0-2.0,"""event"",""trial"",""time""
""fullscreenenter"",""1"",""3662""
","
","
","""event"",""trial"",""time""
""fullscreenenter"",""1"",""3662""
","
",,1260.7,run_exp/static/images/task_images/land.jpg,65,,,,,,,16,,,3,,,,,,,,66979,1,2,FALSE,,,
dig,91,377060,0.0-31.0-0.0,"""event"",""trial"",""time""
""fullscreenenter"",""1"",""3662""
","
","
","""event"",""trial"",""time""
""fullscreenenter"",""1"",""3662""
","
",,,,,,,,,,,,"[{""stimulus"":""run_exp/static/images/task_images/dig.jpg"",""time"":0.20000004768371582},{""stimulus"":""run_exp/static/images/task_images/land.jpg"",""time"":591.1000000238419},{""stimulus"":""run_exp/static/images/task_images/dig.jpg"",""time"":1168.1000000238419}]",[],3,,,,,,,,,,,,,,
harvest,92,378068,0.0-31.0-1.0,"""event"",""trial"",""time""
""fullscreenenter"",""1"",""3662""
","
","
","""event"",""trial"",""time""
""fullscreenenter"",""1"",""3662""
","
",,null,run_exp/static/images/task_images/gems/16.jpg,null,,,,,,,5,,,3,,,,,16,0.322222036,0.3125,,,,,,,
decision,93,378176,0.0-31.0-2.0,"""event"",""trial"",""time""
""fullscreenenter"",""1"",""3662""
","
","
","""event"",""trial"",""time""
""fullscreenenter"",""1"",""3662""
","
",,106.8000001,run_exp/static/images/task_images/land.jpg,76,,,,,,,5,,,3,,,,,,,,69842,1,3,TRUE,,,
travel,94,388074,0.0-32.0-0.0,"""event"",""trial"",""time""
""fullscreenenter"",""1"",""3662""
","
","
","""event"",""trial"",""time""
""fullscreenenter"",""1"",""3662""
","
",,,,,,,,,,,,"[{""stimulus"":""run_exp/static/images/task_images/rocket-01.jpg"",""time"":0.20000004768371582},{""stimulus"":""run_exp/static/images/task_images/rocket-02.jpg"",""time"":1100.5},{""stimulus"":""run_exp/static/images/task_images/rocket-03.jpg"",""time"":2205.2000000476837},{""stimulus"":""run_exp/static/images/task_images/rocket-04.jpg"",""time"":3305.2000000476837},{""stimulus"":""run_exp/static/images/task_images/rocket-05.jpg"",""time"":4408.200000047684},{""stimulus"":""run_exp/static/images/task_images/rocket-06.jpg"",""time"":5505.300000071526},{""stimulus"":""run_exp/static/images/task_images/rocket-07.jpg"",""time"":6598.399999976158},{""stimulus"":""run_exp/static/images/task_images/rocket-08.jpg"",""time"":7700.899999976158},{""stimulus"":""run_exp/static/images/task_images/rocket-09.jpg"",""time"":8801.300000071526}]",[],3,,,,,,,,,,,,,,
alien_welcome,95,393081,0.0-32.0-1.0,"""event"",""trial"",""time""
""fullscreenenter"",""1"",""3662""
","
","
","""event"",""trial"",""time""
""fullscreenenter"",""1"",""3662""
","
",,null,run_exp/static/images/task_images/aliens/old_aliens/planet/alien_planet-28.jpg,null,,,,,,,,,,,,,28,"63,68,37,28,76,15,59,39,66,11,5,35,77,23,47,50,43,4,79,7,49,78,56,19,57,69,33,30,34,62,26,13,51,12,53,17,40,36,60,46,44,54,8",,,,,,,,,,
land,96,393585,0.0-32.0-2.0,"""event"",""trial"",""time""
""fullscreenenter"",""1"",""3662""
","
","
","""event"",""trial"",""time""
""fullscreenenter"",""1"",""3662""
","
",,null,run_exp/static/images/task_images/land.jpg,null,,,,,,,109,,,4,,,,,,,,,,,,,,
dig,97,395594,0.0-32.0-3.0,"""event"",""trial"",""time""
""fullscreenenter"",""1"",""3662""
","
","
","""event"",""trial"",""time""
""fullscreenenter"",""1"",""3662""
","
",,,,,,,,,,,,"[{""stimulus"":""run_exp/static/images/task_images/dig.jpg"",""time"":0.2999999523162842},{""stimulus"":""run_exp/static/images/task_images/land.jpg"",""time"":670.1000000238419},{""stimulus"":""run_exp/static/images/task_images/dig.jpg"",""time"":1342.5}]",[],4,,,,,,,,,,,,,,
harvest,98,396605,0.0-32.0-4.0,"""event"",""trial"",""time""
""fullscreenenter"",""1"",""3662""
","
","
","""event"",""trial"",""time""
""fullscreenenter"",""1"",""3662""
","
",,null,run_exp/static/images/task_images/gems/109.jpg,null,,,,,,,43,,,4,,,,,109,0.399044903,0.394495413,,,,,,,
decision,99,397459,0.0-32.0-5.0,"""event"",""trial"",""time""
""fullscreenenter"",""1"",""3662""
","
","
","""event"",""trial"",""time""
""fullscreenenter"",""1"",""3662""
","
",,852.0999999,run_exp/static/images/task_images/land.jpg,65,,,,,,,43,,,4,,,,,,,,89124,1,0,FALSE,,,
dig,100,399613,0.0-33.0-0.0,"""event"",""trial"",""time""
""fullscreenenter"",""1"",""3662""
","
","
","""event"",""trial"",""time""
""fullscreenenter"",""1"",""3662""
","
",,,,,,,,,,,,"[{""stimulus"":""run_exp/static/images/task_images/dig.jpg"",""time"":0.10000002384185791},{""stimulus"":""run_exp/static/images/task_images/land.jpg"",""time"":723.3999999761581},{""stimulus"":""run_exp/static/images/task_images/dig.jpg"",""time"":1436.1000000238419}]",[],4,,,,,,,,,,,,,,
harvest,101,400618,0.0-33.0-1.0,"""event"",""trial"",""time""
""fullscreenenter"",""1"",""3662""
","
","
","""event"",""trial"",""time""
""fullscreenenter"",""1"",""3662""
","
",,null,run_exp/static/images/task_images/gems/43.jpg,null,,,,,,,21,,,4,,,,,43,0.492806166,0.488372093,,,,,,,
decision,102,401182,0.0-33.0-2.0,"""event"",""trial"",""time""
""fullscreenenter"",""1"",""3662""
","
","
","""event"",""trial"",""time""
""fullscreenenter"",""1"",""3662""
","
",,562.5,run_exp/static/images/task_images/land.jpg,65,,,,,,,21,,,4,,,,,,,,92847,1,1,FALSE,,,
dig,103,403628,0.0-34.0-0.0,"""event"",""trial"",""time""
""fullscreenenter"",""1"",""3662""
","
","
","""event"",""trial"",""time""
""fullscreenenter"",""1"",""3662""
","
",,,,,,,,,,,,"[{""stimulus"":""run_exp/static/images/task_images/dig.jpg"",""time"":0.20000004768371582},{""stimulus"":""run_exp/static/images/task_images/land.jpg"",""time"":816.7999999523163},{""stimulus"":""run_exp/static/images/task_images/dig.jpg"",""time"":1632.2999999523163}]",[],4,,,,,,,,,,,,,,
harvest,104,404634,0.0-34.0-1.0,"""event"",""trial"",""time""
""fullscreenenter"",""1"",""3662""
","
","
","""event"",""trial"",""time""
""fullscreenenter"",""1"",""3662""
","
",,null,run_exp/static/images/task_images/gems/21.jpg,null,,,,,,,9,,,4,,,,,21,0.43589081,0.428571429,,,,,,,
decision,105,404758,0.0-34.0-2.0,"""event"",""trial"",""time""
""fullscreenenter"",""1"",""3662""
","
","
","""event"",""trial"",""time""
""fullscreenenter"",""1"",""3662""
","
",,122.9,run_exp/static/images/task_images/land.jpg,65,,,,,,,9,,,4,,,,,,,,96423,1,2,FALSE,,,
dig,106,407645,0.0-35.0-0.0,"""event"",""trial"",""time""
""fullscreenenter"",""1"",""3662""
","
","
","""event"",""trial"",""time""
""fullscreenenter"",""1"",""3662""
","
",,,,,,,,,,,,"[{""stimulus"":""run_exp/static/images/task_images/dig.jpg"",""time"":0.10000002384185791},{""stimulus"":""run_exp/static/images/task_images/land.jpg"",""time"":972.6000000238419},{""stimulus"":""run_exp/static/images/task_images/dig.jpg"",""time"":1920.6000000238419}]",[],4,,,,,,,,,,,,,,
harvest,107,408648,0.0-35.0-1.0,"""event"",""trial"",""time""
""fullscreenenter"",""1"",""3662""
","
","
","""event"",""trial"",""time""
""fullscreenenter"",""1"",""3662""
","
",,null,run_exp/static/images/task_images/gems/9.jpg,null,,,,,,,4,,,4,,,,,9,0.493929248,0.444444444,,,,,,,
decision,108,409721,0.0-35.0-2.0,"""event"",""trial"",""time""
""fullscreenenter"",""1"",""3662""
","
","
","""event"",""trial"",""time""
""fullscreenenter"",""1"",""3662""
","
",,1071.4,run_exp/static/images/task_images/land.jpg,76,,,,,,,4,,,4,,,,,,,,101386,1,3,TRUE,,,
travel,109,418658,0.0-36.0-0.0,"""event"",""trial"",""time""
""fullscreenenter"",""1"",""3662""
","
","
","""event"",""trial"",""time""
""fullscreenenter"",""1"",""3662""
","
",,,,,,,,,,,,"[{""stimulus"":""run_exp/static/images/task_images/rocket-01.jpg"",""time"":0.10000002384185791},{""stimulus"":""run_exp/static/images/task_images/rocket-02.jpg"",""time"":999.7000000476837},{""stimulus"":""run_exp/static/images/task_images/rocket-03.jpg"",""time"":1989.3999999761581},{""stimulus"":""run_exp/static/images/task_images/rocket-04.jpg"",""time"":2983.2000000476837},{""stimulus"":""run_exp/static/images/task_images/rocket-05.jpg"",""time"":3975.100000023842},{""stimulus"":""run_exp/static/images/task_images/rocket-06.jpg"",""time"":4965.200000047684},{""stimulus"":""run_exp/static/images/task_images/rocket-07.jpg"",""time"":5958.299999952316},{""stimulus"":""run_exp/static/images/task_images/rocket-08.jpg"",""time"":6950.700000047684},{""stimulus"":""run_exp/static/images/task_images/rocket-09.jpg"",""time"":7943.600000023842}]",[],4,,,,,,,,,,,,,,
alien_welcome,110,423668,0.0-36.0-1.0,"""event"",""trial"",""time""
""fullscreenenter"",""1"",""3662""
","
","
","""event"",""trial"",""time""
""fullscreenenter"",""1"",""3662""
","
",,null,run_exp/static/images/task_images/aliens/old_aliens/planet/alien_planet-76.jpg,null,,,,,,,,,,,,,76,"63,68,37,28,76,15,59,39,66,11,5,35,77,23,47,50,43,4,79,7,49,78,56,19,57,69,33,30,34,62,26,13,51,12,53,17,40,36,60,46,44,54,8",,,,,,,,,,
land,111,424177,0.0-36.0-2.0,"""event"",""trial"",""time""
""fullscreenenter"",""1"",""3662""
","
","
","""event"",""trial"",""time""
""fullscreenenter"",""1"",""3662""
","
",,null,run_exp/static/images/task_images/land.jpg,null,,,,,,,97,,,5,,,,,,,,,,,,,,
dig,112,426184,0.0-36.0-3.0,"""event"",""trial"",""time""
""fullscreenenter"",""1"",""3662""
","
","
","""event"",""trial"",""time""
""fullscreenenter"",""1"",""3662""
","
",,,,,,,,,,,,"[{""stimulus"":""run_exp/static/images/task_images/dig.jpg"",""time"":0.30000007152557373},{""stimulus"":""run_exp/static/images/task_images/land.jpg"",""time"":670.3000000715256},{""stimulus"":""run_exp/static/images/task_images/dig.jpg"",""time"":1343.5}]",[],5,,,,,,,,,,,,,,
harvest,113,427195,0.0-36.0-4.0,"""event"",""trial"",""time""
""fullscreenenter"",""1"",""3662""
","
","
","""event"",""trial"",""time""
""fullscreenenter"",""1"",""3662""
","
",,null,run_exp/static/images/task_images/gems/97.jpg,null,,,,,,,43,,,5,,,,,97,0.445061085,0.443298969,,,,,,,
decision,114,427513,0.0-36.0-5.0,"""event"",""trial"",""time""
""fullscreenenter"",""1"",""3662""
","
","
","""event"",""trial"",""time""
""fullscreenenter"",""1"",""3662""
","
",,316.4,run_exp/static/images/task_images/land.jpg,65,,,,,,,43,,,5,,,,,,,,119178,1,0,FALSE,,,
dig,115,430204,0.0-37.0-0.0,"""event"",""trial"",""time""
""fullscreenenter"",""1"",""3662""
","
","
","""event"",""trial"",""time""
""fullscreenenter"",""1"",""3662""
","
",,,,,,,,,,,,"[{""stimulus"":""run_exp/static/images/task_images/dig.jpg"",""time"":0.19999992847442627},{""stimulus"":""run_exp/static/images/task_images/land.jpg"",""time"":906.1999999284744},{""stimulus"":""run_exp/static/images/task_images/dig.jpg"",""time"":1793.1999999284744}]",[],5,,,,,,,,,,,,,,
harvest,116,431208,0.0-37.0-1.0,"""event"",""trial"",""time""
""fullscreenenter"",""1"",""3662""
","
","
","""event"",""trial"",""time""
""fullscreenenter"",""1"",""3662""
","
",,null,run_exp/static/images/task_images/gems/43.jpg,null,,,,,,,25,,,5,,,,,43,0.577823323,0.581395349,,,,,,,
decision,117,432240,0.0-37.0-2.0,"""event"",""trial"",""time""
""fullscreenenter"",""1"",""3662""
","
","
","""event"",""trial"",""time""
""fullscreenenter"",""1"",""3662""
","
",,1030.1,run_exp/static/images/task_images/land.jpg,65,,,,,,,25,,,5,,,,,,,,123905,1,1,FALSE,,,
dig,118,434220,0.0-38.0-0.0,"""event"",""trial"",""time""
""fullscreenenter"",""1"",""3662""
","
","
","""event"",""trial"",""time""
""fullscreenenter"",""1"",""3662""
","
",,,,,,,,,,,,"[{""stimulus"":""run_exp/static/images/task_images/dig.jpg"",""time"":0.2999999523162842},{""stimulus"":""run_exp/static/images/task_images/land.jpg"",""time"":666.2000000476837},{""stimulus"":""run_exp/static/images/task_images/dig.jpg"",""time"":1317.5}]",[],5,,,,,,,,,,,,,,
harvest,119,435225,0.0-38.0-1.0,"""event"",""trial"",""time""
""fullscreenenter"",""1"",""3662""
","
","
","""event"",""trial"",""time""
""fullscreenenter"",""1"",""3662""
","
",,null,run_exp/static/images/task_images/gems/25.jpg,null,,,,,,,13,,,5,,,,,25,0.524881315,0.52,,,,,,,
decision,120,435861,0.0-38.0-2.0,"""event"",""trial"",""time""
""fullscreenenter"",""1"",""3662""
","
","
","""event"",""trial"",""time""
""fullscreenenter"",""1"",""3662""
","
",,634,run_exp/static/images/task_images/land.jpg,76,,,,,,,13,,,5,,,,,,,,127526,1,2,TRUE,,,
travel,121,445236,0.0-39.0-0.0,"""event"",""trial"",""time""
""fullscreenenter"",""1"",""3662""
","
","
","""event"",""trial"",""time""
""fullscreenenter"",""1"",""3662""
","
",,,,,,,,,,,,"[{""stimulus"":""run_exp/static/images/task_images/rocket-01.jpg"",""time"":0.20000004768371582},{""stimulus"":""run_exp/static/images/task_images/rocket-02.jpg"",""time"":1051.6000000238419},{""stimulus"":""run_exp/static/images/task_images/rocket-03.jpg"",""time"":2089.9000000953674},{""stimulus"":""run_exp/static/images/task_images/rocket-04.jpg"",""time"":3129.2000000476837},{""stimulus"":""run_exp/static/images/task_images/rocket-05.jpg"",""time"":4169.200000047684},{""stimulus"":""run_exp/static/images/task_images/rocket-06.jpg"",""time"":5210.600000023842},{""stimulus"":""run_exp/static/images/task_images/rocket-07.jpg"",""time"":6251},{""stimulus"":""run_exp/static/images/task_images/rocket-08.jpg"",""time"":7288.400000095367},{""stimulus"":""run_exp/static/images/task_images/rocket-09.jpg"",""time"":8323.300000071526}]",[],5,,,,,,,,,,,,,,
alien_welcome,122,450241,0.0-39.0-1.0,"""event"",""trial"",""time""
""fullscreenenter"",""1"",""3662""
","
","
","""event"",""trial"",""time""
""fullscreenenter"",""1"",""3662""
","
",,null,run_exp/static/images/task_images/aliens/old_aliens/planet/alien_planet-15.jpg,null,,,,,,,,,,,,,15,"63,68,37,28,76,15,59,39,66,11,5,35,77,23,47,50,43,4,79,7,49,78,56,19,57,69,33,30,34,62,26,13,51,12,53,17,40,36,60,46,44,54,8",,,,,,,,,,
land,123,450745,0.0-39.0-2.0,"""event"",""trial"",""time""
""fullscreenenter"",""1"",""3662""
","
","
","""event"",""trial"",""time""
""fullscreenenter"",""1"",""3662""
","
",,null,run_exp/static/images/task_images/land.jpg,null,,,,,,,96,,,6,,,,,,,,,,,,,,
dig,124,452754,0.0-39.0-3.0,"""event"",""trial"",""time""
""fullscreenenter"",""1"",""3662""
","
","
","""event"",""trial"",""time""
""fullscreenenter"",""1"",""3662""
","
",,,,,,,,,,,,"[{""stimulus"":""run_exp/static/images/task_images/dig.jpg"",""time"":0.3999999761581421},{""stimulus"":""run_exp/static/images/task_images/land.jpg"",""time"":670.5},{""stimulus"":""run_exp/static/images/task_images/dig.jpg"",""time"":1343.2999999523163}]",[],6,,,,,,,,,,,,,,
harvest,125,453764,0.0-39.0-4.0,"""event"",""trial"",""time""
""fullscreenenter"",""1"",""3662""
","
","
","""event"",""trial"",""time""
""fullscreenenter"",""1"",""3662""
","
",,null,run_exp/static/images/task_images/gems/96.jpg,null,,,,,,,68,,,6,,,,,96,0.708925419,0.708333333,,,,,,,
decision,126,454188,0.0-39.0-5.0,"""event"",""trial"",""time""
""fullscreenenter"",""1"",""3662""
","
","
","""event"",""trial"",""time""
""fullscreenenter"",""1"",""3662""
","
",,422.3,run_exp/static/images/task_images/land.jpg,65,,,,,,,68,,,6,,,,,,,,145853,1,0,FALSE,,,
dig,127,456778,0.0-40.0-0.0,"""event"",""trial"",""time""
""fullscreenenter"",""1"",""3662""
","
","
","""event"",""trial"",""time""
""fullscreenenter"",""1"",""3662""
","
",,,,,,,,,,,,"[{""stimulus"":""run_exp/static/images/task_images/dig.jpg"",""time"":0.20000004768371582},{""stimulus"":""run_exp/static/images/task_images/land.jpg"",""time"":869.7000000476837},{""stimulus"":""run_exp/static/images/task_images/dig.jpg"",""time"":1726.4000000953674}]",[],6,,,,,,,,,,,,,,
harvest,128,457788,0.0-40.0-1.0,"""event"",""trial"",""time""
""fullscreenenter"",""1"",""3662""
","
","
","""event"",""trial"",""time""
""fullscreenenter"",""1"",""3662""
","
",,null,run_exp/static/images/task_images/gems/68.jpg,null,,,,,,,57,,,6,,,,,68,0.835724849,0.838235294,,,,,,,
decision,129,458287,0.0-40.0-2.0,"""event"",""trial"",""time""
""fullscreenenter"",""1"",""3662""
","
","
","""event"",""trial"",""time""
""fullscreenenter"",""1"",""3662""
","
",,497.5,run_exp/static/images/task_images/land.jpg,65,,,,,,,57,,,6,,,,,,,,149952,1,1,FALSE,,,
dig,130,460803,0.0-41.0-0.0,"""event"",""trial"",""time""
""fullscreenenter"",""1"",""3662""
","
","
","""event"",""trial"",""time""
""fullscreenenter"",""1"",""3662""
","
",,,,,,,,,,,,"[{""stimulus"":""run_exp/static/images/task_images/dig.jpg"",""time"":0.20000004768371582},{""stimulus"":""run_exp/static/images/task_images/land.jpg"",""time"":841.2000000476837},{""stimulus"":""run_exp/static/images/task_images/dig.jpg"",""time"":1670.7999999523163}]",[],6,,,,,,,,,,,,,,
harvest,131,461810,0.0-41.0-1.0,"""event"",""trial"",""time""
""fullscreenenter"",""1"",""3662""
","
","
","""event"",""trial"",""time""
""fullscreenenter"",""1"",""3662""
","
",,null,run_exp/static/images/task_images/gems/57.jpg,null,,,,,,,45,,,6,,,,,57,0.794916317,0.789473684,,,,,,,
decision,132,462252,0.0-41.0-2.0,"""event"",""trial"",""time""
""fullscreenenter"",""1"",""3662""
","
","
","""event"",""trial"",""time""
""fullscreenenter"",""1"",""3662""
","
",,441.2,run_exp/static/images/task_images/land.jpg,65,,,,,,,45,,,6,,,,,,,,153917,1,2,FALSE,,,
dig,133,464818,0.0-42.0-0.0,"""event"",""trial"",""time""
""fullscreenenter"",""1"",""3662""
","
","
","""event"",""trial"",""time""
""fullscreenenter"",""1"",""3662""
","
",,,,,,,,,,,,"[{""stimulus"":""run_exp/static/images/task_images/dig.jpg"",""time"":0.20000004768371582},{""stimulus"":""run_exp/static/images/task_images/land.jpg"",""time"":858.2000000476837},{""stimulus"":""run_exp/static/images/task_images/dig.jpg"",""time"":1710.2000000476837}]",[],6,,,,,,,,,,,,,,
harvest,134,465828,0.0-42.0-1.0,"""event"",""trial"",""time""
""fullscreenenter"",""1"",""3662""
","
","
","""event"",""trial"",""time""
""fullscreenenter"",""1"",""3662""
","
",,null,run_exp/static/images/task_images/gems/45.jpg,null,,,,,,,40,,,6,,,,,45,0.879196075,0.888888889,,,,,,,
decision,135,466284,0.0-42.0-2.0,"""event"",""trial"",""time""
""fullscreenenter"",""1"",""3662""
","
","
","""event"",""trial"",""time""
""fullscreenenter"",""1"",""3662""
","
",,454.6999999,run_exp/static/images/task_images/land.jpg,65,,,,,,,40,,,6,,,,,,,,157949,1,3,FALSE,,,
dig,136,468832,0.0-43.0-0.0,"""event"",""trial"",""time""
""fullscreenenter"",""1"",""3662""
","
","
","""event"",""trial"",""time""
""fullscreenenter"",""1"",""3662""
","
",,,,,,,,,,,,"[{""stimulus"":""run_exp/static/images/task_images/dig.jpg"",""time"":0.20000004768371582},{""stimulus"":""run_exp/static/images/task_images/land.jpg"",""time"":851.2000000476837},{""stimulus"":""run_exp/static/images/task_images/dig.jpg"",""time"":1701.8000000715256}]",[],6,,,,,,,,,,,,,,
harvest,137,469841,0.0-43.0-1.0,"""event"",""trial"",""time""
""fullscreenenter"",""1"",""3662""
","
","
","""event"",""trial"",""time""
""fullscreenenter"",""1"",""3662""
","
",,null,run_exp/static/images/task_images/gems/40.jpg,null,,,,,,,34,,,6,,,,,40,0.85906717,0.85,,,,,,,
decision,138,470245,0.0-43.0-2.0,"""event"",""trial"",""time""
""fullscreenenter"",""1"",""3662""
","
","
","""event"",""trial"",""time""
""fullscreenenter"",""1"",""3662""
","
",,403.3,run_exp/static/images/task_images/land.jpg,65,,,,,,,34,,,6,,,,,,,,161910,1,4,FALSE,,,
dig,139,472850,0.0-44.0-0.0,"""event"",""trial"",""time""
""fullscreenenter"",""1"",""3662""
","
","
","""event"",""trial"",""time""
""fullscreenenter"",""1"",""3662""
","
",,,,,,,,,,,,"[{""stimulus"":""run_exp/static/images/task_images/dig.jpg"",""time"":0.20000004768371582},{""stimulus"":""run_exp/static/images/task_images/land.jpg"",""time"":875.6000000238419},{""stimulus"":""run_exp/static/images/task_images/dig.jpg"",""time"":1738.7000000476837}]",[],6,,,,,,,,,,,,,,
harvest,140,473858,0.0-44.0-1.0,"""event"",""trial"",""time""
""fullscreenenter"",""1"",""3662""
","
","
","""event"",""trial"",""time""
""fullscreenenter"",""1"",""3662""
","
",,null,run_exp/static/images/task_images/gems/34.jpg,null,,,,,,,26,,,6,,,,,34,0.770834451,0.764705882,,,,,,,
decision,141,474227,0.0-44.0-2.0,"""event"",""trial"",""time""
""fullscreenenter"",""1"",""3662""
","
","
","""event"",""trial"",""time""
""fullscreenenter"",""1"",""3662""
","
",,368.1,run_exp/static/images/task_images/land.jpg,65,,,,,,,26,,,6,,,,,,,,165892,1,5,FALSE,,,
dig,142,476867,0.0-45.0-0.0,"""event"",""trial"",""time""
""fullscreenenter"",""1"",""3662""
","
","
","""event"",""trial"",""time""
""fullscreenenter"",""1"",""3662""
","
",,,,,,,,,,,,"[{""stimulus"":""run_exp/static/images/task_images/dig.jpg"",""time"":0.10000002384185791},{""stimulus"":""run_exp/static/images/task_images/land.jpg"",""time"":886.4000000953674},{""stimulus"":""run_exp/static/images/task_images/dig.jpg"",""time"":1766.4000000953674}]",[],6,,,,,,,,,,,,,,
harvest,143,477874,0.0-45.0-1.0,"""event"",""trial"",""time""
""fullscreenenter"",""1"",""3662""
","
","
","""event"",""trial"",""time""
""fullscreenenter"",""1"",""3662""
","
",,null,run_exp/static/images/task_images/gems/26.jpg,null,,,,,,,23,,,6,,,,,26,0.899083657,0.884615385,,,,,,,
decision,144,478197,0.0-45.0-2.0,"""event"",""trial"",""time""
""fullscreenenter"",""1"",""3662""
","
","
","""event"",""trial"",""time""
""fullscreenenter"",""1"",""3662""
","
",,322.1999999,run_exp/static/images/task_images/land.jpg,76,,,,,,,23,,,6,,,,,,,,169863,1,6,TRUE,,,
travel,145,487880,0.0-46.0-0.0,"""event"",""trial"",""time""
""fullscreenenter"",""1"",""3662""
","
","
","""event"",""trial"",""time""
""fullscreenenter"",""1"",""3662""
","
",,,,,,,,,,,,"[{""stimulus"":""run_exp/static/images/task_images/rocket-01.jpg"",""time"":0.10000002384185791},{""stimulus"":""run_exp/static/images/task_images/rocket-02.jpg"",""time"":1075.8999999761581},{""stimulus"":""run_exp/static/images/task_images/rocket-03.jpg"",""time"":2153.7999999523163},{""stimulus"":""run_exp/static/images/task_images/rocket-04.jpg"",""time"":3233.600000023842},{""stimulus"":""run_exp/static/images/task_images/rocket-05.jpg"",""time"":4307.100000023842},{""stimulus"":""run_exp/static/images/task_images/rocket-06.jpg"",""time"":5387.5},{""stimulus"":""run_exp/static/images/task_images/rocket-07.jpg"",""time"":6455.200000047684},{""stimulus"":""run_exp/static/images/task_images/rocket-08.jpg"",""time"":7527},{""stimulus"":""run_exp/static/images/task_images/rocket-09.jpg"",""time"":8607.700000047684}]",[],6,,,,,,,,,,,,,,
alien_welcome,146,492888,0.0-46.0-1.0,"""event"",""trial"",""time""
""fullscreenenter"",""1"",""3662""
","
","
","""event"",""trial"",""time""
""fullscreenenter"",""1"",""3662""
","
",,null,run_exp/static/images/task_images/aliens/old_aliens/planet/alien_planet-59.jpg,null,,,,,,,,,,,,,59,"63,68,37,28,76,15,59,39,66,11,5,35,77,23,47,50,43,4,79,7,49,78,56,19,57,69,33,30,34,62,26,13,51,12,53,17,40,36,60,46,44,54,8",,,,,,,,,,
land,147,493393,0.0-46.0-2.0,"""event"",""trial"",""time""
""fullscreenenter"",""1"",""3662""
","
","
","""event"",""trial"",""time""
""fullscreenenter"",""1"",""3662""
","
",,null,run_exp/static/images/task_images/land.jpg,null,,,,,,,98,,,7,,,,,,,,,,,,,,
dig,148,495404,0.0-46.0-3.0,"""event"",""trial"",""time""
""fullscreenenter"",""1"",""3662""
","
","
","""event"",""trial"",""time""
""fullscreenenter"",""1"",""3662""
","
",,,,,,,,,,,,"[{""stimulus"":""run_exp/static/images/task_images/dig.jpg"",""time"":0.2999999523162842},{""stimulus"":""run_exp/static/images/task_images/land.jpg"",""time"":673.5},{""stimulus"":""run_exp/static/images/task_images/dig.jpg"",""time"":1343.2999999523163}]",[],7,,,,,,,,,,,,,,
harvest,149,496409,0.0-46.0-4.0,"""event"",""trial"",""time""
""fullscreenenter"",""1"",""3662""
","
","
","""event"",""trial"",""time""
""fullscreenenter"",""1"",""3662""
","
",,null,run_exp/static/images/task_images/gems/98.jpg,null,,,,,,,76,,,7,,,,,98,0.770599684,0.775510204,,,,,,,
decision,150,496837,0.0-46.0-5.0,"""event"",""trial"",""time""
""fullscreenenter"",""1"",""3662""
","
","
","""event"",""trial"",""time""
""fullscreenenter"",""1"",""3662""
","
",,426.5,run_exp/static/images/task_images/land.jpg,65,,,,,,,76,,,7,,,,,,,,188502,1,0,FALSE,,,
dig,151,499421,0.0-47.0-0.0,"""event"",""trial"",""time""
""fullscreenenter"",""1"",""3662""
","
","
","""event"",""trial"",""time""
""fullscreenenter"",""1"",""3662""
","
",,,,,,,,,,,,"[{""stimulus"":""run_exp/static/images/task_images/dig.jpg"",""time"":0.09999990463256836},{""stimulus"":""run_exp/static/images/task_images/land.jpg"",""time"":867.5},{""stimulus"":""run_exp/static/images/task_images/dig.jpg"",""time"":1719.7999999523163}]",[],7,,,,,,,,,,,,,,
harvest,152,500428,0.0-47.0-1.0,"""event"",""trial"",""time""
""fullscreenenter"",""1"",""3662""
","
","
","""event"",""trial"",""time""
""fullscreenenter"",""1"",""3662""
","
",,null,run_exp/static/images/task_images/gems/76.jpg,null,,,,,,,60,,,7,,,,,76,0.793172292,0.789473684,,,,,,,
decision,153,500713,0.0-47.0-2.0,"""event"",""trial"",""time""
""fullscreenenter"",""1"",""3662""
","
","
","""event"",""trial"",""time""
""fullscreenenter"",""1"",""3662""
","
",,283.6999999,run_exp/static/images/task_images/land.jpg,65,,,,,,,60,,,7,,,,,,,,192378,1,1,FALSE,,,
dig,154,503435,0.0-48.0-0.0,"""event"",""trial"",""time""
""fullscreenenter"",""1"",""3662""
","
","
","""event"",""trial"",""time""
""fullscreenenter"",""1"",""3662""
","
",,,,,,,,,,,,"[{""stimulus"":""run_exp/static/images/task_images/dig.jpg"",""time"":0.10000002384185791},{""stimulus"":""run_exp/static/images/task_images/land.jpg"",""time"":913.1000000238419},{""stimulus"":""run_exp/static/images/task_images/dig.jpg"",""time"":1814.7999999523163}]",[],7,,,,,,,,,,,,,,
harvest,155,504441,0.0-48.0-1.0,"""event"",""trial"",""time""
""fullscreenenter"",""1"",""3662""
","
","
","""event"",""trial"",""time""
""fullscreenenter"",""1"",""3662""
","
",,null,run_exp/static/images/task_images/gems/60.jpg,null,,,,,,,49,,,7,,,,,60,0.822684034,0.816666667,,,,,,,
decision,156,504723,0.0-48.0-2.0,"""event"",""trial"",""time""
""fullscreenenter"",""1"",""3662""
","
","
","""event"",""trial"",""time""
""fullscreenenter"",""1"",""3662""
","
",,280.9,run_exp/static/images/task_images/land.jpg,65,,,,,,,49,,,7,,,,,,,,196388,1,2,FALSE,,,
dig,157,507453,0.0-49.0-0.0,"""event"",""trial"",""time""
""fullscreenenter"",""1"",""3662""
","
","
","""event"",""trial"",""time""
""fullscreenenter"",""1"",""3662""
","
",,,,,,,,,,,,"[{""stimulus"":""run_exp/static/images/task_images/dig.jpg"",""time"":0.10000002384185791},{""stimulus"":""run_exp/static/images/task_images/land.jpg"",""time"":909.1999999284744},{""stimulus"":""run_exp/static/images/task_images/dig.jpg"",""time"":1821.1000000238419}]",[],7,,,,,,,,,,,,,,
harvest,158,508457,0.0-49.0-1.0,"""event"",""trial"",""time""
""fullscreenenter"",""1"",""3662""
","
","
","""event"",""trial"",""time""
""fullscreenenter"",""1"",""3662""
","
",,null,run_exp/static/images/task_images/gems/49.jpg,null,,,,,,,40,,,7,,,,,49,0.807685074,0.816326531,,,,,,,
decision,159,508516,0.0-49.0-2.0,"""event"",""trial"",""time""
""fullscreenenter"",""1"",""3662""
","
","
","""event"",""trial"",""time""
""fullscreenenter"",""1"",""3662""
","
",,57.89999998,run_exp/static/images/task_images/land.jpg,65,,,,,,,40,,,7,,,,,,,,200181,1,3,FALSE,,,
dig,160,511465,0.0-50.0-0.0,"""event"",""trial"",""time""
""fullscreenenter"",""1"",""3662""
","
","
","""event"",""trial"",""time""
""fullscreenenter"",""1"",""3662""
","
",,,,,,,,,,,,"[{""stimulus"":""run_exp/static/images/task_images/dig.jpg"",""time"":0.09999990463256836},{""stimulus"":""run_exp/static/images/task_images/land.jpg"",""time"":988.3999999761581},{""stimulus"":""run_exp/static/images/task_images/dig.jpg"",""time"":1969.5}]",[],7,,,,,,,,,,,,,,
harvest,161,512472,0.0-50.0-1.0,"""event"",""trial"",""time""
""fullscreenenter"",""1"",""3662""
","
","
","""event"",""trial"",""time""
""fullscreenenter"",""1"",""3662""
","
",,null,run_exp/static/images/task_images/gems/40.jpg,null,,,,,,,32,,,7,,,,,40,0.788142142,0.8,,,,,,,
decision,162,512732,0.0-50.0-2.0,"""event"",""trial"",""time""
""fullscreenenter"",""1"",""3662""
","
","
","""event"",""trial"",""time""
""fullscreenenter"",""1"",""3662""
","
",,258.9000001,run_exp/static/images/task_images/land.jpg,65,,,,,,,32,,,7,,,,,,,,204397,1,4,FALSE,,,
dig,163,515481,0.0-51.0-0.0,"""event"",""trial"",""time""
""fullscreenenter"",""1"",""3662""
","
","
","""event"",""trial"",""time""
""fullscreenenter"",""1"",""3662""
","
",,,,,,,,,,,,"[{""stimulus"":""run_exp/static/images/task_images/dig.jpg"",""time"":0.20000004768371582},{""stimulus"":""run_exp/static/images/task_images/land.jpg"",""time"":922.2000000476837},{""stimulus"":""run_exp/static/images/task_images/dig.jpg"",""time"":1834.3000000715256}]",[],7,,,,,,,,,,,,,,
harvest,164,516488,0.0-51.0-1.0,"""event"",""trial"",""time""
""fullscreenenter"",""1"",""3662""
","
","
","""event"",""trial"",""time""
""fullscreenenter"",""1"",""3662""
","
",,null,run_exp/static/images/task_images/gems/32.jpg,null,,,,,,,22,,,7,,,,,32,0.687908679,0.6875,,,,,,,
decision,165,516689,0.0-51.0-2.0,"""event"",""trial"",""time""
""fullscreenenter"",""1"",""3662""
","
","
","""event"",""trial"",""time""
""fullscreenenter"",""1"",""3662""
","
",,199.2,run_exp/static/images/task_images/land.jpg,65,,,,,,,22,,,7,,,,,,,,208354,1,5,FALSE,,,
dig,166,519497,0.0-52.0-0.0,"""event"",""trial"",""time""
""fullscreenenter"",""1"",""3662""
","
","
","""event"",""trial"",""time""
""fullscreenenter"",""1"",""3662""
","
",,,,,,,,,,,,"[{""stimulus"":""run_exp/static/images/task_images/dig.jpg"",""time"":0.10000002384185791},{""stimulus"":""run_exp/static/images/task_images/land.jpg"",""time"":944.5},{""stimulus"":""run_exp/static/images/task_images/dig.jpg"",""time"":1867.7000000476837}]",[],7,,,,,,,,,,,,,,
harvest,167,520505,0.0-52.0-1.0,"""event"",""trial"",""time""
""fullscreenenter"",""1"",""3662""
","
","
","""event"",""trial"",""time""
""fullscreenenter"",""1"",""3662""
","
",,null,run_exp/static/images/task_images/gems/22.jpg,null,,,,,,,18,,,7,,,,,22,0.79743503,0.818181818,,,,,,,
decision,168,520826,0.0-52.0-2.0,"""event"",""trial"",""time""
""fullscreenenter"",""1"",""3662""
","
","
","""event"",""trial"",""time""
""fullscreenenter"",""1"",""3662""
","
",,319.1,run_exp/static/images/task_images/land.jpg,76,,,,,,,18,,,7,,,,,,,,212491,1,6,TRUE,,,
travel,169,530512,0.0-53.0-0.0,"""event"",""trial"",""time""
""fullscreenenter"",""1"",""3662""
","
","
","""event"",""trial"",""time""
""fullscreenenter"",""1"",""3662""
","
",,,,,,,,,,,,"[{""stimulus"":""run_exp/static/images/task_images/rocket-01.jpg"",""time"":0.20000004768371582},{""stimulus"":""run_exp/static/images/task_images/rocket-02.jpg"",""time"":1086.3000000715256},{""stimulus"":""run_exp/static/images/task_images/rocket-03.jpg"",""time"":2159.2000000476837},{""stimulus"":""run_exp/static/images/task_images/rocket-04.jpg"",""time"":3231.100000023842},{""stimulus"":""run_exp/static/images/task_images/rocket-05.jpg"",""time"":4307},{""stimulus"":""run_exp/static/images/task_images/rocket-06.jpg"",""time"":5378.600000023842},{""stimulus"":""run_exp/static/images/task_images/rocket-07.jpg"",""time"":6462.200000047684},{""stimulus"":""run_exp/static/images/task_images/rocket-08.jpg"",""time"":7534.600000023842},{""stimulus"":""run_exp/static/images/task_images/rocket-09.jpg"",""time"":8605.700000047684}]",[],7,,,,,,,,,,,,,,
alien_welcome,170,535522,0.0-53.0-1.0,"""event"",""trial"",""time""
""fullscreenenter"",""1"",""3662""
","
","
","""event"",""trial"",""time""
""fullscreenenter"",""1"",""3662""
","
",,null,run_exp/static/images/task_images/aliens/old_aliens/planet/alien_planet-39.jpg,null,,,,,,,,,,,,,39,"63,68,37,28,76,15,59,39,66,11,5,35,77,23,47,50,43,4,79,7,49,78,56,19,57,69,33,30,34,62,26,13,51,12,53,17,40,36,60,46,44,54,8",,,,,,,,,,
land,171,536028,0.0-53.0-2.0,"""event"",""trial"",""time""
""fullscreenenter"",""1"",""3662""
","
","
","""event"",""trial"",""time""
""fullscreenenter"",""1"",""3662""
","
",,null,run_exp/static/images/task_images/land.jpg,null,,,,,,,101,,,8,,,,,,,,,,,,,,
dig,172,538037,0.0-53.0-3.0,"""event"",""trial"",""time""
""fullscreenenter"",""1"",""3662""
","
","
","""event"",""trial"",""time""
""fullscreenenter"",""1"",""3662""
","
",,,,,,,,,,,,"[{""stimulus"":""run_exp/static/images/task_images/dig.jpg"",""time"":0.3999999761581421},{""stimulus"":""run_exp/static/images/task_images/land.jpg"",""time"":679.1000000238419},{""stimulus"":""run_exp/static/images/task_images/dig.jpg"",""time"":1343}]",[],8,,,,,,,,,,,,,,
harvest,173,539041,0.0-53.0-4.0,"""event"",""trial"",""time""
""fullscreenenter"",""1"",""3662""
","
","
","""event"",""trial"",""time""
""fullscreenenter"",""1"",""3662""
","
",,null,run_exp/static/images/task_images/gems/101.jpg,null,,,,,,,81,,,8,,,,,101,0.80517935,0.801980198,,,,,,,
decision,174,539707,0.0-53.0-5.0,"""event"",""trial"",""time""
""fullscreenenter"",""1"",""3662""
","
","
","""event"",""trial"",""time""
""fullscreenenter"",""1"",""3662""
","
",,664.9000001,run_exp/static/images/task_images/land.jpg,65,,,,,,,81,,,8,,,,,,,,231372,1,0,FALSE,,,
dig,175,542049,0.0-54.0-0.0,"""event"",""trial"",""time""
""fullscreenenter"",""1"",""3662""
","
","
","""event"",""trial"",""time""
""fullscreenenter"",""1"",""3662""
","
",,,,,,,,,,,,"[{""stimulus"":""run_exp/static/images/task_images/dig.jpg"",""time"":0.10000002384185791},{""stimulus"":""run_exp/static/images/task_images/land.jpg"",""time"":787.8999999761581},{""stimulus"":""run_exp/static/images/task_images/dig.jpg"",""time"":1564.6000000238419}]",[],8,,,,,,,,,,,,,,
harvest,176,543060,0.0-54.0-1.0,"""event"",""trial"",""time""
""fullscreenenter"",""1"",""3662""
","
","
","""event"",""trial"",""time""
""fullscreenenter"",""1"",""3662""
","
",,null,run_exp/static/images/task_images/gems/81.jpg,null,,,,,,,65,,,8,,,,,81,0.800536633,0.802469136,,,,,,,
decision,177,543556,0.0-54.0-2.0,"""event"",""trial"",""time""
""fullscreenenter"",""1"",""3662""
","
","
","""event"",""trial"",""time""
""fullscreenenter"",""1"",""3662""
","
",,494.6999999,run_exp/static/images/task_images/land.jpg,65,,,,,,,65,,,8,,,,,,,,235222,1,1,FALSE,,,
dig,178,546074,0.0-55.0-0.0,"""event"",""trial"",""time""
""fullscreenenter"",""1"",""3662""
","
","
","""event"",""trial"",""time""
""fullscreenenter"",""1"",""3662""
","
",,,,,,,,,,,,"[{""stimulus"":""run_exp/static/images/task_images/dig.jpg"",""time"":0.10000002384185791},{""stimulus"":""run_exp/static/images/task_images/land.jpg"",""time"":841.2000000476837},{""stimulus"":""run_exp/static/images/task_images/dig.jpg"",""time"":1672.7999999523163}]",[],8,,,,,,,,,,,,,,
harvest,179,547085,0.0-55.0-1.0,"""event"",""trial"",""time""
""fullscreenenter"",""1"",""3662""
","
","
","""event"",""trial"",""time""
""fullscreenenter"",""1"",""3662""
","
",,null,run_exp/static/images/task_images/gems/65.jpg,null,,,,,,,55,,,8,,,,,65,0.848267927,0.846153846,,,,,,,
decision,180,547396,0.0-55.0-2.0,"""event"",""trial"",""time""
""fullscreenenter"",""1"",""3662""
","
","
","""event"",""trial"",""time""
""fullscreenenter"",""1"",""3662""
","
",,309.8000001,run_exp/static/images/task_images/land.jpg,65,,,,,,,55,,,8,,,,,,,,239061,1,2,FALSE,,,
dig,181,550098,0.0-56.0-0.0,"""event"",""trial"",""time""
""fullscreenenter"",""1"",""3662""
","
","
","""event"",""trial"",""time""
""fullscreenenter"",""1"",""3662""
","
",,,,,,,,,,,,"[{""stimulus"":""run_exp/static/images/task_images/dig.jpg"",""time"":0.10000002384185791},{""stimulus"":""run_exp/static/images/task_images/land.jpg"",""time"":908.9000000953674},{""stimulus"":""run_exp/static/images/task_images/dig.jpg"",""time"":1802.2000000476837}]",[],8,,,,,,,,,,,,,,
harvest,182,551107,0.0-56.0-1.0,"""event"",""trial"",""time""
""fullscreenenter"",""1"",""3662""
","
","
","""event"",""trial"",""time""
""fullscreenenter"",""1"",""3662""
","
",,null,run_exp/static/images/task_images/gems/55.jpg,null,,,,,,,39,,,8,,,,,55,0.708126357,0.709090909,,,,,,,
decision,183,551468,0.0-56.0-2.0,"""event"",""trial"",""time""
""fullscreenenter"",""1"",""3662""
","
","
","""event"",""trial"",""time""
""fullscreenenter"",""1"",""3662""
","
",,360.0999999,run_exp/static/images/task_images/land.jpg,65,,,,,,,39,,,8,,,,,,,,243134,1,3,FALSE,,,
dig,184,554113,0.0-57.0-0.0,"""event"",""trial"",""time""
""fullscreenenter"",""1"",""3662""
","
","
","""event"",""trial"",""time""
""fullscreenenter"",""1"",""3662""
","
",,,,,,,,,,,,"[{""stimulus"":""run_exp/static/images/task_images/dig.jpg"",""time"":0.09999990463256836},{""stimulus"":""run_exp/static/images/task_images/land.jpg"",""time"":881.2999999523163},{""stimulus"":""run_exp/static/images/task_images/dig.jpg"",""time"":1764.5999999046326}]",[],8,,,,,,,,,,,,,,
harvest,185,555121,0.0-57.0-1.0,"""event"",""trial"",""time""
""fullscreenenter"",""1"",""3662""
","
","
","""event"",""trial"",""time""
""fullscreenenter"",""1"",""3662""
","
",,null,run_exp/static/images/task_images/gems/39.jpg,null,,,,,,,31,,,8,,,,,39,0.788059327,0.794871795,,,,,,,
decision,186,555397,0.0-57.0-2.0,"""event"",""trial"",""time""
""fullscreenenter"",""1"",""3662""
","
","
","""event"",""trial"",""time""
""fullscreenenter"",""1"",""3662""
","
",,274.5,run_exp/static/images/task_images/land.jpg,65,,,,,,,31,,,8,,,,,,,,247062,1,4,FALSE,,,
dig,187,558129,0.0-58.0-0.0,"""event"",""trial"",""time""
""fullscreenenter"",""1"",""3662""
","
","
","""event"",""trial"",""time""
""fullscreenenter"",""1"",""3662""
","
",,,,,,,,,,,,"[{""stimulus"":""run_exp/static/images/task_images/dig.jpg"",""time"":0.19999992847442627},{""stimulus"":""run_exp/static/images/task_images/land.jpg"",""time"":911.6000000238419},{""stimulus"":""run_exp/static/images/task_images/dig.jpg"",""time"":1828.6000000238419}]",[],8,,,,,,,,,,,,,,
harvest,188,559138,0.0-58.0-1.0,"""event"",""trial"",""time""
""fullscreenenter"",""1"",""3662""
","
","
","""event"",""trial"",""time""
""fullscreenenter"",""1"",""3662""
","
",,null,run_exp/static/images/task_images/gems/31.jpg,null,,,,,,,26,,,8,,,,,31,0.85369355,0.838709677,,,,,,,
decision,189,559428,0.0-58.0-2.0,"""event"",""trial"",""time""
""fullscreenenter"",""1"",""3662""
","
","
","""event"",""trial"",""time""
""fullscreenenter"",""1"",""3662""
","
",,288.5,run_exp/static/images/task_images/land.jpg,65,,,,,,,26,,,8,,,,,,,,251093,1,5,FALSE,,,
dig,190,562148,0.0-59.0-0.0,"""event"",""trial"",""time""
""fullscreenenter"",""1"",""3662""
","
","
","""event"",""trial"",""time""
""fullscreenenter"",""1"",""3662""
","
",,,,,,,,,,,,"[{""stimulus"":""run_exp/static/images/task_images/dig.jpg"",""time"":0.10000002384185791},{""stimulus"":""run_exp/static/images/task_images/land.jpg"",""time"":906.3000000715256},{""stimulus"":""run_exp/static/images/task_images/dig.jpg"",""time"":1809.5}]",[],8,,,,,,,,,,,,,,
harvest,191,563154,0.0-59.0-1.0,"""event"",""trial"",""time""
""fullscreenenter"",""1"",""3662""
","
","
","""event"",""trial"",""time""
""fullscreenenter"",""1"",""3662""
","
",,null,run_exp/static/images/task_images/gems/26.jpg,null,,,,,,,21,,,8,,,,,26,0.81836516,0.807692308,,,,,,,
decision,192,563497,0.0-59.0-2.0,"""event"",""trial"",""time""
""fullscreenenter"",""1"",""3662""
","
","
","""event"",""trial"",""time""
""fullscreenenter"",""1"",""3662""
","
",,341.4,run_exp/static/images/task_images/land.jpg,76,,,,,,,21,,,8,,,,,,,,255162,1,6,TRUE,,,
travel,193,573165,0.0-60.0-0.0,"""event"",""trial"",""time""
""fullscreenenter"",""1"",""3662""
","
","
","""event"",""trial"",""time""
""fullscreenenter"",""1"",""3662""
","
",,,,,,,,,,,,"[{""stimulus"":""run_exp/static/images/task_images/rocket-01.jpg"",""time"":0.19999992847442627},{""stimulus"":""run_exp/static/images/task_images/rocket-02.jpg"",""time"":1076.5},{""stimulus"":""run_exp/static/images/task_images/rocket-03.jpg"",""time"":2151.1999999284744},{""stimulus"":""run_exp/static/images/task_images/rocket-04.jpg"",""time"":3229},{""stimulus"":""run_exp/static/images/task_images/rocket-05.jpg"",""time"":4299.899999976158},{""stimulus"":""run_exp/static/images/task_images/rocket-06.jpg"",""time"":5371.599999904633},{""stimulus"":""run_exp/static/images/task_images/rocket-07.jpg"",""time"":6447.5},{""stimulus"":""run_exp/static/images/task_images/rocket-08.jpg"",""time"":7520.5},{""stimulus"":""run_exp/static/images/task_images/rocket-09.jpg"",""time"":8588.5}]",[],8,,,,,,,,,,,,,,
alien_welcome,194,578168,0.0-60.0-1.0,"""event"",""trial"",""time""
""fullscreenenter"",""1"",""3662""
","
","
","""event"",""trial"",""time""
""fullscreenenter"",""1"",""3662""
","
",,null,run_exp/static/images/task_images/aliens/old_aliens/planet/alien_planet-66.jpg,null,,,,,,,,,,,,,66,"63,68,37,28,76,15,59,39,66,11,5,35,77,23,47,50,43,4,79,7,49,78,56,19,57,69,33,30,34,62,26,13,51,12,53,17,40,36,60,46,44,54,8",,,,,,,,,,
land,195,578676,0.0-60.0-2.0,"""event"",""trial"",""time""
""fullscreenenter"",""1"",""3662""
","
","
","""event"",""trial"",""time""
""fullscreenenter"",""1"",""3662""
","
",,null,run_exp/static/images/task_images/land.jpg,null,,,,,,,91,,,9,,,,,,,,,,,,,,
dig,196,580681,0.0-60.0-3.0,"""event"",""trial"",""time""
""fullscreenenter"",""1"",""3662""
","
","
","""event"",""trial"",""time""
""fullscreenenter"",""1"",""3662""
","
",,,,,,,,,,,,"[{""stimulus"":""run_exp/static/images/task_images/dig.jpg"",""time"":0.30000007152557373},{""stimulus"":""run_exp/static/images/task_images/land.jpg"",""time"":675.7000000476837},{""stimulus"":""run_exp/static/images/task_images/dig.jpg"",""time"":1340.1000000238419}]",[],9,,,,,,,,,,,,,,
harvest,197,581688,0.0-60.0-4.0,"""event"",""trial"",""time""
""fullscreenenter"",""1"",""3662""
","
","
","""event"",""trial"",""time""
""fullscreenenter"",""1"",""3662""
","
",,null,run_exp/static/images/task_images/gems/91.jpg,null,,,,,,,12,,,9,,,,,91,0.135766631,0.131868132,,,,,,,
decision,198,582043,0.0-60.0-5.0,"""event"",""trial"",""time""
""fullscreenenter"",""1"",""3662""
","
","
","""event"",""trial"",""time""
""fullscreenenter"",""1"",""3662""
","
",,353.4,run_exp/static/images/task_images/land.jpg,65,,,,,,,12,,,9,,,,,,,,273708,1,0,FALSE,,,
dig,199,584697,0.0-61.0-0.0,"""event"",""trial"",""time""
""fullscreenenter"",""1"",""3662""
","
","
","""event"",""trial"",""time""
""fullscreenenter"",""1"",""3662""
","
",,,,,,,,,,,,"[{""stimulus"":""run_exp/static/images/task_images/dig.jpg"",""time"":0.2999999523162842},{""stimulus"":""run_exp/static/images/task_images/land.jpg"",""time"":891.1000000238419},{""stimulus"":""run_exp/static/images/task_images/dig.jpg"",""time"":1771.6000000238419}]",[],9,,,,,,,,,,,,,,
harvest,200,585705,0.0-61.0-1.0,"""event"",""trial"",""time""
""fullscreenenter"",""1"",""3662""
","
","
","""event"",""trial"",""time""
""fullscreenenter"",""1"",""3662""
","
",,null,run_exp/static/images/task_images/gems/12.jpg,null,,,,,,,2,,,9,,,,,12,0.180288473,0.166666667,,,,,,,
decision,201,585948,0.0-61.0-2.0,"""event"",""trial"",""time""
""fullscreenenter"",""1"",""3662""
","
","
","""event"",""trial"",""time""
""fullscreenenter"",""1"",""3662""
","
",,242.1,run_exp/static/images/task_images/land.jpg,76,,,,,,,2,,,9,,,,,,,,277614,1,1,TRUE,,,
travel,202,595716,0.0-62.0-0.0,"""event"",""trial"",""time""
""fullscreenenter"",""1"",""3662""
","
","
","""event"",""trial"",""time""
""fullscreenenter"",""1"",""3662""
","
",,,,,,,,,,,,"[{""stimulus"":""run_exp/static/images/task_images/rocket-01.jpg"",""time"":0.20000004768371582},{""stimulus"":""run_exp/static/images/task_images/rocket-02.jpg"",""time"":1091.6000000238419},{""stimulus"":""run_exp/static/images/task_images/rocket-03.jpg"",""time"":2181.8000000715256},{""stimulus"":""run_exp/static/images/task_images/rocket-04.jpg"",""time"":3261.2000000476837},{""stimulus"":""run_exp/static/images/task_images/rocket-05.jpg"",""time"":4347.700000047684},{""stimulus"":""run_exp/static/images/task_images/rocket-06.jpg"",""time"":5426.700000047684},{""stimulus"":""run_exp/static/images/task_images/rocket-07.jpg"",""time"":6516.300000071526},{""stimulus"":""run_exp/static/images/task_images/rocket-08.jpg"",""time"":7597.200000047684},{""stimulus"":""run_exp/static/images/task_images/rocket-09.jpg"",""time"":8684.700000047684}]",[],9,,,,,,,,,,,,,,
alien_welcome,203,600724,0.0-62.0-1.0,"""event"",""trial"",""time""
""fullscreenenter"",""1"",""3662""
","
","
","""event"",""trial"",""time""
""fullscreenenter"",""1"",""3662""
","
",,null,run_exp/static/images/task_images/aliens/old_aliens/planet/alien_planet-11.jpg,null,,,,,,,,,,,,,11,"63,68,37,28,76,15,59,39,66,11,5,35,77,23,47,50,43,4,79,7,49,78,56,19,57,69,33,30,34,62,26,13,51,12,53,17,40,36,60,46,44,54,8",,,,,,,,,,
land,204,601235,0.0-62.0-2.0,"""event"",""trial"",""time""
""fullscreenenter"",""1"",""3662""
","
","
","""event"",""trial"",""time""
""fullscreenenter"",""1"",""3662""
","
",,null,run_exp/static/images/task_images/land.jpg,null,,,,,,,103,,,10,,,,,,,,,,,,,,
dig,205,603244,0.0-62.0-3.0,"""event"",""trial"",""time""
""fullscreenenter"",""1"",""3662""
","
","
","""event"",""trial"",""time""
""fullscreenenter"",""1"",""3662""
","
",,,,,,,,,,,,"[{""stimulus"":""run_exp/static/images/task_images/dig.jpg"",""time"":0.3999999761581421},{""stimulus"":""run_exp/static/images/task_images/land.jpg"",""time"":675.5},{""stimulus"":""run_exp/static/images/task_images/dig.jpg"",""time"":1340.6000000238419}]",[],10,,,,,,,,,,,,,,
harvest,206,604252,0.0-62.0-4.0,"""event"",""trial"",""time""
""fullscreenenter"",""1"",""3662""
","
","
","""event"",""trial"",""time""
""fullscreenenter"",""1"",""3662""
","
",,null,run_exp/static/images/task_images/gems/103.jpg,null,,,,,,,13,,,10,,,,,103,0.124789336,0.126213592,,,,,,,
decision,207,604544,0.0-62.0-5.0,"""event"",""trial"",""time""
""fullscreenenter"",""1"",""3662""
","
","
","""event"",""trial"",""time""
""fullscreenenter"",""1"",""3662""
","
",,291.1999999,run_exp/static/images/task_images/land.jpg,65,,,,,,,13,,,10,,,,,,,,296209,1,0,FALSE,,,
dig,208,607257,0.0-63.0-0.0,"""event"",""trial"",""time""
""fullscreenenter"",""1"",""3662""
","
","
","""event"",""trial"",""time""
""fullscreenenter"",""1"",""3662""
","
",,,,,,,,,,,,"[{""stimulus"":""run_exp/static/images/task_images/dig.jpg"",""time"":0.20000004768371582},{""stimulus"":""run_exp/static/images/task_images/land.jpg"",""time"":912.4000000953674},{""stimulus"":""run_exp/static/images/task_images/dig.jpg"",""time"":1812.7000000476837}]",[],10,,,,,,,,,,,,,,
harvest,209,608267,0.0-63.0-1.0,"""event"",""trial"",""time""
""fullscreenenter"",""1"",""3662""
","
","
","""event"",""trial"",""time""
""fullscreenenter"",""1"",""3662""
","
",,null,run_exp/static/images/task_images/gems/13.jpg,null,,,,,,,3,,,10,,,,,13,0.203755153,0.230769231,,,,,,,
decision,210,608543,0.0-63.0-2.0,"""event"",""trial"",""time""
""fullscreenenter"",""1"",""3662""
","
","
","""event"",""trial"",""time""
""fullscreenenter"",""1"",""3662""
","
",,273.8000001,run_exp/static/images/task_images/land.jpg,76,,,,,,,3,,,10,,,,,,,,300208,1,1,TRUE,,,
end_of_block_continue,211,616605,0.0-64.0-0.0,"""event"",""trial"",""time""
""fullscreenenter"",""1"",""3662""
","
","
","""event"",""trial"",""time""
""fullscreenenter"",""1"",""3662""
","
",,8057.5,run_exp/static/audio/clip_32_block_end.m4a,,,,,,,0,,,,,,,,,,,,,,,,,,
alien_welcome,212,621613,0.0-65.0-0.0,"""event"",""trial"",""time""
""fullscreenenter"",""1"",""3662""
","
","
","""event"",""trial"",""time""
""fullscreenenter"",""1"",""3662""
","
",,null,run_exp/static/images/task_images/aliens/old_aliens/planet/alien_planet-5.jpg,null,,,,,,,,,,,,,5,"63,68,37,28,76,15,59,39,66,11,5,35,77,23,47,50,43,4,79,7,49,78,56,19,57,69,33,30,34,62,26,13,51,12,53,17,40,36,60,46,44,54,8",,,,,,,,,,
land,213,622125,0.0-65.0-1.0,"""event"",""trial"",""time""
""fullscreenenter"",""1"",""3662""
","
","
","""event"",""trial"",""time""
""fullscreenenter"",""1"",""3662""
","
",,null,run_exp/static/images/task_images/land.jpg,null,,,,,,,94,,,11,,,,,,,,,,,,,,
dig,214,624137,0.0-65.0-2.0,"""event"",""trial"",""time""
""fullscreenenter"",""1"",""3662""
","
","
","""event"",""trial"",""time""
""fullscreenenter"",""1"",""3662""
","
",,,,,,,,,,,,"[{""stimulus"":""run_exp/static/images/task_images/dig.jpg"",""time"":0.30000007152557373},{""stimulus"":""run_exp/static/images/task_images/land.jpg"",""time"":673.5},{""stimulus"":""run_exp/static/images/task_images/dig.jpg"",""time"":1338.4000000953674}]",[],11,,,,,,,,,,,,,,
harvest,215,625147,0.0-65.0-3.0,"""event"",""trial"",""time""
""fullscreenenter"",""1"",""3662""
","
","
","""event"",""trial"",""time""
""fullscreenenter"",""1"",""3662""
","
",,null,run_exp/static/images/task_images/gems/94.jpg,null,,,,,,,20,,,11,,,,,94,0.211567665,0.212765957,,,,,,,
decision,216,625743,0.0-65.0-4.0,"""event"",""trial"",""time""
""fullscreenenter"",""1"",""3662""
","
","
","""event"",""trial"",""time""
""fullscreenenter"",""1"",""3662""
","
",,593.8,run_exp/static/images/task_images/land.jpg,65,,,,,,,20,,,11,,,,,,,,9134,2,0,FALSE,,,
dig,217,628161,0.0-66.0-0.0,"""event"",""trial"",""time""
""fullscreenenter"",""1"",""3662""
","
","
","""event"",""trial"",""time""
""fullscreenenter"",""1"",""3662""
","
",,,,,,,,,,,,"[{""stimulus"":""run_exp/static/images/task_images/dig.jpg"",""time"":0.20000004768371582},{""stimulus"":""run_exp/static/images/task_images/land.jpg"",""time"":806.3000000715256},{""stimulus"":""run_exp/static/images/task_images/dig.jpg"",""time"":1606.2000000476837}]",[],11,,,,,,,,,,,,,,
harvest,218,629169,0.0-66.0-1.0,"""event"",""trial"",""time""
""fullscreenenter"",""1"",""3662""
","
","
","""event"",""trial"",""time""
""fullscreenenter"",""1"",""3662""
","
",,null,run_exp/static/images/task_images/gems/20.jpg,null,,,,,,,4,,,11,,,,,20,0.195345901,0.2,,,,,,,
decision,219,629295,0.0-66.0-2.0,"""event"",""trial"",""time""
""fullscreenenter"",""1"",""3662""
","
","
","""event"",""trial"",""time""
""fullscreenenter"",""1"",""3662""
","
",,124.9,run_exp/static/images/task_images/land.jpg,76,,,,,,,4,,,11,,,,,,,,12687,2,1,TRUE,,,
travel,220,639178,0.0-67.0-0.0,"""event"",""trial"",""time""
""fullscreenenter"",""1"",""3662""
","
","
","""event"",""trial"",""time""
""fullscreenenter"",""1"",""3662""
","
",,,,,,,,,,,,"[{""stimulus"":""run_exp/static/images/task_images/rocket-01.jpg"",""time"":0.20000004768371582},{""stimulus"":""run_exp/static/images/task_images/rocket-02.jpg"",""time"":1104.2999999523163},{""stimulus"":""run_exp/static/images/task_images/rocket-03.jpg"",""time"":2200.7999999523163},{""stimulus"":""run_exp/static/images/task_images/rocket-04.jpg"",""time"":3293.600000023842},{""stimulus"":""run_exp/static/images/task_images/rocket-05.jpg"",""time"":4397.799999952316},{""stimulus"":""run_exp/static/images/task_images/rocket-06.jpg"",""time"":5494.100000023842},{""stimulus"":""run_exp/static/images/task_images/rocket-07.jpg"",""time"":6593.600000023842},{""stimulus"":""run_exp/static/images/task_images/rocket-08.jpg"",""time"":7688.5},{""stimulus"":""run_exp/static/images/task_images/rocket-09.jpg"",""time"":8777.700000047684}]",[],11,,,,,,,,,,,,,,
alien_welcome,221,644185,0.0-67.0-1.0,"""event"",""trial"",""time""
""fullscreenenter"",""1"",""3662""
","
","
","""event"",""trial"",""time""
""fullscreenenter"",""1"",""3662""
","
",,null,run_exp/static/images/task_images/aliens/old_aliens/planet/alien_planet-35.jpg,null,,,,,,,,,,,,,35,"63,68,37,28,76,15,59,39,66,11,5,35,77,23,47,50,43,4,79,7,49,78,56,19,57,69,33,30,34,62,26,13,51,12,53,17,40,36,60,46,44,54,8",,,,,,,,,,
land,222,644688,0.0-67.0-2.0,"""event"",""trial"",""time""
""fullscreenenter"",""1"",""3662""
","
","
","""event"",""trial"",""time""
""fullscreenenter"",""1"",""3662""
","
",,null,run_exp/static/images/task_images/land.jpg,null,,,,,,,101,,,12,,,,,,,,,,,,,,
dig,223,646697,0.0-67.0-3.0,"""event"",""trial"",""time""
""fullscreenenter"",""1"",""3662""
","
","
","""event"",""trial"",""time""
""fullscreenenter"",""1"",""3662""
","
",,,,,,,,,,,,"[{""stimulus"":""run_exp/static/images/task_images/dig.jpg"",""time"":0.30000007152557373},{""stimulus"":""run_exp/static/images/task_images/land.jpg"",""time"":675},{""stimulus"":""run_exp/static/images/task_images/dig.jpg"",""time"":1337.8000000715256}]",[],12,,,,,,,,,,,,,,
harvest,224,647704,0.0-67.0-4.0,"""event"",""trial"",""time""
""fullscreenenter"",""1"",""3662""
","
","
","""event"",""trial"",""time""
""fullscreenenter"",""1"",""3662""
","
",,null,run_exp/static/images/task_images/gems/101.jpg,null,,,,,,,18,,,12,,,,,101,0.182637878,0.178217822,,,,,,,
decision,225,648033,0.0-67.0-5.0,"""event"",""trial"",""time""
""fullscreenenter"",""1"",""3662""
","
","
","""event"",""trial"",""time""
""fullscreenenter"",""1"",""3662""
","
",,327.3000001,run_exp/static/images/task_images/land.jpg,65,,,,,,,18,,,12,,,,,,,,31424,2,0,FALSE,,,
dig,226,650717,0.0-68.0-0.0,"""event"",""trial"",""time""
""fullscreenenter"",""1"",""3662""
","
","
","""event"",""trial"",""time""
""fullscreenenter"",""1"",""3662""
","
",,,,,,,,,,,,"[{""stimulus"":""run_exp/static/images/task_images/dig.jpg"",""time"":0.10000002384185791},{""stimulus"":""run_exp/static/images/task_images/land.jpg"",""time"":896.7000000476837},{""stimulus"":""run_exp/static/images/task_images/dig.jpg"",""time"":1788.8999999761581}]",[],12,,,,,,,,,,,,,,
harvest,227,651723,0.0-68.0-1.0,"""event"",""trial"",""time""
""fullscreenenter"",""1"",""3662""
","
","
","""event"",""trial"",""time""
""fullscreenenter"",""1"",""3662""
","
",,null,run_exp/static/images/task_images/gems/18.jpg,null,,,,,,,4,,,12,,,,,18,0.243058953,0.222222222,,,,,,,
decision,228,652870,0.0-68.0-2.0,"""event"",""trial"",""time""
""fullscreenenter"",""1"",""3662""
","
","
","""event"",""trial"",""time""
""fullscreenenter"",""1"",""3662""
","
",,1146.1,run_exp/static/images/task_images/land.jpg,76,,,,,,,4,,,12,,,,,,,,36262,2,1,TRUE,,,
travel,229,661728,0.0-69.0-0.0,"""event"",""trial"",""time""
""fullscreenenter"",""1"",""3662""
","
","
","""event"",""trial"",""time""
""fullscreenenter"",""1"",""3662""
","
",,,,,,,,,,,,"[{""stimulus"":""run_exp/static/images/task_images/rocket-01.jpg"",""time"":0.10000002384185791},{""stimulus"":""run_exp/static/images/task_images/rocket-02.jpg"",""time"":993.8999999761581},{""stimulus"":""run_exp/static/images/task_images/rocket-03.jpg"",""time"":1975.1999999284744},{""stimulus"":""run_exp/static/images/task_images/rocket-04.jpg"",""time"":2954.6999999284744},{""stimulus"":""run_exp/static/images/task_images/rocket-05.jpg"",""time"":3936.2999999523163},{""stimulus"":""run_exp/static/images/task_images/rocket-06.jpg"",""time"":4921.5},{""stimulus"":""run_exp/static/images/task_images/rocket-07.jpg"",""time"":5902.399999976158},{""stimulus"":""run_exp/static/images/task_images/rocket-08.jpg"",""time"":6891.100000023842},{""stimulus"":""run_exp/static/images/task_images/rocket-09.jpg"",""time"":7873.899999976158}]",[],12,,,,,,,,,,,,,,
alien_welcome,230,666737,0.0-69.0-1.0,"""event"",""trial"",""time""
""fullscreenenter"",""1"",""3662""
","
","
","""event"",""trial"",""time""
""fullscreenenter"",""1"",""3662""
","
",,null,run_exp/static/images/task_images/aliens/old_aliens/planet/alien_planet-77.jpg,null,,,,,,,,,,,,,77,"63,68,37,28,76,15,59,39,66,11,5,35,77,23,47,50,43,4,79,7,49,78,56,19,57,69,33,30,34,62,26,13,51,12,53,17,40,36,60,46,44,54,8",,,,,,,,,,
land,231,667245,0.0-69.0-2.0,"""event"",""trial"",""time""
""fullscreenenter"",""1"",""3662""
","
","
","""event"",""trial"",""time""
""fullscreenenter"",""1"",""3662""
","
",,null,run_exp/static/images/task_images/land.jpg,null,,,,,,,103,,,13,,,,,,,,,,,,,,
dig,232,669258,0.0-69.0-3.0,"""event"",""trial"",""time""
""fullscreenenter"",""1"",""3662""
","
","
","""event"",""trial"",""time""
""fullscreenenter"",""1"",""3662""
","
",,,,,,,,,,,,"[{""stimulus"":""run_exp/static/images/task_images/dig.jpg"",""time"":0.3999999761581421},{""stimulus"":""run_exp/static/images/task_images/land.jpg"",""time"":673.5999999046326},{""stimulus"":""run_exp/static/images/task_images/dig.jpg"",""time"":1338.3999999761581}]",[],13,,,,,,,,,,,,,,
harvest,233,670269,0.0-69.0-4.0,"""event"",""trial"",""time""
""fullscreenenter"",""1"",""3662""
","
","
","""event"",""trial"",""time""
""fullscreenenter"",""1"",""3662""
","
",,null,run_exp/static/images/task_images/gems/103.jpg,null,,,,,,,29,,,13,,,,,103,0.277550345,0.281553398,,,,,,,
decision,234,671508,0.0-69.0-5.0,"""event"",""trial"",""time""
""fullscreenenter"",""1"",""3662""
","
","
","""event"",""trial"",""time""
""fullscreenenter"",""1"",""3662""
","
",,1238,run_exp/static/images/task_images/land.jpg,65,,,,,,,29,,,13,,,,,,,,54899,2,0,FALSE,,,
dig,235,673281,0.0-70.0-0.0,"""event"",""trial"",""time""
""fullscreenenter"",""1"",""3662""
","
","
","""event"",""trial"",""time""
""fullscreenenter"",""1"",""3662""
","
",,,,,,,,,,,,"[{""stimulus"":""run_exp/static/images/task_images/dig.jpg"",""time"":0.10000002384185791},{""stimulus"":""run_exp/static/images/task_images/land.jpg"",""time"":596.5},{""stimulus"":""run_exp/static/images/task_images/dig.jpg"",""time"":1177.5}]",[],13,,,,,,,,,,,,,,
harvest,236,674288,0.0-70.0-1.0,"""event"",""trial"",""time""
""fullscreenenter"",""1"",""3662""
","
","
","""event"",""trial"",""time""
""fullscreenenter"",""1"",""3662""
","
",,null,run_exp/static/images/task_images/gems/29.jpg,null,,,,,,,4,,,13,,,,,29,0.140548042,0.137931034,,,,,,,
decision,237,674950,0.0-70.0-2.0,"""event"",""trial"",""time""
""fullscreenenter"",""1"",""3662""
","
","
","""event"",""trial"",""time""
""fullscreenenter"",""1"",""3662""
","
",,660.6999999,run_exp/static/images/task_images/land.jpg,65,,,,,,,4,,,13,,,,,,,,58341,2,1,FALSE,,,
dig,238,677300,0.0-71.0-0.0,"""event"",""trial"",""time""
""fullscreenenter"",""1"",""3662""
","
","
","""event"",""trial"",""time""
""fullscreenenter"",""1"",""3662""
","
",,,,,,,,,,,,"[{""stimulus"":""run_exp/static/images/task_images/dig.jpg"",""time"":0.20000004768371582},{""stimulus"":""run_exp/static/images/task_images/land.jpg"",""time"":784.9000000953674},{""stimulus"":""run_exp/static/images/task_images/dig.jpg"",""time"":1567}]",[],13,,,,,,,,,,,,,,
harvest,239,678304,0.0-71.0-1.0,"""event"",""trial"",""time""
""fullscreenenter"",""1"",""3662""
","
","
","""event"",""trial"",""time""
""fullscreenenter"",""1"",""3662""
","
",,null,run_exp/static/images/task_images/gems/4.jpg,null,,,,,,,1,,,13,,,,,4,0.295560569,0.25,,,,,,,
decision,240,678569,0.0-71.0-2.0,"""event"",""trial"",""time""
""fullscreenenter"",""1"",""3662""
","
","
","""event"",""trial"",""time""
""fullscreenenter"",""1"",""3662""
","
",,263,run_exp/static/images/task_images/land.jpg,76,,,,,,,1,,,13,,,,,,,,61960,2,2,TRUE,,,
travel,241,688307,0.0-72.0-0.0,"""event"",""trial"",""time""
""fullscreenenter"",""1"",""3662""
","
","
","""event"",""trial"",""time""
""fullscreenenter"",""1"",""3662""
","
",,,,,,,,,,,,"[{""stimulus"":""run_exp/static/images/task_images/rocket-01.jpg"",""time"":0.19999992847442627},{""stimulus"":""run_exp/static/images/task_images/rocket-02.jpg"",""time"":1084.5},{""stimulus"":""run_exp/static/images/task_images/rocket-03.jpg"",""time"":2174.399999976158},{""stimulus"":""run_exp/static/images/task_images/rocket-04.jpg"",""time"":3249.5},{""stimulus"":""run_exp/static/images/task_images/rocket-05.jpg"",""time"":4334.5},{""stimulus"":""run_exp/static/images/task_images/rocket-06.jpg"",""time"":5414.5},{""stimulus"":""run_exp/static/images/task_images/rocket-07.jpg"",""time"":6495},{""stimulus"":""run_exp/static/images/task_images/rocket-08.jpg"",""time"":7572.299999952316},{""stimulus"":""run_exp/static/images/task_images/rocket-09.jpg"",""time"":8654.399999976158}]",[],13,,,,,,,,,,,,,,
alien_welcome,242,693316,0.0-72.0-1.0,"""event"",""trial"",""time""
""fullscreenenter"",""1"",""3662""
","
","
","""event"",""trial"",""time""
""fullscreenenter"",""1"",""3662""
","
