trial_type,trial_index,time_elapsed,internal_node_id,success,rt,stimulus,key_press,prompt,subject_id,age,gender,button_pressed,next_reward,animation_sequence,responses,planet,curr_prac_trial,n_prac_rounds,alien,aliens,reward_received,decay_rate_actual,decay_rate_exp,time_in_block,block_num,prt,last_trial_on_planet,button_html,bonus,num_failures
pavlovia,0,13,0.0-0.0,,,,,,,,,,,,,,,,,,,,,,,,,,,
fullscreen,1,3698,0.0-1.0,TRUE,,,,,,,,,,,,,,,,,,,,,,,,,,
instruc_welcome,2,13399,0.0-2.0,,null,run_exp/static/audio/clip_1_welcome.m4a,null,"<p>Howdy! In this experiment, you’ll be an explorer traveling through space to collect space treasure.</p><p>Your mission is to collect as much treasure as possible.</p><br><br><p><img src='run_exp/static/images/task_images/opening_img-01.jpg' height='300' width='auto'></p>",ScZlWtJmDLGDRVe_a5Ke5UddwllDBGZ_MLRP_b1mmhmIML3sKmZU,10.83,female,,,,,,,,,,,,,,,,,,,
audio-keyboard-response,3,29977,0.0-3.0,,null,run_exp/static/audio/clip_2_move.m4a,null,,,,,,,,,,,,,,,,,,,,,,,
welcome_dec,4,31285,0.0-4.0,,1305.965,"<p>Howdy! In this experiment, you’ll be an explorer traveling through space to collect space treasure.</p><p>Your mission is to collect as much treasure as possible.</p><br><br><p><img src='run_exp/static/images/task_images/opening_img-01.jpg' height='300' width='auto'></p>",,,,,,1,,,,,,,,,,,,,,,,,,
html-keyboard-response,5,34074,0.0-5.0,,2786.43,"<p>Howdy! In this experiment, you’ll be an explorer traveling through space to collect space treasure.</p><p>Your mission is to collect as much treasure as possible.</p><br><br><p><img src='run_exp/static/images/task_images/opening_img-01.jpg' height='300' width='auto'></p><button class=""jspsych-html-btn-unchosen""><img src=""run_exp/static/images/task_images/planet-01.jpg"" height=""50""></button><button class=""jspsych-html-btn-chosen""><img src=""run_exp/static/images/task_images/planet-02.jpg"" height=""50""></button><p><b>[press the space bar to lock in your answer]<b><br></p>",32,,,,,,,,,,,,,,,,,,,,,,,
instruc_goal,6,44117,0.0-6.0-0.0,,null,run_exp/static/audio/clip_3_goal.m4a,null,"<p> As a space explorer, you’ll visit different planets to dig for space treasure, these pink gems.</p> <p> The more treasure you dig up, the more bonus money you’ll win! </p><br><br><p><img src='run_exp/static/images/task_images/pink_gem.jpg' height='300' width='auto'></p>",,,,,,,,,,,,,,,,,,,,,,
instruc_goal,7,47924,0.0-6.0-1.0,,3804.93,"<p> As a space explorer, you’ll visit different planets to dig for space treasure, these pink gems.</p> <p> The more treasure you dig up, the more bonus money you’ll win! </p><br><br><p><img src='run_exp/static/images/task_images/pink_gem.jpg' height='300' width='auto'></p>",,,,,,1,,,,,,,,,,,,,,,,,,
html-keyboard-response,8,49430,0.0-6.0-2.0,,1505.1,"<p> As a space explorer, you’ll visit different planets to dig for space treasure, these pink gems.</p> <p> The more treasure you dig up, the more bonus money you’ll win! </p><br><br><p><img src='run_exp/static/images/task_images/pink_gem.jpg' height='300' width='auto'></p><button class=""jspsych-html-btn-unchosen""><img src=""run_exp/static/images/task_images/planet-01.jpg"" height=""50""></button><button class=""jspsych-html-btn-chosen""><img src=""run_exp/static/images/task_images/planet-02.jpg"" height=""50""></button><p><b>[press the space bar to lock in your answer]<b><br></p>",32,,,,,,,,,,,,,,,,,,,,,,,
instruc_dig,9,65456,0.0-7.0-0.0,,null,run_exp/static/audio/clip_4_dig.m4a,null,,,,,,100,,,,,,,,,,,,,,,,,
instruc_dig_try,10,65620,0.0-7.0-1.0,,162.875,"<p> When you’ve arrived at a new planet, you will dig once. </p> <p>Then, you get to decide if you want to stay on the planet and dig again or travel to a new planet and dig there.</p> <p> To stay and dig, press the letter <strong>‘A’</strong> on your keyboard. Try pressing it now! </p><p><img src='run_exp/static/images/task_images/land.jpg'  height='700' width='auto'></p>",65,"<p> When you’ve arrived at a new planet, you will dig once. </p> <p>Then, you get to decide if you want to stay on the planet and dig again or travel to a new planet and dig there.</p> <p> To stay and dig, press the letter <strong>‘A’</strong> on your keyboard. Try pressing it now! </p><p><img src='run_exp/static/images/task_images/land.jpg'  height='700' width='auto'></p>",,,,,100,,,,,,,,,,,,,,,,,
dig_prac,11,67628,0.0-7.0-2.0,,,,,,,,,,,"[{""stimulus"":""run_exp/static/images/task_images/dig.jpg"",""time"":0.2700000004551839},{""stimulus"":""run_exp/static/images/task_images/land.jpg"",""time"":671.4400000000896},{""stimulus"":""run_exp/static/images/task_images/dig.jpg"",""time"":1340.1899999999005}]",[],,,,,,,,,,,,,,,
instruc_travel,12,103901,0.0-7.0-3.0,,null,run_exp/static/audio/clip_5_travel.m4a,null,"<p>Every time you dig up gems, there are less gems on the planet, so the more you dig on a planet the fewer gems you’ll get with each dig.</p><p>When gems are running low, you may want to travel to a new planet. </p> <p>  Planets are very far apart in this galaxy, so it will take some time to travel between them. </p> <br><p>There are lots and lots of planets for you to visit, so you won’t be able to return to any planets you’ve seen before. </p><br><p>To leave this planet and travel to a new one, press the letter <strong>‘L’</strong> on your keyboard. Try pressing it now! </p><p><img src='run_exp/static/images/task_images/rocket-01.jpg'  height='600' width='auto'></p>",,,,,,,,,,,,,,,,,,,,,,
instruc_travel_try,13,105514,0.0-7.0-4.0,,1611.66,"<p>Every time you dig up gems, there are less gems on the planet, so the more you dig on a planet the fewer gems you’ll get with each dig.</p><p>When gems are running low, you may want to travel to a new planet. </p> <p>  Planets are very far apart in this galaxy, so it will take some time to travel between them. </p> <br><p>There are lots and lots of planets for you to visit, so you won’t be able to return to any planets you’ve seen before. </p><br><p>To leave this planet and travel to a new one, press the letter <strong>‘L’</strong> on your keyboard. Try pressing it now! </p><p><img src='run_exp/static/images/task_images/rocket-01.jpg'  height='600' width='auto'></p>",76,"<p>Every time you dig up gems, there are less gems on the planet, so the more you dig on a planet the fewer gems you’ll get with each dig.</p><p>When gems are running low, you may want to travel to a new planet. </p> <p>  Planets are very far apart in this galaxy, so it will take some time to travel between them. </p> <br><p>There are lots and lots of planets for you to visit, so you won’t be able to return to any planets you’ve seen before. </p><br><p>To leave this planet and travel to a new one, press the letter <strong>‘L’</strong> on your keyboard. Try pressing it now! </p><p><img src='run_exp/static/images/task_images/rocket-01.jpg'  height='600' width='auto'></p>",,,,,,,,,,,,,,,,,,,,,,
travel_prac,14,115519,0.0-7.0-5.0,,,,,,,,,,,"[{""stimulus"":""run_exp/static/images/task_images/rocket-01.jpg"",""time"":0.20500000027823262},{""stimulus"":""run_exp/static/images/task_images/rocket-02.jpg"",""time"":1114.900000000489},{""stimulus"":""run_exp/static/images/task_images/rocket-03.jpg"",""time"":2225.8149999997695},{""stimulus"":""run_exp/static/images/task_images/rocket-04.jpg"",""time"":3338.4100000002945},{""stimulus"":""run_exp/static/images/task_images/rocket-05.jpg"",""time"":4446.750000000058},{""stimulus"":""run_exp/static/images/task_images/rocket-06.jpg"",""time"":5560.795000000333},{""stimulus"":""run_exp/static/images/task_images/rocket-07.jpg"",""time"":6667.030000000523},{""stimulus"":""run_exp/static/images/task_images/rocket-08.jpg"",""time"":7781.270000000397},{""stimulus"":""run_exp/static/images/task_images/rocket-09.jpg"",""time"":8893.509999999864}]",[],0,,,,,,,,,,,,,,
instruc_alien_greet,15,142700,0.0-7.0-6.0,,null,run_exp/static/audio/clip_6_alien.m4a,null,"<p>When you arrive at a new planet, the alien who owns the treasure mine on that planet will greet you!</p><p>The better an alien takes care of their mine the easier it is to dig for gems. Some aliens take better care of their mine than others. So, you won’t get exactly the same amount of gems on each planet.</p><p>What the alien looks like does not tell you anything about how many gems there are on the planet.</p><br><p><img src=""run_exp/static/images/task_images/aliens/instructions_aliens/planet/alien_planet-1.jpg""  height=""600"" width=""auto""></p>",,,,,,,,,,,,,,,,,,,,,,
instruc_alien_greet,16,144948,0.0-7.0-7.0,,2246.24,"<p>When you arrive at a new planet, the alien who owns the treasure mine on that planet will greet you!</p><p>The better an alien takes care of their mine the easier it is to dig for gems. Some aliens take better care of their mine than others. So, you won’t get exactly the same amount of gems on each planet.</p><p>What the alien looks like does not tell you anything about how many gems there are on the planet.</p><br><p><img src=""run_exp/static/images/task_images/aliens/instructions_aliens/planet/alien_planet-1.jpg""  height=""600"" width=""auto""></p>",,,,,,1,,,,,,,,,,,,,,,,,,
html-keyboard-response,17,146578,0.0-7.0-8.0,,1629.14,"<p>When you arrive at a new planet, the alien who owns the treasure mine on that planet will greet you!</p><p>The better an alien takes care of their mine the easier it is to dig for gems. Some aliens take better care of their mine than others. So, you won’t get exactly the same amount of gems on each planet.</p><p>What the alien looks like does not tell you anything about how many gems there are on the planet.</p><br><p><img src=""run_exp/static/images/task_images/aliens/instructions_aliens/planet/alien_planet-1.jpg""  height=""600"" width=""auto""></p><button class=""jspsych-html-btn-unchosen""><img src=""run_exp/static/images/task_images/planet-01.jpg"" height=""50""></button><button class=""jspsych-html-btn-chosen""><img src=""run_exp/static/images/task_images/planet-02.jpg"" height=""50""></button><p><b>[press the space bar to lock in your answer]<b><br></p>",32,,,,,,,,,,,,,,,,,,,,,,,
time_out,18,157653,0.0-8.0-0.0,,null,run_exp/static/audio/clip_7_timeout.m4a,null,"<p>If you don't make your choice fast enough, you’ll have to wait a few seconds before you can make another one.</p><p>You can’t dig for more gems or travel to new planets. You just have to sit and wait.</p><br><p><img src='run_exp/static/images/task_images/time_out.jpg'  height='600' width='auto'></p>",,,,,,,,,,,,,,,,,,,,,,
time_out,19,159562,0.0-8.0-1.0,,1907.33,"<p>If you don't make your choice fast enough, you’ll have to wait a few seconds before you can make another one.</p><p>You can’t dig for more gems or travel to new planets. You just have to sit and wait.</p><br><p><img src='run_exp/static/images/task_images/time_out.jpg'  height='600' width='auto'></p>",,,,,,1,,,,,,,,,,,,,,,,,,
html-keyboard-response,20,160663,0.0-8.0-2.0,,1099.485,"<p>If you don't make your choice fast enough, you’ll have to wait a few seconds before you can make another one.</p><p>You can’t dig for more gems or travel to new planets. You just have to sit and wait.</p><br><p><img src='run_exp/static/images/task_images/time_out.jpg'  height='600' width='auto'></p><button class=""jspsych-html-btn-unchosen""><img src=""run_exp/static/images/task_images/planet-01.jpg"" height=""50""></button><button class=""jspsych-html-btn-chosen""><img src=""run_exp/static/images/task_images/planet-02.jpg"" height=""50""></button><p><b>[press the space bar to lock in your answer]<b><br></p>",32,,,,,,,,,,,,,,,,,,,,,,,
instruc_break,21,176321,0.0-9.0-0.0,,null,run_exp/static/audio/clip_8_break.m4a,null,"<p> After digging and traveling for a while, you’ll be able to take a break at home base. </p><p>The game will last 20 minutes no matter what.</p><p>You will visit home base every 5 minutes, so, you will visit home base three times during the game.</p><br><p><img src='run_exp/static/images/task_images/home_base.jpg' height='600' width='auto'></p>",,,,,,,,,,,,,,,,,,,,,,
instruc_break,22,178541,0.0-9.0-1.0,,2218.66,"<p> After digging and traveling for a while, you’ll be able to take a break at home base. </p><p>The game will last 20 minutes no matter what.</p><p>You will visit home base every 5 minutes, so, you will visit home base three times during the game.</p><br><p><img src='run_exp/static/images/task_images/home_base.jpg' height='600' width='auto'></p>",,,,,,1,,,,,,,,,,,,,,,,,,
html-keyboard-response,23,179474,0.0-9.0-2.0,,931.745,"<p> After digging and traveling for a while, you’ll be able to take a break at home base. </p><p>The game will last 20 minutes no matter what.</p><p>You will visit home base every 5 minutes, so, you will visit home base three times during the game.</p><br><p><img src='run_exp/static/images/task_images/home_base.jpg' height='600' width='auto'></p><button class=""jspsych-html-btn-unchosen""><img src=""run_exp/static/images/task_images/planet-01.jpg"" height=""50""></button><button class=""jspsych-html-btn-chosen""><img src=""run_exp/static/images/task_images/planet-02.jpg"" height=""50""></button><p><b>[press the space bar to lock in your answer]<b><br></p>",32,,,,,,,,,,,,,,,,,,,,,,,
instruc_prac_game,24,189602,0.0-10.0-0.0,,null,run_exp/static/audio/clip_9_practice.m4a,null,"<p> Are you ready to play a practice game? </p> <p>In this practice game, you'll be digging up barrels of gems. But, in the real game, you'll be digging up the gems themselves. </p>",,,,,,,,,,,,,,,,,,,,,,
html-button-response,25,192368,0.0-10.0-1.0,,2764.885,"<p> Are you ready to play a practice game? </p> <p>In this practice game, you'll be digging up barrels of gems. But, in the real game, you'll be digging up the gems themselves. </p>",,,,,,0,,,,,,,,,,,,,,,,,,
alien_welcome_prac,26,197381,0.0-11.0-0.0,,null,run_exp/static/images/task_images/aliens/practice_aliens/planet/alien_planet-5.jpg,null,,,,,,,,,,,,,,,,,,,,,,,
land_prac,27,197884,0.0-11.0-1.0,,null,run_exp/static/images/task_images/land.jpg,null,,,,,,91,,,0,,,,,,,,,,,,,,
dig_prac,28,199890,0.0-11.0-2.0,,,,,,,,,,,"[{""stimulus"":""run_exp/static/images/task_images/dig.jpg"",""time"":0.19999999948777258},{""stimulus"":""run_exp/static/images/task_images/land.jpg"",""time"":668.6349999999802},{""stimulus"":""run_exp/static/images/task_images/dig.jpg"",""time"":1336.1549999999697}]",[],,,,,,,,,,,,,,,
harvest_prac,29,200893,0.0-11.0-3.0,,null,run_exp/static/images/task_images/barrel_text.jpg,null,,,,,,,,,,,,,,,,,,,,,,,
decision_prac,30,201716,0.0-11.0-4.0,,821.445,run_exp/static/images/task_images/land.jpg,65,,,,,,,,,,1,,,,,,,,,,,,,
dig_prac,31,203722,0.0-12.0-0.0,,,,,,,,,,,"[{""stimulus"":""run_exp/static/images/task_images/dig.jpg"",""time"":0.14999999984866008},{""stimulus"":""run_exp/static/images/task_images/land.jpg"",""time"":668.0500000002212},{""stimulus"":""run_exp/static/images/task_images/dig.jpg"",""time"":1337.7049999998999}]",[],,,,,,,,,,,,,,,
harvest_prac,32,204724,0.0-12.0-1.0,,null,run_exp/static/images/task_images/barrel_text.jpg,null,,,,,,,,,,,,,,,,,,,,,,,
decision_prac,33,205181,0.0-12.0-2.0,,456.09,run_exp/static/images/task_images/land.jpg,65,,,,,,,,,,2,,,,,,,,,,,,,
dig_prac,34,207186,0.0-13.0-0.0,,,,,,,,,,,"[{""stimulus"":""run_exp/static/images/task_images/dig.jpg"",""time"":0.17000000024563633},{""stimulus"":""run_exp/static/images/task_images/land.jpg"",""time"":672.1699999998091},{""stimulus"":""run_exp/static/images/task_images/dig.jpg"",""time"":1340.0449999998964}]",[],,,,,,,,,,,,,,,
harvest_prac,35,208189,0.0-13.0-1.0,,null,run_exp/static/images/task_images/barrel_text.jpg,null,,,,,,,,,,,,,,,,,,,,,,,
decision_prac,36,208691,0.0-13.0-2.0,,500.635,run_exp/static/images/task_images/land.jpg,65,,,,,,,,,,3,,,,,,,,,,,,,
dig_prac,37,210698,0.0-14.0-0.0,,,,,,,,,,,"[{""stimulus"":""run_exp/static/images/task_images/dig.jpg"",""time"":0.15499999973690137},{""stimulus"":""run_exp/static/images/task_images/land.jpg"",""time"":670.5649999994494},{""stimulus"":""run_exp/static/images/task_images/dig.jpg"",""time"":1336.924999999639}]",[],,,,,,,,,,,,,,,
harvest_prac,38,211699,0.0-14.0-1.0,,null,run_exp/static/images/task_images/barrel_text.jpg,null,,,,,,,,,,,,,,,,,,,,,,,
decision_prac,39,212078,0.0-14.0-2.0,,377.185,run_exp/static/images/task_images/land.jpg,65,,,,,,,,,,4,,,,,,,,,,,,,
dig_prac,40,214082,0.0-15.0-0.0,,,,,,,,,,,"[{""stimulus"":""run_exp/static/images/task_images/dig.jpg"",""time"":0.1449999999604188},{""stimulus"":""run_exp/static/images/task_images/land.jpg"",""time"":671.9999999995634},{""stimulus"":""run_exp/static/images/task_images/dig.jpg"",""time"":1339.965000000113}]",[],,,,,,,,,,,,,,,
harvest_prac,41,215084,0.0-15.0-1.0,,null,run_exp/static/images/task_images/barrel_text.jpg,null,,,,,,,,,,,,,,,,,,,,,,,
decision_prac,42,215734,0.0-15.0-2.0,,649.435,run_exp/static/images/task_images/land.jpg,65,,,,,,,,,,,1,,,,,,,,,,,,
quiz_instruc,43,220450,0.0-16.0-0.0,,4712.92,run_exp/static/audio/clip_10_quiz.m4a,,,,,,0,,,,,,,,,,,,,,,,,,
instruc_repeat,44,263207,0.0-16.0-1.0,,null,"<p> Are you ready to play a practice game? </p> <p>In this practice game, you'll be digging up barrels of gems. But, in the real game, you'll be digging up the gems themselves. </p>",null,"<p>In this game, your goal is to collect as many gems as you can. That’s how you will win bonus money. </p> <p>The entire game will last 20 minutes no matter how many gems you collect or how many planets you visit. </p><p>To stay on a planet and dig again, press the letter A on your keyboard. To leave for a new planet, press the letter L.</p><p>The more you dig on a planet, the fewer gems you’ll get with each dig which is why you might consider leaving for a new planet. </p><p>When you arrive at a new planet, you’ll be greeted by an alien. What the alien looks like does not tell you anything about how much treasure is on the planet. </p>",,,,,,,,,,,,,,,,,,,,,,
instruc_repeat_continue,45,264113,0.0-16.0-2.0,,904.145,"<p> Are you ready to play a practice game? </p> <p>In this practice game, you'll be digging up barrels of gems. But, in the real game, you'll be digging up the gems themselves. </p>",,,,,,0,,,,,,,,,,,,,,,,,,
quiz_q_1_ask,46,270312,0.0-16.0-3.0,,6197.56,run_exp/static/audio/clip_11_q1_ask.m4a,,,,,,2,,,,,,,,,,,,,,,,,,
quiz_q_1_fb_correct,47,274166,0.0-17.0-0.0,,null,run_exp/static/audio/clip_12_q1_corrrect.m4a,null,<p>That’s correct. You win extra money by collecting more gems.</p>,,,,,,,,,,,,,,,,,,,,,,
quiz_q_2_ask,48,277523,0.0-17.0-1.0,,3355.085,run_exp/static/audio/clip_14_q2_ask.m4a,,,,,,1,,,,,,,,,,,,,,,,,,
quiz_q_2_fb_correct,49,281481,0.0-18.0-0.0,,null,run_exp/static/audio/clip_15_q2_correct.m4a,null,<p>That’s correct. The experiment is 20 minutes no matter what.</p>,,,,,,,,,,,,,,,,,,,,,,
quiz_q_3_ask,50,284150,0.0-18.0-1.0,,2667.655,run_exp/static/audio/clip_17_q3_ask.m4a,,,,,,1,,,,,,,,,,,,,,,,,,
quiz_q_3_fb_correct,51,288121,0.0-19.0-0.0,,null,run_exp/static/audio/clip_18_q3_correct.m4a,null,<p> That’s correct. You press the letter L to travel to a new planet.</p>,,,,,,,,,,,,,,,,,,,,,,
quiz_q_4_ask,52,290551,0.0-19.0-1.0,,2428.7,run_exp/static/audio/clip_20_q4_ask.m4a,,,,,,0,,,,,,,,,,,,,,,,,,
quiz_q_4_fb_correct,53,295877,0.0-20.0-0.0,,null,run_exp/static/audio/clip_21_q4_correct.m4a,null,<p> That’s correct. The more you dig on a planet the fewer gems you’ll get with each dig. </p>,,,,,,,,,,,,,,,,,,,,,,
quiz_q_5_ask,54,298381,0.0-20.0-1.0,,2503.115,run_exp/static/audio/clip_23_q5_ask.m4a,,,,,,1,,,,,,,,,,,,,,,,,,
quiz_q_5_fb_correct,55,303376,0.0-21.0-0.0,,null,run_exp/static/audio/clip_24_q5_correct.m4a,null,<p> That’s correct. The alien tells you nothing about how much treasure is on the planet.</p>,,,,,,,,,,,,,,,,,,,,,,
quiz_correct,56,306837,0.0-22.0-0.0,,null,run_exp/static/audio/clip_26_correct_quiz.m4a,null,,,,,,,,,,,,,,,,,,,,,,,
quiz_correct_continue,57,307719,0.0-22.0-1.0,,881.84,<p>Good job! You're now ready to move on to the real game!</p>,,,,,,0,,,,,,,,,,,,,,,,,,
audio-keyboard-response,58,317841,0.0-22.0-2.0,,null,run_exp/static/audio/clip_28_real_game.m4a,null,,,,,,,,,,,,,,,,,,,,,,,
instruc_begin_exp_contine,59,319375,0.0-22.0-3.0,,1532.225,"<p>Now that you know how  to dig for space treasure and travel to new planets,you can start exploring! </p><p>Do you want to go over the instructions again or get started with the real game?</p>",,,,,,1,,,,,,1,,,,,,,,,,,,
alien_welcome,60,324378,0.0-23.0-0.0,,null,run_exp/static/images/task_images/aliens/old_aliens/planet/alien_planet-48.jpg,null,,,,,,,,,,,,48,"48,40,13,17,33,21,38,45,26,4,23,27,19,9,53,58,29,42,78,80,35,30,41,57,36,73,69,6,59,60,61,74,15,12,16,20,44,67,52,2,14,18,75,51,50,37,47",,,,,,,,,,
land,61,324880,0.0-23.0-1.0,,null,run_exp/static/images/task_images/land.jpg,null,,,,,,103,,,1,,,,,,,,,,,,,,
dig,62,326886,0.0-23.0-2.0,,,,,,,,,,,"[{""stimulus"":""run_exp/static/images/task_images/dig.jpg"",""time"":0.21000000019557774},{""stimulus"":""run_exp/static/images/task_images/land.jpg"",""time"":672.2249999993364},{""stimulus"":""run_exp/static/images/task_images/dig.jpg"",""time"":1337.594999999972}]",[],1,,,,,,,,,,,,,,
harvest,63,327890,0.0-23.0-3.0,,null,run_exp/static/images/task_images/gems/103.jpg,null,,,,,,20,,,1,,,,,103,0.191950833,0.194174757,,,,,,,
decision,64,329510,0.0-23.0-4.0,,1618.725,run_exp/static/images/task_images/land.jpg,65,,,,,,20,,,1,,,,,,,,10134,1,0,FALSE,,,
dig,65,330894,0.0-24.0-0.0,,,,,,,,,,,"[{""stimulus"":""run_exp/static/images/task_images/dig.jpg"",""time"":0.16500000038649887},{""stimulus"":""run_exp/static/images/task_images/land.jpg"",""time"":461.28500000032363},{""stimulus"":""run_exp/static/images/task_images/dig.jpg"",""time"":925.6600000007893}]",[],1,,,,,,,,,,,,,,
harvest,66,331899,0.0-24.0-1.0,,null,run_exp/static/images/task_images/gems/20.jpg,null,,,,,,4,,,1,,,,,20,0.197893559,0.2,,,,,,,
decision,67,332615,0.0-24.0-2.0,,714.735,run_exp/static/images/task_images/land.jpg,76,,,,,,4,,,1,,,,,,,,13238,1,1,TRUE,,,
travel,68,341899,0.0-25.0-0.0,,,,,,,,,,,"[{""stimulus"":""run_exp/static/images/task_images/rocket-01.jpg"",""time"":0.17000000027474016},{""stimulus"":""run_exp/static/images/task_images/rocket-02.jpg"",""time"":1036.350000000326},{""stimulus"":""run_exp/static/images/task_images/rocket-03.jpg"",""time"":2064.515000000014},{""stimulus"":""run_exp/static/images/task_images/rocket-04.jpg"",""time"":3097.33500000037},{""stimulus"":""run_exp/static/images/task_images/rocket-05.jpg"",""time"":4127.750000000582},{""stimulus"":""run_exp/static/images/task_images/rocket-06.jpg"",""time"":5156.614999999874},{""stimulus"":""run_exp/static/images/task_images/rocket-07.jpg"",""time"":6191.394999999844},{""stimulus"":""run_exp/static/images/task_images/rocket-08.jpg"",""time"":7221.650000000431},{""stimulus"":""run_exp/static/images/task_images/rocket-09.jpg"",""time"":8252.545000000275}]",[],1,,,,,,,,,,,,,,
alien_welcome,69,346904,0.0-25.0-1.0,,null,run_exp/static/images/task_images/aliens/old_aliens/planet/alien_planet-40.jpg,null,,,,,,,,,,,,40,"48,40,13,17,33,21,38,45,26,4,23,27,19,9,53,58,29,42,78,80,35,30,41,57,36,73,69,6,59,60,61,74,15,12,16,20,44,67,52,2,14,18,75,51,50,37,47",,,,,,,,,,
land,70,347406,0.0-25.0-2.0,,null,run_exp/static/images/task_images/land.jpg,null,,,,,,102,,,2,,,,,,,,,,,,,,
dig,71,349414,0.0-25.0-3.0,,,,,,,,,,,"[{""stimulus"":""run_exp/static/images/task_images/dig.jpg"",""time"":0.20000000041909516},{""stimulus"":""run_exp/static/images/task_images/land.jpg"",""time"":668.8050000002258},{""stimulus"":""run_exp/static/images/task_images/dig.jpg"",""time"":1339.184999999823}]",[],2,,,,,,,,,,,,,,
harvest,72,350415,0.0-25.0-4.0,,null,run_exp/static/images/task_images/gems/102.jpg,null,,,,,,10,,,2,,,,,102,0.099325501,0.098039216,,,,,,,
decision,73,351111,0.0-25.0-5.0,,694.09,run_exp/static/images/task_images/land.jpg,65,,,,,,10,,,2,,,,,,,,31734,1,0,FALSE,,,
dig,74,353419,0.0-26.0-0.0,,,,,,,,,,,"[{""stimulus"":""run_exp/static/images/task_images/dig.jpg"",""time"":0.1750000001047738},{""stimulus"":""run_exp/static/images/task_images/land.jpg"",""time"":771.0349999997416},{""stimulus"":""run_exp/static/images/task_images/dig.jpg"",""time"":1540.4799999996321}]",[],2,,,,,,,,,,,,,,
harvest,75,354420,0.0-26.0-1.0,,null,run_exp/static/images/task_images/gems/10.jpg,null,,,,,,3,,,2,,,,,10,0.258585057,0.3,,,,,,,
decision,76,354936,0.0-26.0-2.0,,514.255,run_exp/static/images/task_images/land.jpg,76,,,,,,3,,,2,,,,,,,,35559,1,1,TRUE,,,
travel,77,364419,0.0-27.0-0.0,,,,,,,,,,,"[{""stimulus"":""run_exp/static/images/task_images/rocket-01.jpg"",""time"":0.1449999999604188},{""stimulus"":""run_exp/static/images/task_images/rocket-02.jpg"",""time"":1055.8799999998882},{""stimulus"":""run_exp/static/images/task_images/rocket-03.jpg"",""time"":2109.4649999995017},{""stimulus"":""run_exp/static/images/task_images/rocket-04.jpg"",""time"":3162.2849999993923},{""stimulus"":""run_exp/static/images/task_images/rocket-05.jpg"",""time"":4216.824999999488},{""stimulus"":""run_exp/static/images/task_images/rocket-06.jpg"",""time"":5266.8749999993015},{""stimulus"":""run_exp/static/images/task_images/rocket-07.jpg"",""time"":6323.439999999187},{""stimulus"":""run_exp/static/images/task_images/rocket-08.jpg"",""time"":7374.894999999902},{""stimulus"":""run_exp/static/images/task_images/rocket-09.jpg"",""time"":8425.414999999688}]",[],2,,,,,,,,,,,,,,
alien_welcome,78,369423,0.0-27.0-1.0,,null,run_exp/static/images/task_images/aliens/old_aliens/planet/alien_planet-13.jpg,null,,,,,,,,,,,,13,"48,40,13,17,33,21,38,45,26,4,23,27,19,9,53,58,29,42,78,80,35,30,41,57,36,73,69,6,59,60,61,74,15,12,16,20,44,67,52,2,14,18,75,51,50,37,47",,,,,,,,,,
land,79,369928,0.0-27.0-2.0,,null,run_exp/static/images/task_images/land.jpg,null,,,,,,113,,,3,,,,,,,,,,,,,,
dig,80,371936,0.0-27.0-3.0,,,,,,,,,,,"[{""stimulus"":""run_exp/static/images/task_images/dig.jpg"",""time"":0.1949999995995313},{""stimulus"":""run_exp/static/images/task_images/land.jpg"",""time"":672.2099999997299},{""stimulus"":""run_exp/static/images/task_images/dig.jpg"",""time"":1339.2199999997974}]",[],3,,,,,,,,,,,,,,
harvest,81,372939,0.0-27.0-4.0,,null,run_exp/static/images/task_images/gems/113.jpg,null,,,,,,54,,,3,,,,,113,0.478061131,0.477876106,,,,,,,
decision,82,374174,0.0-27.0-5.0,,1234.04,run_exp/static/images/task_images/land.jpg,65,,,,,,54,,,3,,,,,,,,54797,1,0,FALSE,,,
dig,83,375942,0.0-28.0-0.0,,,,,,,,,,,"[{""stimulus"":""run_exp/static/images/task_images/dig.jpg"",""time"":0.15499999973690137},{""stimulus"":""run_exp/static/images/task_images/land.jpg"",""time"":589.0250000002561},{""stimulus"":""run_exp/static/images/task_images/dig.jpg"",""time"":1178.8950000000186}]",[],3,,,,,,,,,,,,,,
harvest,84,376946,0.0-28.0-1.0,,null,run_exp/static/images/task_images/gems/54.jpg,null,,,,,,30,,,3,,,,,54,0.558624241,0.555555556,,,,,,,
decision,85,378089,0.0-28.0-2.0,,1142.06,run_exp/static/images/task_images/land.jpg,65,,,,,,30,,,3,,,,,,,,58712,1,1,FALSE,,,
dig,86,379952,0.0-29.0-0.0,,,,,,,,,,,"[{""stimulus"":""run_exp/static/images/task_images/dig.jpg"",""time"":0.15000000077998266},{""stimulus"":""run_exp/static/images/task_images/land.jpg"",""time"":624.2400000001071},{""stimulus"":""run_exp/static/images/task_images/dig.jpg"",""time"":1239.3700000002282}]",[],3,,,,,,,,,,,,,,
harvest,87,380957,0.0-29.0-1.0,,null,run_exp/static/images/task_images/gems/30.jpg,null,,,,,,16,,,3,,,,,30,0.535566601,0.533333333,,,,,,,
decision,88,383959,0.0-29.0-2.0,,null,run_exp/static/images/task_images/land.jpg,null,,,,,,16,,,3,,,,,,,,64582,1,2,FALSE,,,
time_out,89,385964,0.0-30.0-0.0,,null,run_exp/static/images/task_images/time_out.jpg,null,,,,,,16,,,,,,,,,,,,,,,,,
decision,90,388080,0.0-30.0-1.0,,2113.93,run_exp/static/images/task_images/land.jpg,76,,,,,,16,,,3,,,,,,,,68703,1,2,TRUE,,,
travel,91,395968,0.0-31.0-0.0,,,,,,,,,,,"[{""stimulus"":""run_exp/static/images/task_images/rocket-01.jpg"",""time"":0.14500000001862645},{""stimulus"":""run_exp/static/images/task_images/rocket-02.jpg"",""time"":879.4650000000256},{""stimulus"":""run_exp/static/images/task_images/rocket-03.jpg"",""time"":1756.674999999639},{""stimulus"":""run_exp/static/images/task_images/rocket-04.jpg"",""time"":2630.8099999997066},{""stimulus"":""run_exp/static/images/task_images/rocket-05.jpg"",""time"":3509.465000000084},{""stimulus"":""run_exp/static/images/task_images/rocket-06.jpg"",""time"":4381.615000000282},{""stimulus"":""run_exp/static/images/task_images/rocket-07.jpg"",""time"":5257.090000000084},{""stimulus"":""run_exp/static/images/task_images/rocket-08.jpg"",""time"":6137.569999999891},{""stimulus"":""run_exp/static/images/task_images/rocket-09.jpg"",""time"":7009.56499999942}]",[],3,,,,,,,,,,,,,,
alien_welcome,92,400971,0.0-31.0-1.0,,null,run_exp/static/images/task_images/aliens/old_aliens/planet/alien_planet-17.jpg,null,,,,,,,,,,,,17,"48,40,13,17,33,21,38,45,26,4,23,27,19,9,53,58,29,42,78,80,35,30,41,57,36,73,69,6,59,60,61,74,15,12,16,20,44,67,52,2,14,18,75,51,50,37,47",,,,,,,,,,
land,93,401474,0.0-31.0-2.0,,null,run_exp/static/images/task_images/land.jpg,null,,,,,,96,,,4,,,,,,,,,,,,,,
dig,94,403478,0.0-31.0-3.0,,,,,,,,,,,"[{""stimulus"":""run_exp/static/images/task_images/dig.jpg"",""time"":0.18499999988125637},{""stimulus"":""run_exp/static/images/task_images/land.jpg"",""time"":669.5599999993574},{""stimulus"":""run_exp/static/images/task_images/dig.jpg"",""time"":1336.225000000035}]",[],4,,,,,,,,,,,,,,
harvest,95,404482,0.0-31.0-4.0,,null,run_exp/static/images/task_images/gems/96.jpg,null,,,,,,43,,,4,,,,,96,0.450528816,0.447916667,,,,,,,
decision,96,405158,0.0-31.0-5.0,,674.8,run_exp/static/images/task_images/land.jpg,65,,,,,,43,,,4,,,,,,,,85781,1,0,FALSE,,,
dig,97,407490,0.0-32.0-0.0,,,,,,,,,,,"[{""stimulus"":""run_exp/static/images/task_images/dig.jpg"",""time"":0.15499999973690137},{""stimulus"":""run_exp/static/images/task_images/land.jpg"",""time"":778.8149999997113},{""stimulus"":""run_exp/static/images/task_images/dig.jpg"",""time"":1552.9649999999092}]",[],4,,,,,,,,,,,,,,
harvest,98,408495,0.0-32.0-1.0,,null,run_exp/static/images/task_images/gems/43.jpg,null,,,,,,19,,,4,,,,,43,0.444404755,0.441860465,,,,,,,
decision,99,409568,0.0-32.0-2.0,,1071.445,run_exp/static/images/task_images/land.jpg,76,,,,,,19,,,4,,,,,,,,90191,1,1,TRUE,,,
travel,100,418500,0.0-33.0-0.0,,,,,,,,,,,"[{""stimulus"":""run_exp/static/images/task_images/rocket-01.jpg"",""time"":0.1700000002165325},{""stimulus"":""run_exp/static/images/task_images/rocket-02.jpg"",""time"":996.1450000000768},{""stimulus"":""run_exp/static/images/task_images/rocket-03.jpg"",""time"":1988.580000000191},{""stimulus"":""run_exp/static/images/task_images/rocket-04.jpg"",""time"":2981.3899999998976},{""stimulus"":""run_exp/static/images/task_images/rocket-05.jpg"",""time"":3968.9400000006426},{""stimulus"":""run_exp/static/images/task_images/rocket-06.jpg"",""time"":4961.780000000552},{""stimulus"":""run_exp/static/images/task_images/rocket-07.jpg"",""time"":5953.7399999999325},{""stimulus"":""run_exp/static/images/task_images/rocket-08.jpg"",""time"":6946.520000000426},{""stimulus"":""run_exp/static/images/task_images/rocket-09.jpg"",""time"":7939.670000000682}]",[],4,,,,,,,,,,,,,,
alien_welcome,101,423506,0.0-33.0-1.0,,null,run_exp/static/images/task_images/aliens/old_aliens/planet/alien_planet-33.jpg,null,,,,,,,,,,,,33,"48,40,13,17,33,21,38,45,26,4,23,27,19,9,53,58,29,42,78,80,35,30,41,57,36,73,69,6,59,60,61,74,15,12,16,20,44,67,52,2,14,18,75,51,50,37,47",,,,,,,,,,
land,102,424011,0.0-33.0-2.0,,null,run_exp/static/images/task_images/land.jpg,null,,,,,,104,,,5,,,,,,,,,,,,,,
dig,103,426019,0.0-33.0-3.0,,,,,,,,,,,"[{""stimulus"":""run_exp/static/images/task_images/dig.jpg"",""time"":0.18999999976949766},{""stimulus"":""run_exp/static/images/task_images/land.jpg"",""time"":671.2299999999232},{""stimulus"":""run_exp/static/images/task_images/dig.jpg"",""time"":1339.5949999994482}]",[],5,,,,,,,,,,,,,,
harvest,104,427024,0.0-33.0-4.0,,null,run_exp/static/images/task_images/gems/104.jpg,null,,,,,,46,,,5,,,,,104,0.443238843,0.442307692,,,,,,,
decision,105,427557,0.0-33.0-5.0,,531.945,run_exp/static/images/task_images/land.jpg,76,,,,,,46,,,5,,,,,,,,108180,1,0,TRUE,,,
travel,106,437031,0.0-34.0-0.0,,,,,,,,,,,"[{""stimulus"":""run_exp/static/images/task_images/rocket-01.jpg"",""time"":0.20000000041909516},{""stimulus"":""run_exp/static/images/task_images/rocket-02.jpg"",""time"":1057.9600000000792},{""stimulus"":""run_exp/static/images/task_images/rocket-03.jpg"",""time"":2104.9800000000396},{""stimulus"":""run_exp/static/images/task_images/rocket-04.jpg"",""time"":3161.4349999999977},{""stimulus"":""run_exp/static/images/task_images/rocket-05.jpg"",""time"":4209.64999999979},{""stimulus"":""run_exp/static/images/task_images/rocket-06.jpg"",""time"":5262.415000000154},{""stimulus"":""run_exp/static/images/task_images/rocket-07.jpg"",""time"":6313.669999999518},{""stimulus"":""run_exp/static/images/task_images/rocket-08.jpg"",""time"":7367.634999999602},{""stimulus"":""run_exp/static/images/task_images/rocket-09.jpg"",""time"":8419.079999999667}]",[],5,,,,,,,,,,,,,,
alien_welcome,107,442035,0.0-34.0-1.0,,null,run_exp/static/images/task_images/aliens/old_aliens/planet/alien_planet-21.jpg,null,,,,,,,,,,,,21,"48,40,13,17,33,21,38,45,26,4,23,27,19,9,53,58,29,42,78,80,35,30,41,57,36,73,69,6,59,60,61,74,15,12,16,20,44,67,52,2,14,18,75,51,50,37,47",,,,,,,,,,
land,108,442540,0.0-34.0-2.0,,null,run_exp/static/images/task_images/land.jpg,null,,,,,,101,,,6,,,,,,,,,,,,,,
dig,109,444546,0.0-34.0-3.0,,,,,,,,,,,"[{""stimulus"":""run_exp/static/images/task_images/dig.jpg"",""time"":0.1949999995995313},{""stimulus"":""run_exp/static/images/task_images/land.jpg"",""time"":672.1449999994948},{""stimulus"":""run_exp/static/images/task_images/dig.jpg"",""time"":1338.0099999994854}]",[],6,,,,,,,,,,,,,,
harvest,110,445551,0.0-34.0-4.0,,null,run_exp/static/images/task_images/gems/101.jpg,null,,,,,,79,,,6,,,,,101,0.783842954,0.782178218,,,,,,,
decision,111,446470,0.0-34.0-5.0,,917.71,run_exp/static/images/task_images/land.jpg,76,,,,,,79,,,6,,,,,,,,127093,1,0,TRUE,,,
travel,112,455554,0.0-35.0-0.0,,,,,,,,,,,"[{""stimulus"":""run_exp/static/images/task_images/rocket-01.jpg"",""time"":0.1649999994551763},{""stimulus"":""run_exp/static/images/task_images/rocket-02.jpg"",""time"":1010.5400000002119},{""stimulus"":""run_exp/static/images/task_images/rocket-03.jpg"",""time"":2019.0199999997276},{""stimulus"":""run_exp/static/images/task_images/rocket-04.jpg"",""time"":3028.2550000001793},{""stimulus"":""run_exp/static/images/task_images/rocket-05.jpg"",""time"":4038.0449999993434},{""stimulus"":""run_exp/static/images/task_images/rocket-06.jpg"",""time"":5046.1749999994645},{""stimulus"":""run_exp/static/images/task_images/rocket-07.jpg"",""time"":6056.819999999774},{""stimulus"":""run_exp/static/images/task_images/rocket-08.jpg"",""time"":7064.545000000158},{""stimulus"":""run_exp/static/images/task_images/rocket-09.jpg"",""time"":8072.90499999997}]",[],6,,,,,,,,,,,,,,
alien_welcome,113,460558,0.0-35.0-1.0,,null,run_exp/static/images/task_images/aliens/old_aliens/planet/alien_planet-38.jpg,null,,,,,,,,,,,,38,"48,40,13,17,33,21,38,45,26,4,23,27,19,9,53,58,29,42,78,80,35,30,41,57,36,73,69,6,59,60,61,74,15,12,16,20,44,67,52,2,14,18,75,51,50,37,47",,,,,,,,,,
land,114,461063,0.0-35.0-2.0,,null,run_exp/static/images/task_images/land.jpg,null,,,,,,94,,,7,,,,,,,,,,,,,,
dig,115,463066,0.0-35.0-3.0,,,,,,,,,,,"[{""stimulus"":""run_exp/static/images/task_images/dig.jpg"",""time"":0.19499999965773895},{""stimulus"":""run_exp/static/images/task_images/land.jpg"",""time"":670.6649999996298},{""stimulus"":""run_exp/static/images/task_images/dig.jpg"",""time"":1339.0349999999744}]",[],7,,,,,,,,,,,,,,
harvest,116,464067,0.0-35.0-4.0,,null,run_exp/static/images/task_images/gems/94.jpg,null,,,,,,72,,,7,,,,,94,0.761751331,0.765957447,,,,,,,
decision,117,464796,0.0-35.0-5.0,,727.38,run_exp/static/images/task_images/land.jpg,76,,,,,,72,,,7,,,,,,,,145419,1,0,TRUE,,,
travel,118,474070,0.0-36.0-0.0,,,,,,,,,,,"[{""stimulus"":""run_exp/static/images/task_images/rocket-01.jpg"",""time"":0.19999999948777258},{""stimulus"":""run_exp/static/images/task_images/rocket-02.jpg"",""time"":1034.2350000001024},{""stimulus"":""run_exp/static/images/task_images/rocket-03.jpg"",""time"":2065.274999999965},{""stimulus"":""run_exp/static/images/task_images/rocket-04.jpg"",""time"":3093.2899999998044},{""stimulus"":""run_exp/static/images/task_images/rocket-05.jpg"",""time"":4124.154999999562},{""stimulus"":""run_exp/static/images/task_images/rocket-06.jpg"",""time"":5152.779999999446},{""stimulus"":""run_exp/static/images/task_images/rocket-07.jpg"",""time"":6184.615000000165},{""stimulus"":""run_exp/static/images/task_images/rocket-08.jpg"",""time"":7212.4549999999},{""stimulus"":""run_exp/static/images/task_images/rocket-09.jpg"",""time"":8242.325000000186}]",[],7,,,,,,,,,,,,,,
alien_welcome,119,479073,0.0-36.0-1.0,,null,run_exp/static/images/task_images/aliens/old_aliens/planet/alien_planet-45.jpg,null,,,,,,,,,,,,45,"48,40,13,17,33,21,38,45,26,4,23,27,19,9,53,58,29,42,78,80,35,30,41,57,36,73,69,6,59,60,61,74,15,12,16,20,44,67,52,2,14,18,75,51,50,37,47",,,,,,,,,,
land,120,479574,0.0-36.0-2.0,,null,run_exp/static/images/task_images/land.jpg,null,,,,,,99,,,8,,,,,,,,,,,,,,
dig,121,481582,0.0-36.0-3.0,,,,,,,,,,,"[{""stimulus"":""run_exp/static/images/task_images/dig.jpg"",""time"":0.18999999976949766},{""stimulus"":""run_exp/static/images/task_images/land.jpg"",""time"":671.3849999996601},{""stimulus"":""run_exp/static/images/task_images/dig.jpg"",""time"":1339.049999999581}]",[],8,,,,,,,,,,,,,,
harvest,122,482584,0.0-36.0-4.0,,null,run_exp/static/images/task_images/gems/99.jpg,null,,,,,,86,,,8,,,,,99,0.867767617,0.868686869,,,,,,,
decision,123,483326,0.0-36.0-5.0,,740.765,run_exp/static/images/task_images/land.jpg,76,,,,,,86,,,8,,,,,,,,163949,1,0,TRUE,,,
travel,124,492582,0.0-37.0-0.0,,,,,,,,,,,"[{""stimulus"":""run_exp/static/images/task_images/rocket-01.jpg"",""time"":0.31500000023515895},{""stimulus"":""run_exp/static/images/task_images/rocket-02.jpg"",""time"":1029.9850000001024},{""stimulus"":""run_exp/static/images/task_images/rocket-03.jpg"",""time"":2061.4199999999837},{""stimulus"":""run_exp/static/images/task_images/rocket-04.jpg"",""time"":3089.500000000058},{""stimulus"":""run_exp/static/images/task_images/rocket-05.jpg"",""time"":4116.900000000023},{""stimulus"":""run_exp/static/images/task_images/rocket-06.jpg"",""time"":5142.490000000165},{""stimulus"":""run_exp/static/images/task_images/rocket-07.jpg"",""time"":6171.320000000414},{""stimulus"":""run_exp/static/images/task_images/rocket-08.jpg"",""time"":7199.485000000102},{""stimulus"":""run_exp/static/images/task_images/rocket-09.jpg"",""time"":8226.79000000062}]",[],8,,,,,,,,,,,,,,
alien_welcome,125,497586,0.0-37.0-1.0,,null,run_exp/static/images/task_images/aliens/old_aliens/planet/alien_planet-26.jpg,null,,,,,,,,,,,,26,"48,40,13,17,33,21,38,45,26,4,23,27,19,9,53,58,29,42,78,80,35,30,41,57,36,73,69,6,59,60,61,74,15,12,16,20,44,67,52,2,14,18,75,51,50,37,47",,,,,,,,,,
land,126,498091,0.0-37.0-2.0,,null,run_exp/static/images/task_images/land.jpg,null,,,,,,102,,,9,,,,,,,,,,,,,,
dig,127,500099,0.0-37.0-3.0,,,,,,,,,,,"[{""stimulus"":""run_exp/static/images/task_images/dig.jpg"",""time"":0.24500000016996637},{""stimulus"":""run_exp/static/images/task_images/land.jpg"",""time"":672.0249999998487},{""stimulus"":""run_exp/static/images/task_images/dig.jpg"",""time"":1336.274999999674}]",[],9,,,,,,,,,,,,,,
harvest,128,501105,0.0-37.0-4.0,,null,run_exp/static/images/task_images/gems/102.jpg,null,,,,,,29,,,9,,,,,102,0.289128347,0.284313725,,,,,,,
decision,129,501259,0.0-37.0-5.0,,153.135,run_exp/static/images/task_images/land.jpg,76,,,,,,29,,,9,,,,,,,,181882,1,0,TRUE,,,
travel,130,511112,0.0-38.0-0.0,,,,,,,,,,,"[{""stimulus"":""run_exp/static/images/task_images/rocket-01.jpg"",""time"":0.1649999994551763},{""stimulus"":""run_exp/static/images/task_images/rocket-02.jpg"",""time"":1096.8749999993015},{""stimulus"":""run_exp/static/images/task_images/rocket-03.jpg"",""time"":2193.39999999915},{""stimulus"":""run_exp/static/images/task_images/rocket-04.jpg"",""time"":3284.7299999994575},{""stimulus"":""run_exp/static/images/task_images/rocket-05.jpg"",""time"":4382.079999999434},{""stimulus"":""run_exp/static/images/task_images/rocket-06.jpg"",""time"":5473.849999999453},{""stimulus"":""run_exp/static/images/task_images/rocket-07.jpg"",""time"":6565.099999999802},{""stimulus"":""run_exp/static/images/task_images/rocket-08.jpg"",""time"":7660.334999999555},{""stimulus"":""run_exp/static/images/task_images/rocket-09.jpg"",""time"":8752.974999999453}]",[],9,,,,,,,,,,,,,,
alien_welcome,131,516115,0.0-38.0-1.0,,null,run_exp/static/images/task_images/aliens/old_aliens/planet/alien_planet-4.jpg,null,,,,,,,,,,,,4,"48,40,13,17,33,21,38,45,26,4,23,27,19,9,53,58,29,42,78,80,35,30,41,57,36,73,69,6,59,60,61,74,15,12,16,20,44,67,52,2,14,18,75,51,50,37,47",,,,,,,,,,
land,132,516618,0.0-38.0-2.0,,null,run_exp/static/images/task_images/land.jpg,null,,,,,,104,,,10,,,,,,,,,,,,,,
dig,133,518623,0.0-38.0-3.0,,,,,,,,,,,"[{""stimulus"":""run_exp/static/images/task_images/dig.jpg"",""time"":0.18999999982770532},{""stimulus"":""run_exp/static/images/task_images/land.jpg"",""time"":667.8650000003399},{""stimulus"":""run_exp/static/images/task_images/dig.jpg"",""time"":1335.7600000000093}]",[],10,,,,,,,,,,,,,,
harvest,134,519627,0.0-38.0-4.0,,null,run_exp/static/images/task_images/gems/104.jpg,null,,,,,,25,,,10,,,,,104,0.243711598,0.240384615,,,,,,,
decision,135,520070,0.0-38.0-5.0,,441.805,run_exp/static/images/task_images/land.jpg,76,,,,,,25,,,10,,,,,,,,200693,1,0,TRUE,,,
travel,136,529635,0.0-39.0-0.0,,,,,,,,,,,"[{""stimulus"":""run_exp/static/images/task_images/rocket-01.jpg"",""time"":0.14999999979045242},{""stimulus"":""run_exp/static/images/task_images/rocket-02.jpg"",""time"":1063.8549999993993},{""stimulus"":""run_exp/static/images/task_images/rocket-03.jpg"",""time"":2126.7550000002375},{""stimulus"":""run_exp/static/images/task_images/rocket-04.jpg"",""time"":3186.894999999786},{""stimulus"":""run_exp/static/images/task_images/rocket-05.jpg"",""time"":4251.329999999958},{""stimulus"":""run_exp/static/images/task_images/rocket-06.jpg"",""time"":5315.775000000023},{""stimulus"":""run_exp/static/images/task_images/rocket-07.jpg"",""time"":6376.099999999395},{""stimulus"":""run_exp/static/images/task_images/rocket-08.jpg"",""time"":7437.829999999842},{""stimulus"":""run_exp/static/images/task_images/rocket-09.jpg"",""time"":8498.864999999525}]",[],10,,,,,,,,,,,,,,
alien_welcome,137,534637,0.0-39.0-1.0,,null,run_exp/static/images/task_images/aliens/old_aliens/planet/alien_planet-23.jpg,null,,,,,,,,,,,,23,"48,40,13,17,33,21,38,45,26,4,23,27,19,9,53,58,29,42,78,80,35,30,41,57,36,73,69,6,59,60,61,74,15,12,16,20,44,67,52,2,14,18,75,51,50,37,47",,,,,,,,,,
land,138,535138,0.0-39.0-2.0,,null,run_exp/static/images/task_images/land.jpg,null,,,,,,96,,,11,,,,,,,,,,,,,,
dig,139,537146,0.0-39.0-3.0,,,,,,,,,,,"[{""stimulus"":""run_exp/static/images/task_images/dig.jpg"",""time"":0.20000000041909516},{""stimulus"":""run_exp/static/images/task_images/land.jpg"",""time"":671.78000000061},{""stimulus"":""run_exp/static/images/task_images/dig.jpg"",""time"":1336.2200000000885}]",[],11,,,,,,,,,,,,,,
harvest,140,538149,0.0-39.0-4.0,,null,run_exp/static/images/task_images/gems/96.jpg,null,,,,,,20,,,11,,,,,96,0.206479154,0.208333333,,,,,,,
decision,141,538813,0.0-39.0-5.0,,662.065,run_exp/static/images/task_images/land.jpg,65,,,,,,20,,,11,,,,,,,,219436,1,0,FALSE,,,
dig,142,541156,0.0-40.0-0.0,,,,,,,,,,,"[{""stimulus"":""run_exp/static/images/task_images/dig.jpg"",""time"":0.2949999999254942},{""stimulus"":""run_exp/static/images/task_images/land.jpg"",""time"":783.7049999998417},{""stimulus"":""run_exp/static/images/task_images/dig.jpg"",""time"":1560.975000000326}]",[],11,,,,,,,,,,,,,,
harvest,143,542161,0.0-40.0-1.0,,null,run_exp/static/images/task_images/gems/20.jpg,null,,,,,,4,,,11,,,,,20,0.222956206,0.2,,,,,,,
decision,144,542829,0.0-40.0-2.0,,666.87,run_exp/static/images/task_images/land.jpg,76,,,,,,4,,,11,,,,,,,,223452,1,1,TRUE,,,
travel,145,552166,0.0-41.0-0.0,,,,,,,,,,,"[{""stimulus"":""run_exp/static/images/task_images/rocket-01.jpg"",""time"":0.159999999566935},{""stimulus"":""run_exp/static/images/task_images/rocket-02.jpg"",""time"":1039.8199999999488},{""stimulus"":""run_exp/static/images/task_images/rocket-03.jpg"",""time"":2075.2199999997392},{""stimulus"":""run_exp/static/images/task_images/rocket-04.jpg"",""time"":3113.764999999199},{""stimulus"":""run_exp/static/images/task_images/rocket-05.jpg"",""time"":4153.399999999208},{""stimulus"":""run_exp/static/images/task_images/rocket-06.jpg"",""time"":5186.009999999427},{""stimulus"":""run_exp/static/images/task_images/rocket-07.jpg"",""time"":6225.224999999278},{""stimulus"":""run_exp/static/images/task_images/rocket-08.jpg"",""time"":7264.874999999884},{""stimulus"":""run_exp/static/images/task_images/rocket-09.jpg"",""time"":8298.164999999222}]",[],11,,,,,,,,,,,,,,
alien_welcome,146,557169,0.0-41.0-1.0,,null,run_exp/static/images/task_images/aliens/old_aliens/planet/alien_planet-27.jpg,null,,,,,,,,,,,,27,"48,40,13,17,33,21,38,45,26,4,23,27,19,9,53,58,29,42,78,80,35,30,41,57,36,73,69,6,59,60,61,74,15,12,16,20,44,67,52,2,14,18,75,51,50,37,47",,,,,,,,,,
land,147,557671,0.0-41.0-2.0,,null,run_exp/static/images/task_images/land.jpg,null,,,,,,97,,,12,,,,,,,,,,,,,,
dig,148,559674,0.0-41.0-3.0,,,,,,,,,,,"[{""stimulus"":""run_exp/static/images/task_images/dig.jpg"",""time"":0.20500000030733645},{""stimulus"":""run_exp/static/images/task_images/land.jpg"",""time"":668.3050000001676},{""stimulus"":""run_exp/static/images/task_images/dig.jpg"",""time"":1337.2049999998417}]",[],12,,,,,,,,,,,,,,
harvest,149,560679,0.0-41.0-4.0,,null,run_exp/static/images/task_images/gems/97.jpg,null,,,,,,13,,,12,,,,,97,0.134448906,0.134020619,,,,,,,
decision,150,561696,0.0-41.0-5.0,,1016.665,run_exp/static/images/task_images/land.jpg,65,,,,,,13,,,12,,,,,,,,242320,1,0,FALSE,,,
dig,151,563685,0.0-42.0-0.0,,,,,,,,,,,"[{""stimulus"":""run_exp/static/images/task_images/dig.jpg"",""time"":0.20500000030733645},{""stimulus"":""run_exp/static/images/task_images/land.jpg"",""time"":662.0650000004098},{""stimulus"":""run_exp/static/images/task_images/dig.jpg"",""time"":1326.1150000006892}]",[],12,,,,,,,,,,,,,,
harvest,152,564686,0.0-42.0-1.0,,null,run_exp/static/images/task_images/gems/13.jpg,null,,,,,,2,,,12,,,,,13,0.191590464,0.153846154,,,,,,,
decision,153,565173,0.0-42.0-2.0,,485.205,run_exp/static/images/task_images/land.jpg,76,,,,,,2,,,12,,,,,,,,245796,1,1,TRUE,,,
travel,154,574691,0.0-43.0-0.0,,,,,,,,,,,"[{""stimulus"":""run_exp/static/images/task_images/rocket-01.jpg"",""time"":0.14000000001396984},{""stimulus"":""run_exp/static/images/task_images/rocket-02.jpg"",""time"":1058.6150000008056},{""stimulus"":""run_exp/static/images/task_images/rocket-03.jpg"",""time"":2117.70500000054},{""stimulus"":""run_exp/static/images/task_images/rocket-04.jpg"",""time"":3174.859999999986},{""stimulus"":""run_exp/static/images/task_images/rocket-05.jpg"",""time"":4233.780000000377},{""stimulus"":""run_exp/static/images/task_images/rocket-06.jpg"",""time"":5286.074999999953},{""stimulus"":""run_exp/static/images/task_images/rocket-07.jpg"",""time"":6345.584999999963},{""stimulus"":""run_exp/static/images/task_images/rocket-08.jpg"",""time"":7403.3950000002515},{""stimulus"":""run_exp/static/images/task_images/rocket-09.jpg"",""time"":8460.185000000754}]",[],12,,,,,,,,,,,,,,
alien_welcome,155,579695,0.0-43.0-1.0,,null,run_exp/static/images/task_images/aliens/old_aliens/planet/alien_planet-19.jpg,null,,,,,,,,,,,,19,"48,40,13,17,33,21,38,45,26,4,23,27,19,9,53,58,29,42,78,80,35,30,41,57,36,73,69,6,59,60,61,74,15,12,16,20,44,67,52,2,14,18,75,51,50,37,47",,,,,,,,,,
land,156,580200,0.0-43.0-2.0,,null,run_exp/static/images/task_images/land.jpg,null,,,,,,102,,,13,,,,,,,,,,,,,,
dig,157,582208,0.0-43.0-3.0,,,,,,,,,,,"[{""stimulus"":""run_exp/static/images/task_images/dig.jpg"",""time"":0.20500000030733645},{""stimulus"":""run_exp/static/images/task_images/land.jpg"",""time"":669.8200000000652},{""stimulus"":""run_exp/static/images/task_images/dig.jpg"",""time"":1339.2450000001118}]",[],13,,,,,,,,,,,,,,
harvest,158,583211,0.0-43.0-4.0,,null,run_exp/static/images/task_images/gems/102.jpg,null,,,,,,18,,,13,,,,,102,0.172607635,0.176470588,,,,,,,
decision,159,583635,0.0-43.0-5.0,,422.445,run_exp/static/images/task_images/land.jpg,65,,,,,,18,,,13,,,,,,,,264258,1,0,FALSE,,,
dig,160,586216,0.0-44.0-0.0,,,,,,,,,,,"[{""stimulus"":""run_exp/static/images/task_images/dig.jpg"",""time"":0.1550000006100163},{""stimulus"":""run_exp/static/images/task_images/land.jpg"",""time"":863.7950000001583},{""stimulus"":""run_exp/static/images/task_images/dig.jpg"",""time"":1722.7250000005588}]",[],13,,,,,,,,,,,,,,
harvest,161,587218,0.0-44.0-1.0,,null,run_exp/static/images/task_images/gems/18.jpg,null,,,,,,5,,,13,,,,,18,0.302133809,0.277777778,,,,,,,
decision,162,588191,0.0-44.0-2.0,,972.365,run_exp/static/images/task_images/land.jpg,76,,,,,,5,,,13,,,,,,,,268814,1,1,TRUE,,,
travel,163,597222,0.0-45.0-0.0,,,,,,,,,,,"[{""stimulus"":""run_exp/static/images/task_images/rocket-01.jpg"",""time"":0.17000000027474016},{""stimulus"":""run_exp/static/images/task_images/rocket-02.jpg"",""time"":1004.4699999998556},{""stimulus"":""run_exp/static/images/task_images/rocket-03.jpg"",""time"":2007.770000000135},{""stimulus"":""run_exp/static/images/task_images/rocket-04.jpg"",""time"":3012.7199999997392},{""stimulus"":""run_exp/static/images/task_images/rocket-05.jpg"",""time"":4013.320000000065},{""stimulus"":""run_exp/static/images/task_images/rocket-06.jpg"",""time"":5016.165000000037},{""stimulus"":""run_exp/static/images/task_images/rocket-07.jpg"",""time"":6018.705000000424},{""stimulus"":""run_exp/static/images/task_images/rocket-08.jpg"",""time"":7022.404999999679},{""stimulus"":""run_exp/static/images/task_images/rocket-09.jpg"",""time"":8025.000000000582}]",[],13,,,,,,,,,,,,,,
alien_welcome,164,602225,0.0-45.0-1.0,,null,run_exp/static/images/task_images/aliens/old_aliens/planet/alien_planet-9.jpg,null,,,,,,,,,,,,9,"48,40,13,17,33,21,38,45,26,4,23,27,19,9,53,58,29,42,78,80,35,30,41,57,36,73,69,6,59,60,61,74,15,12,16,20,44,67,52,2,14,18,75,51,50,37,47",,,,,,,,,,
land,165,602730,0.0-45.0-2.0,,null,run_exp/static/images/task_images/land.jpg,null,,,,,,98,,,14,,,,,,,,,,,,,,
dig,166,604735,0.0-45.0-3.0,,,,,,,,,,,"[{""stimulus"":""run_exp/static/images/task_images/dig.jpg"",""time"":0.18999999971129},{""stimulus"":""run_exp/static/images/task_images/land.jpg"",""time"":670.7900000000373},{""stimulus"":""run_exp/static/images/task_images/dig.jpg"",""time"":1336.765000000014}]",[],14,,,,,,,,,,,,,,
harvest,167,605741,0.0-45.0-4.0,,null,run_exp/static/images/task_images/gems/98.jpg,null,,,,,,76,,,14,,,,,98,0.774736718,0.775510204,,,,,,,
decision,168,606608,0.0-45.0-5.0,,865.96,run_exp/static/images/task_images/land.jpg,65,,,,,,76,,,14,,,,,,,,287231,1,0,FALSE,,,
dig,169,608748,0.0-46.0-0.0,,,,,,,,,,,"[{""stimulus"":""run_exp/static/images/task_images/dig.jpg"",""time"":0.2549999998882413},{""stimulus"":""run_exp/static/images/task_images/land.jpg"",""time"":715.1899999998277},{""stimulus"":""run_exp/static/images/task_images/dig.jpg"",""time"":1423.334999999497}]",[],14,,,,,,,,,,,,,,
harvest,170,609750,0.0-46.0-1.0,,null,run_exp/static/images/task_images/gems/76.jpg,null,,,,,,63,,,14,,,,,76,0.82592049,0.828947368,,,,,,,
decision,171,611108,0.0-46.0-2.0,,1357.23,run_exp/static/images/task_images/land.jpg,65,,,,,,63,,,14,,,,,,,,291731,1,1,FALSE,,,
dig,172,612754,0.0-47.0-0.0,,,,,,,,,,,"[{""stimulus"":""run_exp/static/images/task_images/dig.jpg"",""time"":0.2599999998928979},{""stimulus"":""run_exp/static/images/task_images/land.jpg"",""time"":549.7949999999255},{""stimulus"":""run_exp/static/images/task_images/dig.jpg"",""time"":1099.8200000004144}]",[],14,,,,,,,,,,,,,,
harvest,173,613758,0.0-47.0-1.0,,null,run_exp/static/images/task_images/gems/63.jpg,null,,,,,,51,,,14,,,,,63,0.814865393,0.80952381,,,,,,,
decision,174,614742,0.0-47.0-2.0,,982.77,run_exp/static/images/task_images/land.jpg,65,,,,,,51,,,14,,,,,,,,295365,1,2,FALSE,,,
dig,175,616763,0.0-48.0-0.0,,,,,,,,,,,"[{""stimulus"":""run_exp/static/images/task_images/dig.jpg"",""time"":0.17000000027474016},{""stimulus"":""run_exp/static/images/task_images/land.jpg"",""time"":675.3699999999953},{""stimulus"":""run_exp/static/images/task_images/dig.jpg"",""time"":1346.8300000004238}]",[],14,,,,,,,,,,,,,,
harvest,176,617765,0.0-48.0-1.0,,null,run_exp/static/images/task_images/gems/51.jpg,null,,,,,,43,,,14,,,,,51,0.840544802,0.843137255,,,,,,,
decision,177,618747,0.0-48.0-2.0,,981.33,run_exp/static/images/task_images/land.jpg,65,,,,,,43,,,14,,,,,,,,299370,1,3,FALSE,,,
dig,178,620770,0.0-49.0-0.0,,,,,,,,,,,"[{""stimulus"":""run_exp/static/images/task_images/dig.jpg"",""time"":0.17500000016298145},{""stimulus"":""run_exp/static/images/task_images/land.jpg"",""time"":676.660000000149},{""stimulus"":""run_exp/static/images/task_images/dig.jpg"",""time"":1349.5800000000745}]",[],14,,,,,,,,,,,,,,
harvest,179,621773,0.0-49.0-1.0,,null,run_exp/static/images/task_images/gems/43.jpg,null,,,,,,37,,,14,,,,,43,0.858240025,0.860465116,,,,,,,
decision,180,622393,0.0-49.0-2.0,,617.855,run_exp/static/images/task_images/land.jpg,76,,,,,,37,,,14,,,,,,,,303016,1,4,TRUE,,,
end_of_block_continue,181,625286,0.0-50.0-0.0,,2889.55,run_exp/static/audio/clip_32_block_end.m4a,,,,,,0,,,,,,,,,,,,,,,,,,
alien_welcome,182,630290,0.0-51.0-0.0,,null,run_exp/static/images/task_images/aliens/old_aliens/planet/alien_planet-53.jpg,null,,,,,,,,,,,,53,"48,40,13,17,33,21,38,45,26,4,23,27,19,9,53,58,29,42,78,80,35,30,41,57,36,73,69,6,59,60,61,74,15,12,16,20,44,67,52,2,14,18,75,51,50,37,47",,,,,,,,,,
land,183,630795,0.0-51.0-1.0,,null,run_exp/static/images/task_images/land.jpg,null,,,,,,99,,,15,,,,,,,,,,,,,,
dig,184,632803,0.0-51.0-2.0,,,,,,,,,,,"[{""stimulus"":""run_exp/static/images/task_images/dig.jpg"",""time"":0.18999999971129},{""stimulus"":""run_exp/static/images/task_images/land.jpg"",""time"":668.7099999999627},{""stimulus"":""run_exp/static/images/task_images/dig.jpg"",""time"":1337.550000000163}]",[],15,,,,,,,,,,,,,,
harvest,185,633809,0.0-51.0-3.0,,null,run_exp/static/images/task_images/gems/99.jpg,null,,,,,,26,,,15,,,,,99,0.261525002,0.262626263,,,,,,,
decision,186,634779,0.0-51.0-4.0,,969.51,run_exp/static/images/task_images/land.jpg,65,,,,,,26,,,15,,,,,,,,9492,2,0,FALSE,,,
dig,187,636810,0.0-52.0-0.0,,,,,,,,,,,"[{""stimulus"":""run_exp/static/images/task_images/dig.jpg"",""time"":0.18999999971129},{""stimulus"":""run_exp/static/images/task_images/land.jpg"",""time"":680.0450000000419},{""stimulus"":""run_exp/static/images/task_images/dig.jpg"",""time"":1353.489999999525}]",[],15,,,,,,,,,,,,,,
harvest,188,637813,0.0-52.0-1.0,,null,run_exp/static/images/task_images/gems/26.jpg,null,,,,,,5,,,15,,,,,26,0.193217444,0.192307692,,,,,,,
decision,189,638875,0.0-52.0-2.0,,1060.925,run_exp/static/images/task_images/land.jpg,76,,,,,,5,,,15,,,,,,,,13588,2,1,TRUE,,,
travel,190,647820,0.0-53.0-0.0,,,,,,,,,,,"[{""stimulus"":""run_exp/static/images/task_images/rocket-01.jpg"",""time"":0.14500000094994903},{""stimulus"":""run_exp/static/images/task_images/rocket-02.jpg"",""time"":996.2199999999721},{""stimulus"":""run_exp/static/images/task_images/rocket-03.jpg"",""time"":1988.005000000121},{""stimulus"":""run_exp/static/images/task_images/rocket-04.jpg"",""time"":2981.58000000054},{""stimulus"":""run_exp/static/images/task_images/rocket-05.jpg"",""time"":3974.025000000489},{""stimulus"":""run_exp/static/images/task_images/rocket-06.jpg"",""time"":4966.815000000643},{""stimulus"":""run_exp/static/images/task_images/rocket-07.jpg"",""time"":5959.4900000002235},{""stimulus"":""run_exp/static/images/task_images/rocket-08.jpg"",""time"":6952.1450000002515},{""stimulus"":""run_exp/static/images/task_images/rocket-09.jpg"",""time"":7944.844999999972}]",[],15,,,,,,,,,,,,,,
alien_welcome,191,652822,0.0-53.0-1.0,,null,run_exp/static/images/task_images/aliens/old_aliens/planet/alien_planet-58.jpg,null,,,,,,,,,,,,58,"48,40,13,17,33,21,38,45,26,4,23,27,19,9,53,58,29,42,78,80,35,30,41,57,36,73,69,6,59,60,61,74,15,12,16,20,44,67,52,2,14,18,75,51,50,37,47",,,,,,,,,,
land,192,653323,0.0-53.0-2.0,,null,run_exp/static/images/task_images/land.jpg,null,,,,,,104,,,16,,,,,,,,,,,,,,
dig,193,655329,0.0-53.0-3.0,,,,,,,,,,,"[{""stimulus"":""run_exp/static/images/task_images/dig.jpg"",""time"":0.19000000064261258},{""stimulus"":""run_exp/static/images/task_images/land.jpg"",""time"":668.695000000298},{""stimulus"":""run_exp/static/images/task_images/dig.jpg"",""time"":1335.3900000002468}]",[],16,,,,,,,,,,,,,,
harvest,194,656335,0.0-53.0-4.0,,null,run_exp/static/images/task_images/gems/104.jpg,null,,,,,,28,,,16,,,,,104,0.265246781,0.269230769,,,,,,,
decision,195,657426,0.0-53.0-5.0,,1089.885,run_exp/static/images/task_images/land.jpg,65,,,,,,28,,,16,,,,,,,,32139,2,0,FALSE,,,
dig,196,659342,0.0-54.0-0.0,,,,,,,,,,,"[{""stimulus"":""run_exp/static/images/task_images/dig.jpg"",""time"":0.14500000001862645},{""stimulus"":""run_exp/static/images/task_images/land.jpg"",""time"":636.8050000001676},{""stimulus"":""run_exp/static/images/task_images/dig.jpg"",""time"":1275.1399999997811}]",[],16,,,,,,,,,,,,,,
harvest,197,660346,0.0-54.0-1.0,,null,run_exp/static/images/task_images/gems/28.jpg,null,,,,,,8,,,16,,,,,28,0.280967548,0.285714286,,,,,,,
decision,198,660802,0.0-54.0-2.0,,454.095,run_exp/static/images/task_images/land.jpg,76,,,,,,8,,,16,,,,,,,,35515,2,1,TRUE,,,
travel,199,670348,0.0-55.0-0.0,,,,,,,,,,,"[{""stimulus"":""run_exp/static/images/task_images/rocket-01.jpg"",""time"":0.14000000013038516},{""stimulus"":""run_exp/static/images/task_images/rocket-02.jpg"",""time"":1062.5049999998882},{""stimulus"":""run_exp/static/images/task_images/rocket-03.jpg"",""time"":2125.939999999944},{""stimulus"":""run_exp/static/images/task_images/rocket-04.jpg"",""time"":3185.9050000002608},{""stimulus"":""run_exp/static/images/task_images/rocket-05.jpg"",""time"":4244.784999999916},{""stimulus"":""run_exp/static/images/task_images/rocket-06.jpg"",""time"":5301.195000000065},{""stimulus"":""run_exp/static/images/task_images/rocket-07.jpg"",""time"":6363.070000000298},{""stimulus"":""run_exp/static/images/task_images/rocket-08.jpg"",""time"":7420.805000000633},{""stimulus"":""run_exp/static/images/task_images/rocket-09.jpg"",""time"":8481.91500000027}]",[],16,,,,,,,,,,,,,,
alien_welcome,200,675354,0.0-55.0-1.0,,null,run_exp/static/images/task_images/aliens/old_aliens/planet/alien_planet-29.jpg,null,,,,,,,,,,,,29,"48,40,13,17,33,21,38,45,26,4,23,27,19,9,53,58,29,42,78,80,35,30,41,57,36,73,69,6,59,60,61,74,15,12,16,20,44,67,52,2,14,18,75,51,50,37,47",,,,,,,,,,
land,201,675858,0.0-55.0-2.0,,null,run_exp/static/images/task_images/land.jpg,null,,,,,,89,,,17,,,,,,,,,,,,,,
dig,202,677861,0.0-55.0-3.0,,,,,,,,,,,"[{""stimulus"":""run_exp/static/images/task_images/dig.jpg"",""time"":0.21000000007916242},{""stimulus"":""run_exp/static/images/task_images/land.jpg"",""time"":669.1799999998184},{""stimulus"":""run_exp/static/images/task_images/dig.jpg"",""time"":1338.7249999996275}]",[],17,,,,,,,,,,,,,,
harvest,203,678864,0.0-55.0-4.0,,null,run_exp/static/images/task_images/gems/89.jpg,null,,,,,,15,,,17,,,,,89,0.166608449,0.168539326,,,,,,,
decision,204,679691,0.0-55.0-5.0,,825.52,run_exp/static/images/task_images/land.jpg,65,,,,,,15,,,17,,,,,,,,54404,2,0,FALSE,,,
dig,205,681869,0.0-56.0-0.0,,,,,,,,,,,"[{""stimulus"":""run_exp/static/images/task_images/dig.jpg"",""time"":0.24500000022817403},{""stimulus"":""run_exp/static/images/task_images/land.jpg"",""time"":729.0450000000419},{""stimulus"":""run_exp/static/images/task_images/dig.jpg"",""time"":1450.8050000004005}]",[],17,,,,,,,,,,,,,,
harvest,206,682873,0.0-56.0-1.0,,null,run_exp/static/images/task_images/gems/15.jpg,null,,,,,,3,,,17,,,,,15,0.173061837,0.2,,,,,,,
decision,207,683494,0.0-56.0-2.0,,619.07,run_exp/static/images/task_images/land.jpg,76,,,,,,3,,,17,,,,,,,,58207,2,1,TRUE,,,
travel,208,692876,0.0-57.0-0.0,,,,,,,,,,,"[{""stimulus"":""run_exp/static/images/task_images/rocket-01.jpg"",""time"":0.14999999979045242},{""stimulus"":""run_exp/static/images/task_images/rocket-02.jpg"",""time"":1044.0549999993527},{""stimulus"":""run_exp/static/images/task_images/rocket-03.jpg"",""time"":2088.76999999932},{""stimulus"":""run_exp/static/images/task_images/rocket-04.jpg"",""time"":3128.6350000000093},{""stimulus"":""run_exp/static/images/task_images/rocket-05.jpg"",""time"":4170.629999999539},{""stimulus"":""run_exp/static/images/task_images/rocket-06.jpg"",""time"":5212.534999999567},{""stimulus"":""run_exp/static/images/task_images/rocket-07.jpg"",""time"":6257.44499999925},{""stimulus"":""run_exp/static/images/task_images/rocket-08.jpg"",""time"":7296.459999999497},{""stimulus"":""run_exp/static/images/task_images/rocket-09.jpg"",""time"":8339.54999999958}]",[],17,,,,,,,,,,,,,,
alien_welcome,209,697880,0.0-57.0-1.0,,null,run_exp/static/images/task_images/aliens/old_aliens/planet/alien_planet-42.jpg,null,,,,,,,,,,,,42,"48,40,13,17,33,21,38,45,26,4,23,27,19,9,53,58,29,42,78,80,35,30,41,57,36,73,69,6,59,60,61,74,15,12,16,20,44,67,52,2,14,18,75,51,50,37,47",,,,,,,,,,
land,210,698384,0.0-57.0-2.0,,null,run_exp/static/images/task_images/land.jpg,null,,,,,,103,,,18,,,,,,,,,,,,,,
dig,211,700388,0.0-57.0-3.0,,,,,,,,,,,"[{""stimulus"":""run_exp/static/images/task_images/dig.jpg"",""time"":0.18000000005122274},{""stimulus"":""run_exp/static/images/task_images/land.jpg"",""time"":670.3299999999581},{""stimulus"":""run_exp/static/images/task_images/dig.jpg"",""time"":1339.49000000034}]",[],18,,,,,,,,,,,,,,
harvest,212,701392,0.0-57.0-4.0,,null,run_exp/static/images/task_images/gems/103.jpg,null,,,,,,84,,,18,,,,,103,0.814101729,0.815533981,,,,,,,
decision,213,701922,0.0-57.0-5.0,,528.095,run_exp/static/images/task_images/land.jpg,65,,,,,,84,,,18,,,,,,,,76635,2,0,FALSE,,,
dig,214,704398,0.0-58.0-0.0,,,,,,,,,,,"[{""stimulus"":""run_exp/static/images/task_images/dig.jpg"",""time"":0.14999999990686774},{""stimulus"":""run_exp/static/images/task_images/land.jpg"",""time"":826.3600000001024},{""stimulus"":""run_exp/static/images/task_images/dig.jpg"",""time"":1646.9649999999674}]",[],18,,,,,,,,,,,,,,
harvest,215,705401,0.0-58.0-1.0,,null,run_exp/static/images/task_images/gems/84.jpg,null,,,,,,69,,,18,,,,,84,0.818652489,0.821428571,,,,,,,
decision,216,706883,0.0-58.0-2.0,,1480.81,run_exp/static/images/task_images/land.jpg,65,,,,,,69,,,18,,,,,,,,81596,2,1,FALSE,,,
dig,217,708404,0.0-59.0-0.0,,,,,,,,,,,"[{""stimulus"":""run_exp/static/images/task_images/dig.jpg"",""time"":0.1549999996786937},{""stimulus"":""run_exp/static/images/task_images/land.jpg"",""time"":506.98499999998603},{""stimulus"":""run_exp/static/images/task_images/dig.jpg"",""time"":1013.140000000014}]",[],18,,,,,,,,,,,,,,
harvest,218,709407,0.0-59.0-1.0,,null,run_exp/static/images/task_images/gems/69.jpg,null,,,,,,59,,,18,,,,,69,0.861926564,0.855072464,,,,,,,
decision,219,711226,0.0-59.0-2.0,,1818.145,run_exp/static/images/task_images/land.jpg,65,,,,,,59,,,18,,,,,,,,85939,2,2,FALSE,,,
dig,220,712410,0.0-60.0-0.0,,,,,,,,,,,"[{""stimulus"":""run_exp/static/images/task_images/dig.jpg"",""time"":0.150000000721775},{""stimulus"":""run_exp/static/images/task_images/land.jpg"",""time"":397.00500000070315},{""stimulus"":""run_exp/static/images/task_images/dig.jpg"",""time"":791.7000000006519}]",[],18,,,,,,,,,,,,,,
harvest,221,713414,0.0-60.0-1.0,,null,run_exp/static/images/task_images/gems/59.jpg,null,,,,,,48,,,18,,,,,59,0.822027575,0.813559322,,,,,,,
decision,222,715782,0.0-60.0-2.0,,2367.04,run_exp/static/images/task_images/land.jpg,65,,,,,,48,,,18,,,,,,,,90495,2,3,FALSE,,,
dig,223,716420,0.0-61.0-0.0,,,,,,,,,,,"[{""stimulus"":""run_exp/static/images/task_images/dig.jpg"",""time"":0.14500000001862645},{""stimulus"":""run_exp/static/images/task_images/land.jpg"",""time"":212.30500000005122},{""stimulus"":""run_exp/static/images/task_images/dig.jpg"",""time"":421.2299999999814}]",[],18,,,,,,,,,,,,,,
harvest,224,717425,0.0-61.0-1.0,,null,run_exp/static/images/task_images/gems/48.jpg,null,,,,,,38,,,18,,,,,48,0.781595933,0.791666667,,,,,,,
decision,225,718021,0.0-61.0-2.0,,594.795,run_exp/static/images/task_images/land.jpg,76,,,,,,38,,,18,,,,,,,,92734,2,4,TRUE,,,
travel,226,727433,0.0-62.0-0.0,,,,,,,,,,,"[{""stimulus"":""run_exp/static/images/task_images/rocket-01.jpg"",""time"":0.14499999990221113},{""stimulus"":""run_exp/static/images/task_images/rocket-02.jpg"",""time"":1046.63499999966},{""stimulus"":""run_exp/static/images/task_images/rocket-03.jpg"",""time"":2094.7299999997485},{""stimulus"":""run_exp/static/images/task_images/rocket-04.jpg"",""time"":3136.5649999997113},{""stimulus"":""run_exp/static/images/task_images/rocket-05.jpg"",""time"":4184.554999999818},{""stimulus"":""run_exp/static/images/task_images/rocket-06.jpg"",""time"":5229.449999999837},{""stimulus"":""run_exp/static/images/task_images/rocket-07.jpg"",""time"":6272.419999999343},{""stimulus"":""run_exp/static/images/task_images/rocket-08.jpg"",""time"":7319.2099999996135},{""stimulus"":""run_exp/static/images/task_images/rocket-09.jpg"",""time"":8362.674999999348}]",[],18,,,,,,,,,,,,,,
alien_welcome,227,732436,0.0-62.0-1.0,,null,run_exp/static/images/task_images/aliens/old_aliens/planet/alien_planet-78.jpg,null,,,,,,,,,,,,78,"48,40,13,17,33,21,38,45,26,4,23,27,19,9,53,58,29,42,78,80,35,30,41,57,36,73,69,6,59,60,61,74,15,12,16,20,44,67,52,2,14,18,75,51,50,37,47",,,,,,,,,,
land,228,732938,0.0-62.0-2.0,,null,run_exp/static/images/task_images/land.jpg,null,,,,,,103,,,19,,,,,,,,,,,,,,
dig,229,734944,0.0-62.0-3.0,,,,,,,,,,,"[{""stimulus"":""run_exp/static/images/task_images/dig.jpg"",""time"":0.23500000045169145},{""stimulus"":""run_exp/static/images/task_images/land.jpg"",""time"":670.1800000000512},{""stimulus"":""run_exp/static/images/task_images/dig.jpg"",""time"":1337.0800000003073}]",[],19,,,,,,,,,,,,,,
harvest,230,735948,0.0-62.0-4.0,,null,run_exp/static/images/task_images/gems/103.jpg,null,,,,,,77,,,19,,,,,103,0.746430168,0.747572816,,,,,,,
decision,231,736551,0.0-62.0-5.0,,602.075,run_exp/static/images/task_images/land.jpg,65,,,,,,77,,,19,,,,,,,,111264,2,0,FALSE,,,
dig,232,738955,0.0-63.0-0.0,,,,,,,,,,,"[{""stimulus"":""run_exp/static/images/task_images/dig.jpg"",""time"":0.14999999979045242},{""stimulus"":""run_exp/static/images/task_images/land.jpg"",""time"":802.4949999998789},{""stimulus"":""run_exp/static/images/task_images/dig.jpg"",""time"":1599.774999999674}]",[],19,,,,,,,,,,,,,,
harvest,233,739957,0.0-63.0-1.0,,null,run_exp/static/images/task_images/gems/77.jpg,null,,,,,,60,,,19,,,,,77,0.777573847,0.779220779,,,,,,,
decision,234,740792,0.0-63.0-2.0,,834.18,run_exp/static/images/task_images/land.jpg,65,,,,,,60,,,19,,,,,,,,115505,2,1,FALSE,,,
dig,235,742960,0.0-64.0-0.0,,,,,,,,,,,"[{""stimulus"":""run_exp/static/images/task_images/dig.jpg"",""time"":0.16999999934341758},{""stimulus"":""run_exp/static/images/task_images/land.jpg"",""time"":723.3699999996461},{""stimulus"":""run_exp/static/images/task_images/dig.jpg"",""time"":1444.9099999992177}]",[],19,,,,,,,,,,,,,,
harvest,236,743961,0.0-64.0-1.0,,null,run_exp/static/images/task_images/gems/60.jpg,null,,,,,,48,,,19,,,,,60,0.805403749,0.8,,,,,,,
decision,237,744629,0.0-64.0-2.0,,666.455,run_exp/static/images/task_images/land.jpg,65,,,,,,48,,,19,,,,,,,,119342,2,2,FALSE,,,
dig,238,746965,0.0-65.0-0.0,,,,,,,,,,,"[{""stimulus"":""run_exp/static/images/task_images/dig.jpg"",""time"":0.17000000027474016},{""stimulus"":""run_exp/static/images/task_images/land.jpg"",""time"":778.4000000001397},{""stimulus"":""run_exp/static/images/task_images/dig.jpg"",""time"":1558.3649999998743}]",[],19,,,,,,,,,,,,,,
harvest,239,747970,0.0-65.0-1.0,,null,run_exp/static/images/task_images/gems/48.jpg,null,,,,,,39,,,19,,,,,48,0.8030438,0.8125,,,,,,,
decision,240,749275,0.0-65.0-2.0,,1304.145,run_exp/static/images/task_images/land.jpg,76,,,,,,39,,,19,,,,,,,,123988,2,3,TRUE,,,
travel,241,757977,0.0-66.0-0.0,,,,,,,,,,,"[{""stimulus"":""run_exp/static/images/task_images/rocket-01.jpg"",""time"":0.15000000083819032},{""stimulus"":""run_exp/static/images/task_images/rocket-02.jpg"",""time"":967.4300000006333},{""stimulus"":""run_exp/static/images/task_images/rocket-03.jpg"",""time"":1937.0500000005122},{""stimulus"":""run_exp/static/images/task_images/rocket-04.jpg"",""time"":2899.6050000005635},{""stimulus"":""run_exp/static/images/task_images/rocket-05.jpg"",""time"":3869.890000000014},{""stimulus"":""run_exp/static/images/task_images/rocket-06.jpg"",""time"":4833.910000000265},{""stimulus"":""run_exp/static/images/task_images/rocket-07.jpg"",""time"":5799.680000000051},{""stimulus"":""run_exp/static/images/task_images/rocket-08.jpg"",""time"":6766.715000000666},{""stimulus"":""run_exp/static/images/task_images/rocket-09.jpg"",""time"":7729.984999999986}]",[],19,,,,,,,,,,,,,,
alien_welcome,242,762981,0.0-66.0-1.0,,null,run_exp/static/images/task_images/aliens/old_aliens/planet/alien_planet-80.jpg,null,,,,,,,,,,,,80,"48,40,13,17,33,21,38,45,26,4,23,27,19,9,53,58,29,42,78,80,35,30,41,57,36,73,69,6,59,60,61,74,15,12,16,20,44,67,52,2,14,18,75,51,50,37,47",,,,,,,,,,
land,243,763484,0.0-66.0-2.0,,null,run_exp/static/images/task_images/land.jpg,null,,,,,,107,,,20,,,,,,,,,,,,,,
dig,244,765492,0.0-66.0-3.0,,,,,,,,,,,"[{""stimulus"":""run_exp/static/images/task_images/dig.jpg"",""time"":0.19999999948777258},{""stimulus"":""run_exp/static/images/task_images/land.jpg"",""time"":667.71999999939},{""stimulus"":""run_exp/static/images/task_images/dig.jpg"",""time"":1335.7150000000838}]",[],20,,,,,,,,,,,,,,
harvest,245,766494,0.0-66.0-4.0,,null,run_exp/static/images/task_images/gems/107.jpg,null,,,,,,88,,,20,,,,,107,0.819834821,0.822429907,,,,,,,
decision,246,768209,0.0-66.0-5.0,,1714.635,run_exp/static/images/task_images/land.jpg,65,,,,,,88,,,20,,,,,,,,142923,2,0,FALSE,,,
dig,247,769504,0.0-67.0-0.0,,,,,,,,,,,"[{""stimulus"":""run_exp/static/images/task_images/dig.jpg"",""time"":0.18499999993946403},{""stimulus"":""run_exp/static/images/task_images/land.jpg"",""time"":431.2099999997299},{""stimulus"":""run_exp/static/images/task_images/dig.jpg"",""time"":860.4549999999581}]",[],20,,,,,,,,,,,,,,
harvest,248,770505,0.0-67.0-1.0,,null,run_exp/static/images/task_images/gems/88.jpg,null,,,,,,69,,,20,,,,,88,0.782418052,0.784090909,,,,,,,
decision,249,771078,0.0-67.0-2.0,,572.06,run_exp/static/images/task_images/land.jpg,65,,,,,,69,,,20,,,,,,,,145791,2,1,FALSE,,,
dig,250,773510,0.0-68.0-0.0,,,,,,,,,,,"[{""stimulus"":""run_exp/static/images/task_images/dig.jpg"",""time"":0.29999999969732016},{""stimulus"":""run_exp/static/images/task_images/land.jpg"",""time"":815.1550000001444},{""stimulus"":""run_exp/static/images/task_images/dig.jpg"",""time"":1621.849999999511}]",[],20,,,,,,,,,,,,,,
harvest,251,774515,0.0-68.0-1.0,,null,run_exp/static/images/task_images/gems/69.jpg,null,,,,,,55,,,20,,,,,69,0.798265027,0.797101449,,,,,,,
decision,252,775568,0.0-68.0-2.0,,1051.665,run_exp/static/images/task_images/land.jpg,65,,,,,,55,,,20,,,,,,,,150281,2,2,FALSE,,,
dig,253,777522,0.0-69.0-0.0,,,,,,,,,,,"[{""stimulus"":""run_exp/static/images/task_images/dig.jpg"",""time"":0.14999999990686774},{""stimulus"":""run_exp/static/images/task_images/land.jpg"",""time"":651.4950000001118},{""stimulus"":""run_exp/static/images/task_images/dig.jpg"",""time"":1301.4499999999534}]",[],20,,,,,,,,,,,,,,
harvest,254,778523,0.0-69.0-1.0,,null,run_exp/static/images/task_images/gems/55.jpg,null,,,,,,43,,,20,,,,,55,0.783435001,0.781818182,,,,,,,
decision,255,780529,0.0-69.0-2.0,,2004.505,run_exp/static/images/task_images/land.jpg,65,,,,,,43,,,20,,,,,,,,155242,2,3,FALSE,,,
dig,256,781527,0.0-70.0-0.0,,,,,,,,,,,"[{""stimulus"":""run_exp/static/images/task_images/dig.jpg"",""time"":0.14999999979045242},{""stimulus"":""run_exp/static/images/task_images/land.jpg"",""time"":334.42500000004657},{""stimulus"":""run_exp/static/images/task_images/dig.jpg"",""time"":664.5049999997718}]",[],20,,,,,,,,,,,,,,
harvest,257,782531,0.0-70.0-1.0,,null,run_exp/static/images/task_images/gems/43.jpg,null,,,,,,34,,,20,,,,,43,0.781266605,0.790697674,,,,,,,
decision,258,785231,0.0-70.0-2.0,,2698.54,run_exp/static/images/task_images/land.jpg,76,,,,,,34,,,20,,,,,,,,159944,2,4,TRUE,,,
travel,259,792534,0.0-71.0-0.0,,,,,,,,,,,"[{""stimulus"":""run_exp/static/images/task_images/rocket-01.jpg"",""time"":0.14499999990221113},{""stimulus"":""run_exp/static/images/task_images/rocket-02.jpg"",""time"":815.3050000000512},{""stimulus"":""run_exp/static/images/task_images/rocket-03.jpg"",""time"":1623.0299999996787},{""stimulus"":""run_exp/static/images/task_images/rocket-04.jpg"",""time"":2434.855000000447},{""stimulus"":""run_exp/static/images/task_images/rocket-05.jpg"",""time"":3247.3499999996275},{""stimulus"":""run_exp/static/images/task_images/rocket-06.jpg"",""time"":4060.2749999997905},{""stimulus"":""run_exp/static/images/task_images/rocket-07.jpg"",""time"":4867.245000000345},{""stimulus"":""run_exp/static/images/task_images/rocket-08.jpg"",""time"":5679.864999999991},{""stimulus"":""run_exp/static/images/task_images/rocket-09.jpg"",""time"":6492.704999999609}]",[],20,,,,,,,,,,,,,,
alien_welcome,260,797539,0.0-71.0-1.0,,null,run_exp/static/images/task_images/aliens/old_aliens/planet/alien_planet-35.jpg,null,,,,,,,,,,,,35,"48,40,13,17,33,21,38,45,26,4,23,27,19,9,53,58,29,42,78,80,35,30,41,57,36,73,69,6,59,60,61,74,15,12,16,20,44,67,52,2,14,18,75,51,50,37,47",,,,,,,,,,
land,261,798042,0.0-71.0-2.0,,null,run_exp/static/images/task_images/land.jpg,null,,,,,,99,,,21,,,,,,,,,,,,,,
dig,262,800046,0.0-71.0-3.0,,,,,,,,,,,"[{""stimulus"":""run_exp/static/images/task_images/dig.jpg"",""time"":0.1949999995995313},{""stimulus"":""run_exp/static/images/task_images/land.jpg"",""time"":668.004999999539},{""stimulus"":""run_exp/static/images/task_images/dig.jpg"",""time"":1339.279999999213}]",[],21,,,,,,,,,,,,,,
harvest,263,801049,0.0-71.0-4.0,,null,run_exp/static/images/task_images/gems/99.jpg,null,,,,,,88,,,21,,,,,99,0.888117703,0.888888889,,,,,,,
decision,264,802625,0.0-71.0-5.0,,1574.74,run_exp/static/images/task_images/land.jpg,65,,,,,,88,,,21,,,,,,,,177338,2,0,FALSE,,,
dig,265,804055,0.0-72.0-0.0,,,,,,,,,,,"[{""stimulus"":""run_exp/static/images/task_images/dig.jpg"",""time"":0.150000000721775},{""stimulus"":""run_exp/static/images/task_images/land.jpg"",""time"":475.92500000062864},{""stimulus"":""run_exp/static/images/task_images/dig.jpg"",""time"":954.3800000001211}]",[],21,,,,,,,,,,,,,,
harvest,266,805057,0.0-72.0-1.0,,null,run_exp/static/images/task_images/gems/88.jpg,null,,,,,,77,,,21,,,,,88,0.874097754,0.875,,,,,,,
decision,267,807518,0.0-72.0-2.0,,2460.525,run_exp/static/images/task_images/land.jpg,65,,,,,,77,,,21,,,,,,,,182232,2,1,FALSE,,,
dig,268,808061,0.0-73.0-0.0,,,,,,,,,,,"[{""stimulus"":""run_exp/static/images/task_images/dig.jpg"",""time"":0.14999999979045242},{""stimulus"":""run_exp/static/images/task_images/land.jpg"",""time"":184.93000000028405},{""stimulus"":""run_exp/static/images/task_images/dig.jpg"",""time"":361.6099999998696}]",[],21,,,,,,,,,,,,,,
harvest,269,809064,0.0-73.0-1.0,,null,run_exp/static/images/task_images/gems/77.jpg,null,,,,,,59,,,21,,,,,77,0.766345623,0.766233766,,,,,,,
decision,270,809938,0.0-73.0-2.0,,872.31,run_exp/static/images/task_images/land.jpg,65,,,,,,59,,,21,,,,,,,,184651,2,2,FALSE,,,
dig,271,812072,0.0-74.0-0.0,,,,,,,,,,,"[{""stimulus"":""run_exp/static/images/task_images/dig.jpg"",""time"":0.14999999990686774},{""stimulus"":""run_exp/static/images/task_images/land.jpg"",""time"":712.3700000002282},{""stimulus"":""run_exp/static/images/task_images/dig.jpg"",""time"":1420.5499999998137}]",[],21,,,,,,,,,,,,,,
harvest,272,813074,0.0-74.0-1.0,,null,run_exp/static/images/task_images/gems/59.jpg,null,,,,,,44,,,21,,,,,59,0.743302384,0.745762712,,,,,,,
decision,273,814055,0.0-74.0-2.0,,979.58,run_exp/static/images/task_images/land.jpg,65,,,,,,44,,,21,,,,,,,,188768,2,3,FALSE,,,
dig,274,816078,0.0-75.0-0.0,,,,,,,,,,,"[{""stimulus"":""run_exp/static/images/task_images/dig.jpg"",""time"":0.15000000083819032},{""stimulus"":""run_exp/static/images/task_images/land.jpg"",""time"":677.980000000447},{""stimulus"":""run_exp/static/images/task_images/dig.jpg"",""time"":1351.935000000638}]",[],21,,,,,,,,,,,,,,
harvest,275,817082,0.0-75.0-1.0,,null,run_exp/static/images/task_images/gems/44.jpg,null,,,,,,36,,,21,,,,,44,0.820082003,0.818181818,,,,,,,
decision,276,817689,0.0-75.0-2.0,,605.71,run_exp/static/images/task_images/land.jpg,76,,,,,,36,,,21,,,,,,,,192402,2,4,TRUE,,,
travel,277,827084,0.0-76.0-0.0,,,,,,,,,,,"[{""stimulus"":""run_exp/static/images/task_images/rocket-01.jpg"",""time"":0.14500000001862645},{""stimulus"":""run_exp/static/images/task_images/rocket-02.jpg"",""time"":1043.9399999995949},{""stimulus"":""run_exp/static/images/task_images/rocket-03.jpg"",""time"":2089.965000000084},{""stimulus"":""run_exp/static/images/task_images/rocket-04.jpg"",""time"":3133.7350000003353},{""stimulus"":""run_exp/static/images/task_images/rocket-05.jpg"",""time"":4173.170000000042},{""stimulus"":""run_exp/static/images/task_images/rocket-06.jpg"",""time"":5217.00500000047},{""stimulus"":""run_exp/static/images/task_images/rocket-07.jpg"",""time"":6262.805000000284},{""stimulus"":""run_exp/static/images/task_images/rocket-08.jpg"",""time"":7306.924999999814},{""stimulus"":""run_exp/static/images/task_images/rocket-09.jpg"",""time"":8346.115000000224}]",[],21,,,,,,,,,,,,,,
alien_welcome,278,832090,0.0-76.0-1.0,,null,run_exp/static/images/task_images/aliens/old_aliens/planet/alien_planet-30.jpg,null,,,,,,,,,,,,30,"48,40,13,17,33,21,38,45,26,4,23,27,19,9,53,58,29,42,78,80,35,30,41,57,36,73,69,6,59,60,61,74,15,12,16,20,44,67,52,2,14,18,75,51,50,37,47",,,,,,,,,,
land,279,832592,0.0-76.0-2.0,,null,run_exp/static/images/task_images/land.jpg,null,,,,,,90,,,22,,,,,,,,,,,,,,
dig,280,834600,0.0-76.0-3.0,,,,,,,,,,,"[{""stimulus"":""run_exp/static/images/task_images/dig.jpg"",""time"":0.23000000056345016},{""stimulus"":""run_exp/static/images/task_images/land.jpg"",""time"":669.90500000061},{""stimulus"":""run_exp/static/images/task_images/dig.jpg"",""time"":1339.3950000008335}]",[],22,,,,,,,,,,,,,,
harvest,281,835602,0.0-76.0-4.0,,null,run_exp/static/images/task_images/gems/90.jpg,null,,,,,,77,,,22,,,,,90,0.854569699,0.855555556,,,,,,,
decision,282,836252,0.0-76.0-5.0,,648.36,run_exp/static/images/task_images/land.jpg,65,,,,,,77,,,22,,,,,,,,210965,2,0,FALSE,,,
dig,283,838606,0.0-77.0-0.0,,,,,,,,,,,"[{""stimulus"":""run_exp/static/images/task_images/dig.jpg"",""time"":0.1550000007264316},{""stimulus"":""run_exp/static/images/task_images/land.jpg"",""time"":785.6450000000186},{""stimulus"":""run_exp/static/images/task_images/dig.jpg"",""time"":1566.8950000000186}]",[],22,,,,,,,,,,,,,,
harvest,284,839610,0.0-77.0-1.0,,null,run_exp/static/images/task_images/gems/77.jpg,null,,,,,,51,,,22,,,,,77,0.657707962,0.662337662,,,,,,,
decision,285,840122,0.0-77.0-2.0,,511.325,run_exp/static/images/task_images/land.jpg,65,,,,,,51,,,22,,,,,,,,214835,2,1,FALSE,,,
dig,286,842614,0.0-78.0-0.0,,,,,,,,,,,"[{""stimulus"":""run_exp/static/images/task_images/dig.jpg"",""time"":0.15999999968335032},{""stimulus"":""run_exp/static/images/task_images/land.jpg"",""time"":831.0050000000047},{""stimulus"":""run_exp/static/images/task_images/dig.jpg"",""time"":1660.7050000003073}]",[],22,,,,,,,,,,,,,,
harvest,287,843621,0.0-78.0-1.0,,null,run_exp/static/images/task_images/gems/51.jpg,null,,,,,,40,,,22,,,,,51,0.776138505,0.784313725,,,,,,,
decision,288,844746,0.0-78.0-2.0,,1124.4,run_exp/static/images/task_images/land.jpg,65,,,,,,40,,,22,,,,,,,,219459,2,2,FALSE,,,
dig,289,846627,0.0-79.0-0.0,,,,,,,,,,,"[{""stimulus"":""run_exp/static/images/task_images/dig.jpg"",""time"":0.2249999998603016},{""stimulus"":""run_exp/static/images/task_images/land.jpg"",""time"":628.4850000002189},{""stimulus"":""run_exp/static/images/task_images/dig.jpg"",""time"":1251.2900000001537}]",[],22,,,,,,,,,,,,,,
harvest,290,847631,0.0-79.0-1.0,,null,run_exp/static/images/task_images/gems/40.jpg,null,,,,,,32,,,22,,,,,40,0.789840582,0.8,,,,,,,
decision,291,847638,0.0-79.0-2.0,,4.96,run_exp/static/images/task_images/land.jpg,76,,,,,,32,,,22,,,,,,,,222351,2,3,TRUE,,,
travel,292,857637,0.0-80.0-0.0,,,,,,,,,,,"[{""stimulus"":""run_exp/static/images/task_images/rocket-01.jpg"",""time"":0.3050000004004687},{""stimulus"":""run_exp/static/images/task_images/rocket-02.jpg"",""time"":1111.3599999998696},{""stimulus"":""run_exp/static/images/task_images/rocket-03.jpg"",""time"":2223.5499999996973},{""stimulus"":""run_exp/static/images/task_images/rocket-04.jpg"",""time"":3335.315000000177},{""stimulus"":""run_exp/static/images/task_images/rocket-05.jpg"",""time"":4444.880000000005},{""stimulus"":""run_exp/static/images/task_images/rocket-06.jpg"",""time"":5555.744999999646},{""stimulus"":""run_exp/static/images/task_images/rocket-07.jpg"",""time"":6664.515000000363},{""stimulus"":""run_exp/static/images/task_images/rocket-08.jpg"",""time"":7772.300000000512},{""stimulus"":""run_exp/static/images/task_images/rocket-09.jpg"",""time"":8886.304999999935}]",[],22,,,,,,,,,,,,,,
alien_welcome,293,862640,0.0-80.0-1.0,,null,run_exp/static/images/task_images/aliens/old_aliens/planet/alien_planet-41.jpg,null,,,,,,,,,,,,41,"48,40,13,17,33,21,38,45,26,4,23,27,19,9,53,58,29,42,78,80,35,30,41,57,36,73,69,6,59,60,61,74,15,12,16,20,44,67,52,2,14,18,75,51,50,37,47",,,,,,,,,,
land,294,863142,0.0-80.0-2.0,,null,run_exp/static/images/task_images/land.jpg,null,,,,,,107,,,23,,,,,,,,,,,,,,
dig,295,865145,0.0-80.0-3.0,,,,,,,,,,,"[{""stimulus"":""run_exp/static/images/task_images/dig.jpg"",""time"":0.19500000053085387},{""stimulus"":""run_exp/static/images/task_images/land.jpg"",""time"":668.6850000005215},{""stimulus"":""run_exp/static/images/task_images/dig.jpg"",""time"":1339.9850000004517}]",[],23,,,,,,,,,,,,,,
harvest,296,866150,0.0-80.0-4.0,,null,run_exp/static/images/task_images/gems/107.jpg,null,,,,,,53,,,23,,,,,107,0.494904061,0.495327103,,,,,,,
decision,297,866977,0.0-80.0-5.0,,825.94,run_exp/static/images/task_images/land.jpg,65,,,,,,53,,,23,,,,,,,,241691,2,0,FALSE,,,
dig,298,869155,0.0-81.0-0.0,,,,,,,,,,,"[{""stimulus"":""run_exp/static/images/task_images/dig.jpg"",""time"":0.150000000721775},{""stimulus"":""run_exp/static/images/task_images/land.jpg"",""time"":729.5549999998184},{""stimulus"":""run_exp/static/images/task_images/dig.jpg"",""time"":1452.5800000000745}]",[],23,,,,,,,,,,,,,,
harvest,299,870157,0.0-81.0-1.0,,null,run_exp/static/images/task_images/gems/53.jpg,null,,,,,,27,,,23,,,,,53,0.517969937,0.509433962,,,,,,,
decision,300,870588,0.0-81.0-2.0,,429.795,run_exp/static/images/task_images/land.jpg,65,,,,,,27,,,23,,,,,,,,245301,2,1,FALSE,,,
dig,301,873161,0.0-82.0-0.0,,,,,,,,,,,"[{""stimulus"":""run_exp/static/images/task_images/dig.jpg"",""time"":0.18999999971129},{""stimulus"":""run_exp/static/images/task_images/land.jpg"",""time"":857.1250000004657},{""stimulus"":""run_exp/static/images/task_images/dig.jpg"",""time"":1716.1500000001397}]",[],23,,,,,,,,,,,,,,
harvest,302,874163,0.0-82.0-1.0,,null,run_exp/static/images/task_images/gems/27.jpg,null,,,,,,13,,,23,,,,,27,0.474162918,0.481481481,,,,,,,
decision,303,875078,0.0-82.0-2.0,,913,run_exp/static/images/task_images/land.jpg,76,,,,,,13,,,23,,,,,,,,249791,2,2,TRUE,,,
travel,304,884164,0.0-83.0-0.0,,,,,,,,,,,"[{""stimulus"":""run_exp/static/images/task_images/rocket-01.jpg"",""time"":0.17000000015832484},{""stimulus"":""run_exp/static/images/task_images/rocket-02.jpg"",""time"":1009.8049999995856},{""stimulus"":""run_exp/static/images/task_images/rocket-03.jpg"",""time"":2020.579999999376},{""stimulus"":""run_exp/static/images/task_images/rocket-04.jpg"",""time"":3027.9049999999115},{""stimulus"":""run_exp/static/images/task_images/rocket-05.jpg"",""time"":4038.4699999995064},{""stimulus"":""run_exp/static/images/task_images/rocket-06.jpg"",""time"":5047.190000000177},{""stimulus"":""run_exp/static/images/task_images/rocket-07.jpg"",""time"":6055.574999999371},{""stimulus"":""run_exp/static/images/task_images/rocket-08.jpg"",""time"":7064.2849999994505},{""stimulus"":""run_exp/static/images/task_images/rocket-09.jpg"",""time"":8073.515000000014}]",[],23,,,,,,,,,,,,,,
alien_welcome,305,889170,0.0-83.0-1.0,,null,run_exp/static/images/task_images/aliens/old_aliens/planet/alien_planet-57.jpg,null,,,,,,,,,,,,57,"48,40,13,17,33,21,38,45,26,4,23,27,19,9,53,58,29,42,78,80,35,30,41,57,36,73,69,6,59,60,61,74,15,12,16,20,44,67,52,2,14,18,75,51,50,37,47",,,,,,,,,,
land,306,889676,0.0-83.0-2.0,,null,run_exp/static/images/task_images/land.jpg,null,,,,,,100,,,24,,,,,,,,,,,,,,
dig,307,891683,0.0-83.0-3.0,,,,,,,,,,,"[{""stimulus"":""run_exp/static/images/task_images/dig.jpg"",""time"":0.19499999971594661},{""stimulus"":""run_exp/static/images/task_images/land.jpg"",""time"":671.6850000002887},{""stimulus"":""run_exp/static/images/task_images/dig.jpg"",""time"":1336.6049999995157}]",[],24,,,,,,,,,,,,,,
harvest,308,892686,0.0-83.0-4.0,,null,run_exp/static/images/task_images/gems/100.jpg,null,,,,,,87,,,24,,,,,100,0.871076857,0.87,,,,,,,
decision,309,894844,0.0-83.0-5.0,,2157.8,run_exp/static/images/task_images/land.jpg,65,,,,,,87,,,24,,,,,,,,269558,2,0,FALSE,,,
dig,310,895690,0.0-84.0-0.0,,,,,,,,,,,"[{""stimulus"":""run_exp/static/images/task_images/dig.jpg"",""time"":0.20499999937601388},{""stimulus"":""run_exp/static/images/task_images/land.jpg"",""time"":283.69000000017695},{""stimulus"":""run_exp/static/images/task_images/dig.jpg"",""time"":563.7399999996414}]",[],24,,,,,,,,,,,,,,
harvest,311,896692,0.0-84.0-1.0,,null,run_exp/static/images/task_images/gems/87.jpg,null,,,,,,73,,,24,,,,,87,0.839964643,0.83908046,,,,,,,
decision,312,899468,0.0-84.0-2.0,,2775.82,run_exp/static/images/task_images/land.jpg,65,,,,,,73,,,24,,,,,,,,274182,2,1,FALSE,,,
dig,313,899696,0.0-85.0-0.0,,,,,,,,,,,"[{""stimulus"":""run_exp/static/images/task_images/dig.jpg"",""time"":0.14499999990221113},{""stimulus"":""run_exp/static/images/task_images/land.jpg"",""time"":76},{""stimulus"":""run_exp/static/images/task_images/dig.jpg"",""time"":150.37000000022817}]",[],24,,,,,,,,,,,,,,
harvest,314,900699,0.0-85.0-1.0,,null,run_exp/static/images/task_images/gems/73.jpg,null,,,,,,57,,,24,,,,,73,0.77993278,0.780821918,,,,,,,
decision,315,903350,0.0-85.0-2.0,,2649.54,run_exp/static/images/task_images/land.jpg,65,,,,,,57,,,24,,,,,,,,278063,2,2,FALSE,,,
dig,316,903706,0.0-86.0-0.0,,,,,,,,,,,"[{""stimulus"":""run_exp/static/images/task_images/dig.jpg"",""time"":0.1550000006100163},{""stimulus"":""run_exp/static/images/task_images/land.jpg"",""time"":120.55500000040047},{""stimulus"":""run_exp/static/images/task_images/dig.jpg"",""time"":235.09499999997206}]",[],24,,,,,,,,,,,,,,
harvest,317,904710,0.0-86.0-1.0,,null,run_exp/static/images/task_images/gems/57.jpg,null,,,,,,49,,,24,,,,,57,0.856540905,0.859649123,,,,,,,
decision,318,907715,0.0-86.0-2.0,,null,run_exp/static/images/task_images/land.jpg,null,,,,,,49,,,24,,,,,,,,282428,2,3,FALSE,,,
time_out,319,909720,0.0-87.0-0.0,,null,run_exp/static/images/task_images/time_out.jpg,null,,,,,,49,,,,,,,,,,,,,,,,,
decision,320,910370,0.0-87.0-1.0,,648.28,run_exp/static/images/task_images/land.jpg,65,,,,,,49,,,24,,,,,,,,285083,2,3,FALSE,,,
dig,321,912727,0.0-88.0-0.0,,,,,,,,,,,"[{""stimulus"":""run_exp/static/images/task_images/dig.jpg"",""time"":0.159999999566935},{""stimulus"":""run_exp/static/images/task_images/land.jpg"",""time"":785.9650000000838},{""stimulus"":""run_exp/static/images/task_images/dig.jpg"",""time"":1570.1399999997811}]",[],24,,,,,,,,,,,,,,
harvest,322,913728,0.0-88.0-1.0,,null,run_exp/static/images/task_images/gems/49.jpg,null,,,,,,37,,,24,,,,,49,0.750193106,0.755102041,,,,,,,
decision,323,914341,0.0-88.0-2.0,,611.325,run_exp/static/images/task_images/land.jpg,65,,,,,,37,,,24,,,,,,,,289054,2,4,FALSE,,,
dig,324,916738,0.0-89.0-0.0,,,,,,,,,,,"[{""stimulus"":""run_exp/static/images/task_images/dig.jpg"",""time"":0.9300000001676381},{""stimulus"":""run_exp/static/images/task_images/land.jpg"",""time"":802.8400000003166},{""stimulus"":""run_exp/static/images/task_images/dig.jpg"",""time"":1595.9550000006566}]",[],24,,,,,,,,,,,,,,
harvest,325,917744,0.0-89.0-1.0,,null,run_exp/static/images/task_images/gems/37.jpg,null,,,,,,29,,,24,,,,,37,0.776650533,0.783783784,,,,,,,
decision,326,917818,0.0-89.0-2.0,,72.65,run_exp/static/images/task_images/land.jpg,76,,,,,,29,,,24,,,,,,,,292531,2,5,TRUE,,,
travel,327,927749,0.0-90.0-0.0,,,,,,,,,,,"[{""stimulus"":""run_exp/static/images/task_images/rocket-01.jpg"",""time"":0.15499999979510903},{""stimulus"":""run_exp/static/images/task_images/rocket-02.jpg"",""time"":1107.3950000000186},{""stimulus"":""run_exp/static/images/task_images/rocket-03.jpg"",""time"":2209.1250000003492},{""stimulus"":""run_exp/static/images/task_images/rocket-04.jpg"",""time"":3311.1600000002654},{""stimulus"":""run_exp/static/images/task_images/rocket-05.jpg"",""time"":4416.584999999963},{""stimulus"":""run_exp/static/images/task_images/rocket-06.jpg"",""time"":5516.384999999893},{""stimulus"":""run_exp/static/images/task_images/rocket-07.jpg"",""time"":6619.544999999576},{""stimulus"":""run_exp/static/images/task_images/rocket-08.jpg"",""time"":7723.004999999888},{""stimulus"":""run_exp/static/images/task_images/rocket-09.jpg"",""time"":8828.784999999683}]",[],24,,,,,,,,,,,,,,
alien_welcome,328,932752,0.0-90.0-1.0,,null,run_exp/static/images/task_images/aliens/old_aliens/planet/alien_planet-36.jpg,null,,,,,,,,,,,,36,"48,40,13,17,33,21,38,45,26,4,23,27,19,9,53,58,29,42,78,80,35,30,41,57,36,73,69,6,59,60,61,74,15,12,16,20,44,67,52,2,14,18,75,51,50,37,47",,,,,,,,,,
land,329,933254,0.0-90.0-2.0,,null,run_exp/static/images/task_images/land.jpg,null,,,,,,97,,,25,,,,,,,,,,,,,,
dig,330,935258,0.0-90.0-3.0,,,,,,,,,,,"[{""stimulus"":""run_exp/static/images/task_images/dig.jpg"",""time"":0.219999999855645},{""stimulus"":""run_exp/static/images/task_images/land.jpg"",""time"":671.0499999999302},{""stimulus"":""run_exp/static/images/task_images/dig.jpg"",""time"":1338.4800000003306}]",[],25,,,,,,,,,,,,,,
harvest,331,936262,0.0-90.0-4.0,,null,run_exp/static/images/task_images/gems/97.jpg,null,,,,,,73,,,25,,,,,97,0.748435839,0.75257732,,,,,,,
decision,332,936864,0.0-90.0-5.0,,601.635,run_exp/static/images/task_images/land.jpg,65,,,,,,73,,,25,,,,,,,,311578,2,0,TRUE,,,
end_of_block_continue,333,939184,0.0-91.0-0.0,,2315.42,run_exp/static/audio/clip_32_block_end.m4a,,,,,,0,,,,,,,,,,,,,,,,,,
alien_welcome,334,944188,0.0-92.0-0.0,,null,run_exp/static/images/task_images/aliens/old_aliens/planet/alien_planet-73.jpg,null,,,,,,,,,,,,73,"48,40,13,17,33,21,38,45,26,4,23,27,19,9,53,58,29,42,78,80,35,30,41,57,36,73,69,6,59,60,61,74,15,12,16,20,44,67,52,2,14,18,75,51,50,37,47",,,,,,,,,,
land,335,944690,0.0-92.0-1.0,,null,run_exp/static/images/task_images/land.jpg,null,,,,,,106,,,26,,,,,,,,,,,,,,
dig,336,946696,0.0-92.0-2.0,,,,,,,,,,,"[{""stimulus"":""run_exp/static/images/task_images/dig.jpg"",""time"":0.1949999995995313},{""stimulus"":""run_exp/static/images/task_images/land.jpg"",""time"":669.6499999997905},{""stimulus"":""run_exp/static/images/task_images/dig.jpg"",""time"":1337.910000000149}]",[],26,,,,,,,,,,,,,,
harvest,337,947701,0.0-92.0-3.0,,null,run_exp/static/images/task_images/gems/106.jpg,null,,,,,,50,,,26,,,,,106,0.474305734,0.471698113,,,,,,,
decision,338,948272,0.0-92.0-4.0,,570.515,run_exp/static/images/task_images/land.jpg,65,,,,,,50,,,26,,,,,,,,9087,3,0,FALSE,,,
dig,339,950707,0.0-93.0-0.0,,,,,,,,,,,"[{""stimulus"":""run_exp/static/images/task_images/dig.jpg"",""time"":0.18000000005122274},{""stimulus"":""run_exp/static/images/task_images/land.jpg"",""time"":811.6099999997532},{""stimulus"":""run_exp/static/images/task_images/dig.jpg"",""time"":1621.88499999966}]",[],26,,,,,,,,,,,,,,
harvest,340,951711,0.0-93.0-1.0,,null,run_exp/static/images/task_images/gems/50.jpg,null,,,,,,23,,,26,,,,,50,0.465815051,0.46,,,,,,,
decision,341,952323,0.0-93.0-2.0,,610.255,run_exp/static/images/task_images/land.jpg,65,,,,,,23,,,26,,,,,,,,13137,3,1,FALSE,,,
dig,342,954716,0.0-94.0-0.0,,,,,,,,,,,"[{""stimulus"":""run_exp/static/images/task_images/dig.jpg"",""time"":0.1849999998230487},{""stimulus"":""run_exp/static/images/task_images/land.jpg"",""time"":802.0550000000512},{""stimulus"":""run_exp/static/images/task_images/dig.jpg"",""time"":1595.6350000005914}]",[],26,,,,,,,,,,,,,,
harvest,343,955719,0.0-94.0-1.0,,null,run_exp/static/images/task_images/gems/23.jpg,null,,,,,,14,,,26,,,,,23,0.595467491,0.608695652,,,,,,,
decision,344,956441,0.0-94.0-2.0,,720.3,run_exp/static/images/task_images/land.jpg,76,,,,,,14,,,26,,,,,,,,17255,3,2,TRUE,,,
travel,345,965729,0.0-95.0-0.0,,,,,,,,,,,"[{""stimulus"":""run_exp/static/images/task_images/rocket-01.jpg"",""time"":0.3500000002095476},{""stimulus"":""run_exp/static/images/task_images/rocket-02.jpg"",""time"":1035.1350000000093},{""stimulus"":""run_exp/static/images/task_images/rocket-03.jpg"",""time"":2063.2350000004517},{""stimulus"":""run_exp/static/images/task_images/rocket-04.jpg"",""time"":3096.3950000004843},{""stimulus"":""run_exp/static/images/task_images/rocket-05.jpg"",""time"":4129.875000000466},{""stimulus"":""run_exp/static/images/task_images/rocket-06.jpg"",""time"":5157.259999999893},{""stimulus"":""run_exp/static/images/task_images/rocket-07.jpg"",""time"":6189.8849999997765},{""stimulus"":""run_exp/static/images/task_images/rocket-08.jpg"",""time"":7218.085000000428},{""stimulus"":""run_exp/static/images/task_images/rocket-09.jpg"",""time"":8251.250000000233}]",[],26,,,,,,,,,,,,,,
alien_welcome,346,970734,0.0-95.0-1.0,,null,run_exp/static/images/task_images/aliens/old_aliens/planet/alien_planet-69.jpg,null,,,,,,,,,,,,69,"48,40,13,17,33,21,38,45,26,4,23,27,19,9,53,58,29,42,78,80,35,30,41,57,36,73,69,6,59,60,61,74,15,12,16,20,44,67,52,2,14,18,75,51,50,37,47",,,,,,,,,,
land,347,971239,0.0-95.0-2.0,,null,run_exp/static/images/task_images/land.jpg,null,,,,,,89,,,27,,,,,,,,,,,,,,
dig,348,973245,0.0-95.0-3.0,,,,,,,,,,,"[{""stimulus"":""run_exp/static/images/task_images/dig.jpg"",""time"":0.19499999971594661},{""stimulus"":""run_exp/static/images/task_images/land.jpg"",""time"":670.5350000002654},{""stimulus"":""run_exp/static/images/task_images/dig.jpg"",""time"":1334.99000000034}]",[],27,,,,,,,,,,,,,,
harvest,349,974246,0.0-95.0-4.0,,null,run_exp/static/images/task_images/gems/89.jpg,null,,,,,,68,,,27,,,,,89,0.76207771,0.764044944,,,,,,,
decision,350,975128,0.0-95.0-5.0,,879.865,run_exp/static/images/task_images/land.jpg,65,,,,,,68,,,27,,,,,,,,35942,3,0,FALSE,,,
dig,351,977250,0.0-96.0-0.0,,,,,,,,,,,"[{""stimulus"":""run_exp/static/images/task_images/dig.jpg"",""time"":0.15000000083819032},{""stimulus"":""run_exp/static/images/task_images/land.jpg"",""time"":706.9650000003166},{""stimulus"":""run_exp/static/images/task_images/dig.jpg"",""time"":1417.6550000002608}]",[],27,,,,,,,,,,,,,,
harvest,352,978251,0.0-96.0-1.0,,null,run_exp/static/images/task_images/gems/68.jpg,null,,,,,,60,,,27,,,,,68,0.884539766,0.882352941,,,,,,,
decision,353,979459,0.0-96.0-2.0,,1206.51,run_exp/static/images/task_images/land.jpg,65,,,,,,60,,,27,,,,,,,,40273,3,1,FALSE,,,
dig,354,981257,0.0-97.0-0.0,,,,,,,,,,,"[{""stimulus"":""run_exp/static/images/task_images/dig.jpg"",""time"":0.1849999998230487},{""stimulus"":""run_exp/static/images/task_images/land.jpg"",""time"":599.0700000001816},{""stimulus"":""run_exp/static/images/task_images/dig.jpg"",""time"":1196.2350000003353}]",[],27,,,,,,,,,,,,,,
harvest,355,982260,0.0-97.0-1.0,,null,run_exp/static/images/task_images/gems/60.jpg,null,,,,,,46,,,27,,,,,60,0.76611765,0.766666667,,,,,,,
decision,356,983060,0.0-97.0-2.0,,798.48,run_exp/static/images/task_images/land.jpg,65,,,,,,46,,,27,,,,,,,,43874,3,2,FALSE,,,
dig,357,985263,0.0-98.0-0.0,,,,,,,,,,,"[{""stimulus"":""run_exp/static/images/task_images/dig.jpg"",""time"":0.18999999971129},{""stimulus"":""run_exp/static/images/task_images/land.jpg"",""time"":735.4100000002654},{""stimulus"":""run_exp/static/images/task_images/dig.jpg"",""time"":1468.6050000000978}]",[],27,,,,,,,,,,,,,,
harvest,358,986267,0.0-98.0-1.0,,null,run_exp/static/images/task_images/gems/46.jpg,null,,,,,,33,,,27,,,,,46,0.718843034,0.717391304,,,,,,,
decision,359,986862,0.0-98.0-2.0,,592.92,run_exp/static/images/task_images/land.jpg,76,,,,,,33,,,27,,,,,,,,47676,3,3,TRUE,,,
travel,360,996275,0.0-99.0-0.0,,,,,,,,,,,"[{""stimulus"":""run_exp/static/images/task_images/rocket-01.jpg"",""time"":0.17000000027474016},{""stimulus"":""run_exp/static/images/task_images/rocket-02.jpg"",""time"":1050.9050000001444},{""stimulus"":""run_exp/static/images/task_images/rocket-03.jpg"",""time"":2093.000000000815},{""stimulus"":""run_exp/static/images/task_images/rocket-04.jpg"",""time"":3140.930000000517},{""stimulus"":""run_exp/static/images/task_images/rocket-05.jpg"",""time"":4180.940000000177},{""stimulus"":""run_exp/static/images/task_images/rocket-06.jpg"",""time"":5230.60500000068},{""stimulus"":""run_exp/static/images/task_images/rocket-07.jpg"",""time"":6273.080000000889},{""stimulus"":""run_exp/static/images/task_images/rocket-08.jpg"",""time"":7320.305000000168},{""stimulus"":""run_exp/static/images/task_images/rocket-09.jpg"",""time"":8364.810000000056}]",[],27,,,,,,,,,,,,,,
alien_welcome,361,1001279,0.0-99.0-1.0,,null,run_exp/static/images/task_images/aliens/old_aliens/planet/alien_planet-6.jpg,null,,,,,,,,,,,,6,"48,40,13,17,33,21,38,45,26,4,23,27,19,9,53,58,29,42,78,80,35,30,41,57,36,73,69,6,59,60,61,74,15,12,16,20,44,67,52,2,14,18,75,51,50,37,47",,,,,,,,,,
land,362,1001781,0.0-99.0-2.0,,null,run_exp/static/images/task_images/land.jpg,null,,,,,,102,,,28,,,,,,,,,,,,,,
dig,363,1003788,0.0-99.0-3.0,,,,,,,,,,,"[{""stimulus"":""run_exp/static/images/task_images/dig.jpg"",""time"":0.17999999993480742},{""stimulus"":""run_exp/static/images/task_images/land.jpg"",""time"":668.2249999993946},{""stimulus"":""run_exp/static/images/task_images/dig.jpg"",""time"":1335.2249999997439}]",[],28,,,,,,,,,,,,,,
harvest,364,1004791,0.0-99.0-4.0,,null,run_exp/static/images/task_images/gems/102.jpg,null,,,,,,61,,,28,,,,,102,0.596935785,0.598039216,,,,,,,
decision,365,1005549,0.0-99.0-5.0,,756.795,run_exp/static/images/task_images/land.jpg,65,,,,,,61,,,28,,,,,,,,66363,3,0,FALSE,,,
dig,366,1007795,0.0-100.0-0.0,,,,,,,,,,,"[{""stimulus"":""run_exp/static/images/task_images/dig.jpg"",""time"":0.15499999979510903},{""stimulus"":""run_exp/static/images/task_images/land.jpg"",""time"":748.1399999997811},{""stimulus"":""run_exp/static/images/task_images/dig.jpg"",""time"":1495.8200000001816}]",[],28,,,,,,,,,,,,,,
harvest,367,1008798,0.0-100.0-1.0,,null,run_exp/static/images/task_images/gems/61.jpg,null,,,,,,31,,,28,,,,,61,0.501608964,0.508196721,,,,,,,
decision,368,1009464,0.0-100.0-2.0,,665.34,run_exp/static/images/task_images/land.jpg,65,,,,,,31,,,28,,,,,,,,70278,3,1,FALSE,,,
dig,369,1011802,0.0-101.0-0.0,,,,,,,,,,,"[{""stimulus"":""run_exp/static/images/task_images/dig.jpg"",""time"":0.15999999968335032},{""stimulus"":""run_exp/static/images/task_images/land.jpg"",""time"":778.984999999986},{""stimulus"":""run_exp/static/images/task_images/dig.jpg"",""time"":1561.890000000014}]",[],28,,,,,,,,,,,,,,
harvest,370,1012807,0.0-101.0-1.0,,null,run_exp/static/images/task_images/gems/31.jpg,null,,,,,,17,,,28,,,,,31,0.554678608,0.548387097,,,,,,,
decision,371,1012952,0.0-101.0-2.0,,143.615,run_exp/static/images/task_images/land.jpg,76,,,,,,17,,,28,,,,,,,,73766,3,2,TRUE,,,
