trial_type,trial_index,time_elapsed,internal_node_id,interactions,blur_events,focus_events,fullscreenenter_events,fullscreenexit_events,success,rt,stimulus,key_press,prompt,subject_id,participant_id,age,gender,button_pressed,next_reward,animation_sequence,responses,planet,curr_prac_trial,n_prac_rounds,alien,aliens,reward_received,decay_rate_actual,decay_rate_exp,time_in_block,block_num,prt,last_trial_on_planet,button_html,bonus,num_failures
pavlovia,0,2,0.0-0.0,"""event"",""trial"",""time""
""focus"",""0"",""0""
""blur"",""0"",""0""
""focus"",""1"",""14374""
""fullscreenenter"",""1"",""15979""
","""event"",""trial"",""time""
""blur"",""0"",""0""
","""event"",""trial"",""time""
""focus"",""0"",""0""
""focus"",""1"",""14374""
","""event"",""trial"",""time""
""fullscreenenter"",""1"",""15979""
","
",,,,,,,,,,,,,,,,,,,,,,,,,,,,
fullscreen,1,16963,0.0-1.0,"""event"",""trial"",""time""
""focus"",""0"",""0""
""blur"",""0"",""0""
""focus"",""1"",""14374""
""fullscreenenter"",""1"",""15979""
","""event"",""trial"",""time""
""blur"",""0"",""0""
","""event"",""trial"",""time""
""focus"",""0"",""0""
""focus"",""1"",""14374""
","""event"",""trial"",""time""
""fullscreenenter"",""1"",""15979""
","
",TRUE,,,,,,,,,,,,,,,,,,,,,,,,,,,
instruc_welcome,2,26703,0.0-2.0,"""event"",""trial"",""time""
""focus"",""0"",""0""
""blur"",""0"",""0""
""focus"",""1"",""14374""
""fullscreenenter"",""1"",""15979""
","""event"",""trial"",""time""
""blur"",""0"",""0""
","""event"",""trial"",""time""
""focus"",""0"",""0""
""focus"",""1"",""14374""
","""event"",""trial"",""time""
""fullscreenenter"",""1"",""15979""
","
",,null,run_exp/static/audio/clip_1_welcome.m4a,null,"<p>Howdy! In this experiment, you’ll be an explorer traveling through space to collect space treasure.</p><p>Your mission is to collect as much treasure as possible.</p><br><br><p><img src='run_exp/static/images/task_images/opening_img-01.jpg' height='300' width='auto'></p>",7935,1692,20.33,Male,,,,,,,,,,,,,,,,,,,
audio-keyboard-response,3,43283,0.0-3.0,"""event"",""trial"",""time""
""focus"",""0"",""0""
""blur"",""0"",""0""
""focus"",""1"",""14374""
""fullscreenenter"",""1"",""15979""
","""event"",""trial"",""time""
""blur"",""0"",""0""
","""event"",""trial"",""time""
""focus"",""0"",""0""
""focus"",""1"",""14374""
","""event"",""trial"",""time""
""fullscreenenter"",""1"",""15979""
","
",,null,run_exp/static/audio/clip_2_move.m4a,null,,,,,,,,,,,,,,,,,,,,,,,,
welcome_dec,4,44416,0.0-4.0,"""event"",""trial"",""time""
""focus"",""0"",""0""
""blur"",""0"",""0""
""focus"",""1"",""14374""
""fullscreenenter"",""1"",""15979""
","""event"",""trial"",""time""
""blur"",""0"",""0""
","""event"",""trial"",""time""
""focus"",""0"",""0""
""focus"",""1"",""14374""
","""event"",""trial"",""time""
""fullscreenenter"",""1"",""15979""
","
",,1132,"<p>Howdy! In this experiment, you’ll be an explorer traveling through space to collect space treasure.</p><p>Your mission is to collect as much treasure as possible.</p><br><br><p><img src='run_exp/static/images/task_images/opening_img-01.jpg' height='300' width='auto'></p>",,,,,,,1,,,,,,,,,,,,,,,,,,
html-keyboard-response,5,44643,0.0-5.0,"""event"",""trial"",""time""
""focus"",""0"",""0""
""blur"",""0"",""0""
""focus"",""1"",""14374""
""fullscreenenter"",""1"",""15979""
","""event"",""trial"",""time""
""blur"",""0"",""0""
","""event"",""trial"",""time""
""focus"",""0"",""0""
""focus"",""1"",""14374""
","""event"",""trial"",""time""
""fullscreenenter"",""1"",""15979""
","
",,227,"<p>Howdy! In this experiment, you’ll be an explorer traveling through space to collect space treasure.</p><p>Your mission is to collect as much treasure as possible.</p><br><br><p><img src='run_exp/static/images/task_images/opening_img-01.jpg' height='300' width='auto'></p><button class=""jspsych-html-btn-unchosen""><img src=""run_exp/static/images/task_images/planet-01.jpg"" height=""50""></button><button class=""jspsych-html-btn-chosen""><img src=""run_exp/static/images/task_images/planet-02.jpg"" height=""50""></button><p><b>[press the space bar to lock in your answer]<b><br></p>",32,,,,,,,,,,,,,,,,,,,,,,,,
instruc_goal,6,54703,0.0-6.0-0.0,"""event"",""trial"",""time""
""focus"",""0"",""0""
""blur"",""0"",""0""
""focus"",""1"",""14374""
""fullscreenenter"",""1"",""15979""
","""event"",""trial"",""time""
""blur"",""0"",""0""
","""event"",""trial"",""time""
""focus"",""0"",""0""
""focus"",""1"",""14374""
","""event"",""trial"",""time""
""fullscreenenter"",""1"",""15979""
","
",,null,run_exp/static/audio/clip_3_goal.m4a,null,"<p> As a space explorer, you’ll visit different planets to dig for space treasure, these pink gems.</p> <p> The more treasure you dig up, the more bonus money you’ll win! </p><br><br><p><img src='run_exp/static/images/task_images/pink_gem.jpg' height='300' width='auto'></p>",,,,,,,,,,,,,,,,,,,,,,,
instruc_goal,7,56686,0.0-6.0-1.0,"""event"",""trial"",""time""
""focus"",""0"",""0""
""blur"",""0"",""0""
""focus"",""1"",""14374""
""fullscreenenter"",""1"",""15979""
","""event"",""trial"",""time""
""blur"",""0"",""0""
","""event"",""trial"",""time""
""focus"",""0"",""0""
""focus"",""1"",""14374""
","""event"",""trial"",""time""
""fullscreenenter"",""1"",""15979""
","
",,1981,"<p> As a space explorer, you’ll visit different planets to dig for space treasure, these pink gems.</p> <p> The more treasure you dig up, the more bonus money you’ll win! </p><br><br><p><img src='run_exp/static/images/task_images/pink_gem.jpg' height='300' width='auto'></p>",,,,,,,1,,,,,,,,,,,,,,,,,,
html-keyboard-response,8,56788,0.0-6.0-2.0,"""event"",""trial"",""time""
""focus"",""0"",""0""
""blur"",""0"",""0""
""focus"",""1"",""14374""
""fullscreenenter"",""1"",""15979""
","""event"",""trial"",""time""
""blur"",""0"",""0""
","""event"",""trial"",""time""
""focus"",""0"",""0""
""focus"",""1"",""14374""
","""event"",""trial"",""time""
""fullscreenenter"",""1"",""15979""
","
",,101,"<p> As a space explorer, you’ll visit different planets to dig for space treasure, these pink gems.</p> <p> The more treasure you dig up, the more bonus money you’ll win! </p><br><br><p><img src='run_exp/static/images/task_images/pink_gem.jpg' height='300' width='auto'></p><button class=""jspsych-html-btn-unchosen""><img src=""run_exp/static/images/task_images/planet-01.jpg"" height=""50""></button><button class=""jspsych-html-btn-chosen""><img src=""run_exp/static/images/task_images/planet-02.jpg"" height=""50""></button><p><b>[press the space bar to lock in your answer]<b><br></p>",32,,,,,,,,,,,,,,,,,,,,,,,,
instruc_dig,9,72783,0.0-7.0-0.0,"""event"",""trial"",""time""
""focus"",""0"",""0""
""blur"",""0"",""0""
""focus"",""1"",""14374""
""fullscreenenter"",""1"",""15979""
","""event"",""trial"",""time""
""blur"",""0"",""0""
","""event"",""trial"",""time""
""focus"",""0"",""0""
""focus"",""1"",""14374""
","""event"",""trial"",""time""
""fullscreenenter"",""1"",""15979""
","
",,null,run_exp/static/audio/clip_4_dig.m4a,null,,,,,,,100,,,,,,,,,,,,,,,,,
instruc_dig_try,10,73464,0.0-7.0-1.0,"""event"",""trial"",""time""
""focus"",""0"",""0""
""blur"",""0"",""0""
""focus"",""1"",""14374""
""fullscreenenter"",""1"",""15979""
","""event"",""trial"",""time""
""blur"",""0"",""0""
","""event"",""trial"",""time""
""focus"",""0"",""0""
""focus"",""1"",""14374""
","""event"",""trial"",""time""
""fullscreenenter"",""1"",""15979""
","
",,680,"<p> When you’ve arrived at a new planet, you will dig once. </p> <p>Then, you get to decide if you want to stay on the planet and dig again or travel to a new planet and dig there.</p> <p> To stay and dig, press the letter <strong>‘A’</strong> on your keyboard. Try pressing it now! </p><p><img src='run_exp/static/images/task_images/land.jpg'  height='700' width='auto'></p>",65,"<p> When you’ve arrived at a new planet, you will dig once. </p> <p>Then, you get to decide if you want to stay on the planet and dig again or travel to a new planet and dig there.</p> <p> To stay and dig, press the letter <strong>‘A’</strong> on your keyboard. Try pressing it now! </p><p><img src='run_exp/static/images/task_images/land.jpg'  height='700' width='auto'></p>",,,,,,100,,,,,,,,,,,,,,,,,
dig_prac,11,75485,0.0-7.0-2.0,"""event"",""trial"",""time""
""focus"",""0"",""0""
""blur"",""0"",""0""
""focus"",""1"",""14374""
""fullscreenenter"",""1"",""15979""
","""event"",""trial"",""time""
""blur"",""0"",""0""
","""event"",""trial"",""time""
""focus"",""0"",""0""
""focus"",""1"",""14374""
","""event"",""trial"",""time""
""fullscreenenter"",""1"",""15979""
","
",,,,,,,,,,,,"[{""stimulus"":""run_exp/static/images/task_images/dig.jpg"",""time"":0},{""stimulus"":""run_exp/static/images/task_images/land.jpg"",""time"":676},{""stimulus"":""run_exp/static/images/task_images/dig.jpg"",""time"":1336}]",[],,,,,,,,,,,,,,,
instruc_travel,12,111723,0.0-7.0-3.0,"""event"",""trial"",""time""
""focus"",""0"",""0""
""blur"",""0"",""0""
""focus"",""1"",""14374""
""fullscreenenter"",""1"",""15979""
","""event"",""trial"",""time""
""blur"",""0"",""0""
","""event"",""trial"",""time""
""focus"",""0"",""0""
""focus"",""1"",""14374""
","""event"",""trial"",""time""
""fullscreenenter"",""1"",""15979""
","
",,null,run_exp/static/audio/clip_5_travel.m4a,null,"<p>Every time you dig up gems, there are less gems on the planet, so the more you dig on a planet the fewer gems you’ll get with each dig.</p><p>When gems are running low, you may want to travel to a new planet. </p> <p>  Planets are very far apart in this galaxy, so it will take some time to travel between them. </p> <br><p>There are lots and lots of planets for you to visit, so you won’t be able to return to any planets you’ve seen before. </p><br><p>To leave this planet and travel to a new one, press the letter <strong>‘L’</strong> on your keyboard. Try pressing it now! </p><p><img src='run_exp/static/images/task_images/rocket-01.jpg'  height='600' width='auto'></p>",,,,,,,,,,,,,,,,,,,,,,,
instruc_travel_try,13,112176,0.0-7.0-4.0,"""event"",""trial"",""time""
""focus"",""0"",""0""
""blur"",""0"",""0""
""focus"",""1"",""14374""
""fullscreenenter"",""1"",""15979""
","""event"",""trial"",""time""
""blur"",""0"",""0""
","""event"",""trial"",""time""
""focus"",""0"",""0""
""focus"",""1"",""14374""
","""event"",""trial"",""time""
""fullscreenenter"",""1"",""15979""
","
",,452,"<p>Every time you dig up gems, there are less gems on the planet, so the more you dig on a planet the fewer gems you’ll get with each dig.</p><p>When gems are running low, you may want to travel to a new planet. </p> <p>  Planets are very far apart in this galaxy, so it will take some time to travel between them. </p> <br><p>There are lots and lots of planets for you to visit, so you won’t be able to return to any planets you’ve seen before. </p><br><p>To leave this planet and travel to a new one, press the letter <strong>‘L’</strong> on your keyboard. Try pressing it now! </p><p><img src='run_exp/static/images/task_images/rocket-01.jpg'  height='600' width='auto'></p>",76,"<p>Every time you dig up gems, there are less gems on the planet, so the more you dig on a planet the fewer gems you’ll get with each dig.</p><p>When gems are running low, you may want to travel to a new planet. </p> <p>  Planets are very far apart in this galaxy, so it will take some time to travel between them. </p> <br><p>There are lots and lots of planets for you to visit, so you won’t be able to return to any planets you’ve seen before. </p><br><p>To leave this planet and travel to a new one, press the letter <strong>‘L’</strong> on your keyboard. Try pressing it now! </p><p><img src='run_exp/static/images/task_images/rocket-01.jpg'  height='600' width='auto'></p>",,,,,,,,,,,,,,,,,,,,,,,
travel_prac,14,122190,0.0-7.0-5.0,"""event"",""trial"",""time""
""focus"",""0"",""0""
""blur"",""0"",""0""
""focus"",""1"",""14374""
""fullscreenenter"",""1"",""15979""
","""event"",""trial"",""time""
""blur"",""0"",""0""
","""event"",""trial"",""time""
""focus"",""0"",""0""
""focus"",""1"",""14374""
","""event"",""trial"",""time""
""fullscreenenter"",""1"",""15979""
","
",,,,,,,,,,,,"[{""stimulus"":""run_exp/static/images/task_images/rocket-01.jpg"",""time"":0},{""stimulus"":""run_exp/static/images/task_images/rocket-02.jpg"",""time"":1128},{""stimulus"":""run_exp/static/images/task_images/rocket-03.jpg"",""time"":2230},{""stimulus"":""run_exp/static/images/task_images/rocket-04.jpg"",""time"":3340},{""stimulus"":""run_exp/static/images/task_images/rocket-05.jpg"",""time"":4446},{""stimulus"":""run_exp/static/images/task_images/rocket-06.jpg"",""time"":5561},{""stimulus"":""run_exp/static/images/task_images/rocket-07.jpg"",""time"":6670},{""stimulus"":""run_exp/static/images/task_images/rocket-08.jpg"",""time"":7782},{""stimulus"":""run_exp/static/images/task_images/rocket-09.jpg"",""time"":8889}]",[],0,,,,,,,,,,,,,,
instruc_alien_greet,15,149362,0.0-7.0-6.0,"""event"",""trial"",""time""
""focus"",""0"",""0""
""blur"",""0"",""0""
""focus"",""1"",""14374""
""fullscreenenter"",""1"",""15979""
","""event"",""trial"",""time""
""blur"",""0"",""0""
","""event"",""trial"",""time""
""focus"",""0"",""0""
""focus"",""1"",""14374""
","""event"",""trial"",""time""
""fullscreenenter"",""1"",""15979""
","
",,null,run_exp/static/audio/clip_6_alien.m4a,null,"<p>When you arrive at a new planet, the alien who owns the treasure mine on that planet will greet you!</p><p>The better an alien takes care of their mine the easier it is to dig for gems. Some aliens take better care of their mine than others. So, you won’t get exactly the same amount of gems on each planet.</p><p>What the alien looks like does not tell you anything about how many gems there are on the planet.</p><br><p><img src=""run_exp/static/images/task_images/aliens/instructions_aliens/planet/alien_planet-1.jpg""  height=""600"" width=""auto""></p>",,,,,,,,,,,,,,,,,,,,,,,
instruc_alien_greet,16,185729,0.0-7.0-7.0,"""event"",""trial"",""time""
""focus"",""0"",""0""
""blur"",""0"",""0""
""focus"",""1"",""14374""
""fullscreenenter"",""1"",""15979""
","""event"",""trial"",""time""
""blur"",""0"",""0""
","""event"",""trial"",""time""
""focus"",""0"",""0""
""focus"",""1"",""14374""
","""event"",""trial"",""time""
""fullscreenenter"",""1"",""15979""
","
",,36366,"<p>When you arrive at a new planet, the alien who owns the treasure mine on that planet will greet you!</p><p>The better an alien takes care of their mine the easier it is to dig for gems. Some aliens take better care of their mine than others. So, you won’t get exactly the same amount of gems on each planet.</p><p>What the alien looks like does not tell you anything about how many gems there are on the planet.</p><br><p><img src=""run_exp/static/images/task_images/aliens/instructions_aliens/planet/alien_planet-1.jpg""  height=""600"" width=""auto""></p>",,,,,,,1,,,,,,,,,,,,,,,,,,
html-keyboard-response,17,186175,0.0-7.0-8.0,"""event"",""trial"",""time""
""focus"",""0"",""0""
""blur"",""0"",""0""
""focus"",""1"",""14374""
""fullscreenenter"",""1"",""15979""
","""event"",""trial"",""time""
""blur"",""0"",""0""
","""event"",""trial"",""time""
""focus"",""0"",""0""
""focus"",""1"",""14374""
","""event"",""trial"",""time""
""fullscreenenter"",""1"",""15979""
","
",,444,"<p>When you arrive at a new planet, the alien who owns the treasure mine on that planet will greet you!</p><p>The better an alien takes care of their mine the easier it is to dig for gems. Some aliens take better care of their mine than others. So, you won’t get exactly the same amount of gems on each planet.</p><p>What the alien looks like does not tell you anything about how many gems there are on the planet.</p><br><p><img src=""run_exp/static/images/task_images/aliens/instructions_aliens/planet/alien_planet-1.jpg""  height=""600"" width=""auto""></p><button class=""jspsych-html-btn-unchosen""><img src=""run_exp/static/images/task_images/planet-01.jpg"" height=""50""></button><button class=""jspsych-html-btn-chosen""><img src=""run_exp/static/images/task_images/planet-02.jpg"" height=""50""></button><p><b>[press the space bar to lock in your answer]<b><br></p>",32,,,,,,,,,,,,,,,,,,,,,,,,
time_out,18,197253,0.0-8.0-0.0,"""event"",""trial"",""time""
""focus"",""0"",""0""
""blur"",""0"",""0""
""focus"",""1"",""14374""
""fullscreenenter"",""1"",""15979""
","""event"",""trial"",""time""
""blur"",""0"",""0""
","""event"",""trial"",""time""
""focus"",""0"",""0""
""focus"",""1"",""14374""
","""event"",""trial"",""time""
""fullscreenenter"",""1"",""15979""
","
",,null,run_exp/static/audio/clip_7_timeout.m4a,null,"<p>If you don't make your choice fast enough, you’ll have to wait a few seconds before you can make another one.</p><p>You can’t dig for more gems or travel to new planets. You just have to sit and wait.</p><br><p><img src='run_exp/static/images/task_images/time_out.jpg'  height='600' width='auto'></p>",,,,,,,,,,,,,,,,,,,,,,,
time_out,19,201817,0.0-8.0-1.0,"""event"",""trial"",""time""
""focus"",""0"",""0""
""blur"",""0"",""0""
""focus"",""1"",""14374""
""fullscreenenter"",""1"",""15979""
","""event"",""trial"",""time""
""blur"",""0"",""0""
","""event"",""trial"",""time""
""focus"",""0"",""0""
""focus"",""1"",""14374""
","""event"",""trial"",""time""
""fullscreenenter"",""1"",""15979""
","
",,4563,"<p>If you don't make your choice fast enough, you’ll have to wait a few seconds before you can make another one.</p><p>You can’t dig for more gems or travel to new planets. You just have to sit and wait.</p><br><p><img src='run_exp/static/images/task_images/time_out.jpg'  height='600' width='auto'></p>",,,,,,,1,,,,,,,,,,,,,,,,,,
html-keyboard-response,20,202001,0.0-8.0-2.0,"""event"",""trial"",""time""
""focus"",""0"",""0""
""blur"",""0"",""0""
""focus"",""1"",""14374""
""fullscreenenter"",""1"",""15979""
","""event"",""trial"",""time""
""blur"",""0"",""0""
","""event"",""trial"",""time""
""focus"",""0"",""0""
""focus"",""1"",""14374""
","""event"",""trial"",""time""
""fullscreenenter"",""1"",""15979""
","
",,182,"<p>If you don't make your choice fast enough, you’ll have to wait a few seconds before you can make another one.</p><p>You can’t dig for more gems or travel to new planets. You just have to sit and wait.</p><br><p><img src='run_exp/static/images/task_images/time_out.jpg'  height='600' width='auto'></p><button class=""jspsych-html-btn-unchosen""><img src=""run_exp/static/images/task_images/planet-01.jpg"" height=""50""></button><button class=""jspsych-html-btn-chosen""><img src=""run_exp/static/images/task_images/planet-02.jpg"" height=""50""></button><p><b>[press the space bar to lock in your answer]<b><br></p>",32,,,,,,,,,,,,,,,,,,,,,,,,
instruc_break,21,217672,0.0-9.0-0.0,"""event"",""trial"",""time""
""focus"",""0"",""0""
""blur"",""0"",""0""
""focus"",""1"",""14374""
""fullscreenenter"",""1"",""15979""
","""event"",""trial"",""time""
""blur"",""0"",""0""
","""event"",""trial"",""time""
""focus"",""0"",""0""
""focus"",""1"",""14374""
","""event"",""trial"",""time""
""fullscreenenter"",""1"",""15979""
","
",,null,run_exp/static/audio/clip_8_break.m4a,null,"<p> After digging and traveling for a while, you’ll be able to take a break at home base. </p><p>The game will last 20 minutes no matter what.</p><p>You will visit home base every 5 minutes, so, you will visit home base three times during the game.</p><br><p><img src='run_exp/static/images/task_images/home_base.jpg' height='600' width='auto'></p>",,,,,,,,,,,,,,,,,,,,,,,
instruc_break,22,219010,0.0-9.0-1.0,"""event"",""trial"",""time""
""focus"",""0"",""0""
""blur"",""0"",""0""
""focus"",""1"",""14374""
""fullscreenenter"",""1"",""15979""
","""event"",""trial"",""time""
""blur"",""0"",""0""
","""event"",""trial"",""time""
""focus"",""0"",""0""
""focus"",""1"",""14374""
","""event"",""trial"",""time""
""fullscreenenter"",""1"",""15979""
","
",,1337,"<p> After digging and traveling for a while, you’ll be able to take a break at home base. </p><p>The game will last 20 minutes no matter what.</p><p>You will visit home base every 5 minutes, so, you will visit home base three times during the game.</p><br><p><img src='run_exp/static/images/task_images/home_base.jpg' height='600' width='auto'></p>",,,,,,,1,,,,,,,,,,,,,,,,,,
html-keyboard-response,23,221010,0.0-9.0-2.0,"""event"",""trial"",""time""
""focus"",""0"",""0""
""blur"",""0"",""0""
""focus"",""1"",""14374""
""fullscreenenter"",""1"",""15979""
","""event"",""trial"",""time""
""blur"",""0"",""0""
","""event"",""trial"",""time""
""focus"",""0"",""0""
""focus"",""1"",""14374""
","""event"",""trial"",""time""
""fullscreenenter"",""1"",""15979""
","
",,1999,"<p> After digging and traveling for a while, you’ll be able to take a break at home base. </p><p>The game will last 20 minutes no matter what.</p><p>You will visit home base every 5 minutes, so, you will visit home base three times during the game.</p><br><p><img src='run_exp/static/images/task_images/home_base.jpg' height='600' width='auto'></p><button class=""jspsych-html-btn-unchosen""><img src=""run_exp/static/images/task_images/planet-01.jpg"" height=""50""></button><button class=""jspsych-html-btn-chosen""><img src=""run_exp/static/images/task_images/planet-02.jpg"" height=""50""></button><p><b>[press the space bar to lock in your answer]<b><br></p>",32,,,,,,,,,,,,,,,,,,,,,,,,
instruc_prac_game,24,231132,0.0-10.0-0.0,"""event"",""trial"",""time""
""focus"",""0"",""0""
""blur"",""0"",""0""
""focus"",""1"",""14374""
""fullscreenenter"",""1"",""15979""
","""event"",""trial"",""time""
""blur"",""0"",""0""
","""event"",""trial"",""time""
""focus"",""0"",""0""
""focus"",""1"",""14374""
","""event"",""trial"",""time""
""fullscreenenter"",""1"",""15979""
","
",,null,run_exp/static/audio/clip_9_practice.m4a,null,"<p> Are you ready to play a practice game? </p> <p>In this practice game, you'll be digging up barrels of gems. But, in the real game, you'll be digging up the gems themselves. </p>",,,,,,,,,,,,,,,,,,,,,,,
html-button-response,25,232220,0.0-10.0-1.0,"""event"",""trial"",""time""
""focus"",""0"",""0""
""blur"",""0"",""0""
""focus"",""1"",""14374""
""fullscreenenter"",""1"",""15979""
","""event"",""trial"",""time""
""blur"",""0"",""0""
","""event"",""trial"",""time""
""focus"",""0"",""0""
""focus"",""1"",""14374""
","""event"",""trial"",""time""
""fullscreenenter"",""1"",""15979""
","
",,1086,"<p> Are you ready to play a practice game? </p> <p>In this practice game, you'll be digging up barrels of gems. But, in the real game, you'll be digging up the gems themselves. </p>",,,,,,,0,,,,,,,,,,,,,,,,,,
alien_welcome_prac,26,237229,0.0-11.0-0.0,"""event"",""trial"",""time""
""focus"",""0"",""0""
""blur"",""0"",""0""
""focus"",""1"",""14374""
""fullscreenenter"",""1"",""15979""
","""event"",""trial"",""time""
""blur"",""0"",""0""
","""event"",""trial"",""time""
""focus"",""0"",""0""
""focus"",""1"",""14374""
","""event"",""trial"",""time""
""fullscreenenter"",""1"",""15979""
","
",,null,run_exp/static/images/task_images/aliens/practice_aliens/planet/alien_planet-5.jpg,null,,,,,,,,,,,,,,,,,,,,,,,,
land_prac,27,237733,0.0-11.0-1.0,"""event"",""trial"",""time""
""focus"",""0"",""0""
""blur"",""0"",""0""
""focus"",""1"",""14374""
""fullscreenenter"",""1"",""15979""
","""event"",""trial"",""time""
""blur"",""0"",""0""
","""event"",""trial"",""time""
""focus"",""0"",""0""
""focus"",""1"",""14374""
","""event"",""trial"",""time""
""fullscreenenter"",""1"",""15979""
","
",,null,run_exp/static/images/task_images/land.jpg,null,,,,,,,100,,,0,,,,,,,,,,,,,,
dig_prac,28,239747,0.0-11.0-2.0,"""event"",""trial"",""time""
""focus"",""0"",""0""
""blur"",""0"",""0""
""focus"",""1"",""14374""
""fullscreenenter"",""1"",""15979""
","""event"",""trial"",""time""
""blur"",""0"",""0""
","""event"",""trial"",""time""
""focus"",""0"",""0""
""focus"",""1"",""14374""
","""event"",""trial"",""time""
""fullscreenenter"",""1"",""15979""
","
",,,,,,,,,,,,"[{""stimulus"":""run_exp/static/images/task_images/dig.jpg"",""time"":0},{""stimulus"":""run_exp/static/images/task_images/land.jpg"",""time"":681},{""stimulus"":""run_exp/static/images/task_images/dig.jpg"",""time"":1348}]",[],,,,,,,,,,,,,,,
harvest_prac,29,240750,0.0-11.0-3.0,"""event"",""trial"",""time""
""focus"",""0"",""0""
""blur"",""0"",""0""
""focus"",""1"",""14374""
""fullscreenenter"",""1"",""15979""
","""event"",""trial"",""time""
""blur"",""0"",""0""
","""event"",""trial"",""time""
""focus"",""0"",""0""
""focus"",""1"",""14374""
","""event"",""trial"",""time""
""fullscreenenter"",""1"",""15979""
","
",,null,run_exp/static/images/task_images/barrel_text.jpg,null,,,,,,,,,,,,,,,,,,,,,,,,
decision_prac,30,242052,0.0-11.0-4.0,"""event"",""trial"",""time""
""focus"",""0"",""0""
""blur"",""0"",""0""
""focus"",""1"",""14374""
""fullscreenenter"",""1"",""15979""
","""event"",""trial"",""time""
""blur"",""0"",""0""
","""event"",""trial"",""time""
""focus"",""0"",""0""
""focus"",""1"",""14374""
","""event"",""trial"",""time""
""fullscreenenter"",""1"",""15979""
","
",,1302,run_exp/static/images/task_images/land.jpg,65,,,,,,,,,,,1,,,,,,,,,,,,,
dig_prac,31,244055,0.0-12.0-0.0,"""event"",""trial"",""time""
""focus"",""0"",""0""
""blur"",""0"",""0""
""focus"",""1"",""14374""
""fullscreenenter"",""1"",""15979""
","""event"",""trial"",""time""
""blur"",""0"",""0""
","""event"",""trial"",""time""
""focus"",""0"",""0""
""focus"",""1"",""14374""
","""event"",""trial"",""time""
""fullscreenenter"",""1"",""15979""
","
",,,,,,,,,,,,"[{""stimulus"":""run_exp/static/images/task_images/dig.jpg"",""time"":0},{""stimulus"":""run_exp/static/images/task_images/land.jpg"",""time"":673},{""stimulus"":""run_exp/static/images/task_images/dig.jpg"",""time"":1339}]",[],,,,,,,,,,,,,,,
harvest_prac,32,245070,0.0-12.0-1.0,"""event"",""trial"",""time""
""focus"",""0"",""0""
""blur"",""0"",""0""
""focus"",""1"",""14374""
""fullscreenenter"",""1"",""15979""
","""event"",""trial"",""time""
""blur"",""0"",""0""
","""event"",""trial"",""time""
""focus"",""0"",""0""
""focus"",""1"",""14374""
","""event"",""trial"",""time""
""fullscreenenter"",""1"",""15979""
","
",,null,run_exp/static/images/task_images/barrel_text.jpg,null,,,,,,,,,,,,,,,,,,,,,,,,
decision_prac,33,245733,0.0-12.0-2.0,"""event"",""trial"",""time""
""focus"",""0"",""0""
""blur"",""0"",""0""
""focus"",""1"",""14374""
""fullscreenenter"",""1"",""15979""
","""event"",""trial"",""time""
""blur"",""0"",""0""
","""event"",""trial"",""time""
""focus"",""0"",""0""
""focus"",""1"",""14374""
","""event"",""trial"",""time""
""fullscreenenter"",""1"",""15979""
","
",,662,run_exp/static/images/task_images/land.jpg,65,,,,,,,,,,,2,,,,,,,,,,,,,
dig_prac,34,247743,0.0-13.0-0.0,"""event"",""trial"",""time""
""focus"",""0"",""0""
""blur"",""0"",""0""
""focus"",""1"",""14374""
""fullscreenenter"",""1"",""15979""
","""event"",""trial"",""time""
""blur"",""0"",""0""
","""event"",""trial"",""time""
""focus"",""0"",""0""
""focus"",""1"",""14374""
","""event"",""trial"",""time""
""fullscreenenter"",""1"",""15979""
","
",,,,,,,,,,,,"[{""stimulus"":""run_exp/static/images/task_images/dig.jpg"",""time"":0},{""stimulus"":""run_exp/static/images/task_images/land.jpg"",""time"":678},{""stimulus"":""run_exp/static/images/task_images/dig.jpg"",""time"":1344}]",[],,,,,,,,,,,,,,,
harvest_prac,35,248744,0.0-13.0-1.0,"""event"",""trial"",""time""
""focus"",""0"",""0""
""blur"",""0"",""0""
""focus"",""1"",""14374""
""fullscreenenter"",""1"",""15979""
","""event"",""trial"",""time""
""blur"",""0"",""0""
","""event"",""trial"",""time""
""focus"",""0"",""0""
""focus"",""1"",""14374""
","""event"",""trial"",""time""
""fullscreenenter"",""1"",""15979""
","
",,null,run_exp/static/images/task_images/barrel_text.jpg,null,,,,,,,,,,,,,,,,,,,,,,,,
decision_prac,36,249454,0.0-13.0-2.0,"""event"",""trial"",""time""
""focus"",""0"",""0""
""blur"",""0"",""0""
""focus"",""1"",""14374""
""fullscreenenter"",""1"",""15979""
","""event"",""trial"",""time""
""blur"",""0"",""0""
","""event"",""trial"",""time""
""focus"",""0"",""0""
""focus"",""1"",""14374""
","""event"",""trial"",""time""
""fullscreenenter"",""1"",""15979""
","
",,710,run_exp/static/images/task_images/land.jpg,65,,,,,,,,,,,3,,,,,,,,,,,,,
dig_prac,37,251467,0.0-14.0-0.0,"""event"",""trial"",""time""
""focus"",""0"",""0""
""blur"",""0"",""0""
""focus"",""1"",""14374""
""fullscreenenter"",""1"",""15979""
","""event"",""trial"",""time""
""blur"",""0"",""0""
","""event"",""trial"",""time""
""focus"",""0"",""0""
""focus"",""1"",""14374""
","""event"",""trial"",""time""
""fullscreenenter"",""1"",""15979""
","
",,,,,,,,,,,,"[{""stimulus"":""run_exp/static/images/task_images/dig.jpg"",""time"":0},{""stimulus"":""run_exp/static/images/task_images/land.jpg"",""time"":680},{""stimulus"":""run_exp/static/images/task_images/dig.jpg"",""time"":1347}]",[],,,,,,,,,,,,,,,
harvest_prac,38,252472,0.0-14.0-1.0,"""event"",""trial"",""time""
""focus"",""0"",""0""
""blur"",""0"",""0""
""focus"",""1"",""14374""
""fullscreenenter"",""1"",""15979""
","""event"",""trial"",""time""
""blur"",""0"",""0""
","""event"",""trial"",""time""
""focus"",""0"",""0""
""focus"",""1"",""14374""
","""event"",""trial"",""time""
""fullscreenenter"",""1"",""15979""
","
",,null,run_exp/static/images/task_images/barrel_text.jpg,null,,,,,,,,,,,,,,,,,,,,,,,,
decision_prac,39,252838,0.0-14.0-2.0,"""event"",""trial"",""time""
""focus"",""0"",""0""
""blur"",""0"",""0""
""focus"",""1"",""14374""
""fullscreenenter"",""1"",""15979""
","""event"",""trial"",""time""
""blur"",""0"",""0""
","""event"",""trial"",""time""
""focus"",""0"",""0""
""focus"",""1"",""14374""
","""event"",""trial"",""time""
""fullscreenenter"",""1"",""15979""
","
",,366,run_exp/static/images/task_images/land.jpg,65,,,,,,,,,,,4,,,,,,,,,,,,,
dig_prac,40,254848,0.0-15.0-0.0,"""event"",""trial"",""time""
""focus"",""0"",""0""
""blur"",""0"",""0""
""focus"",""1"",""14374""
""fullscreenenter"",""1"",""15979""
","""event"",""trial"",""time""
""blur"",""0"",""0""
","""event"",""trial"",""time""
""focus"",""0"",""0""
""focus"",""1"",""14374""
","""event"",""trial"",""time""
""fullscreenenter"",""1"",""15979""
","
",,,,,,,,,,,,"[{""stimulus"":""run_exp/static/images/task_images/dig.jpg"",""time"":0},{""stimulus"":""run_exp/static/images/task_images/land.jpg"",""time"":682},{""stimulus"":""run_exp/static/images/task_images/dig.jpg"",""time"":1339}]",[],,,,,,,,,,,,,,,
harvest_prac,41,255854,0.0-15.0-1.0,"""event"",""trial"",""time""
""focus"",""0"",""0""
""blur"",""0"",""0""
""focus"",""1"",""14374""
""fullscreenenter"",""1"",""15979""
","""event"",""trial"",""time""
""blur"",""0"",""0""
","""event"",""trial"",""time""
""focus"",""0"",""0""
""focus"",""1"",""14374""
","""event"",""trial"",""time""
""fullscreenenter"",""1"",""15979""
","
",,null,run_exp/static/images/task_images/barrel_text.jpg,null,,,,,,,,,,,,,,,,,,,,,,,,
decision_prac,42,256425,0.0-15.0-2.0,"""event"",""trial"",""time""
""focus"",""0"",""0""
""blur"",""0"",""0""
""focus"",""1"",""14374""
""fullscreenenter"",""1"",""15979""
","""event"",""trial"",""time""
""blur"",""0"",""0""
","""event"",""trial"",""time""
""focus"",""0"",""0""
""focus"",""1"",""14374""
","""event"",""trial"",""time""
""fullscreenenter"",""1"",""15979""
","
",,571,run_exp/static/images/task_images/land.jpg,65,,,,,,,,,,,,1,,,,,,,,,,,,
quiz_instruc,43,259266,0.0-16.0-0.0,"""event"",""trial"",""time""
""focus"",""0"",""0""
""blur"",""0"",""0""
""focus"",""1"",""14374""
""fullscreenenter"",""1"",""15979""
""fullscreenexit"",""44"",""262195""
""blur"",""44"",""263645""
""focus"",""44"",""279549""
","""event"",""trial"",""time""
""blur"",""0"",""0""
""blur"",""44"",""263645""
","""event"",""trial"",""time""
""focus"",""0"",""0""
""focus"",""1"",""14374""
""focus"",""44"",""279549""
","""event"",""trial"",""time""
""fullscreenenter"",""1"",""15979""
","""event"",""trial"",""time""
""fullscreenexit"",""44"",""262195""
",,2839,run_exp/static/audio/clip_10_quiz.m4a,,,,,,,0,,,,,,,,,,,,,,,,,,
instruc_repeat,44,302033,0.0-16.0-1.0,"""event"",""trial"",""time""
""focus"",""0"",""0""
""blur"",""0"",""0""
""focus"",""1"",""14374""
""fullscreenenter"",""1"",""15979""
""fullscreenexit"",""44"",""262195""
""blur"",""44"",""263645""
""focus"",""44"",""279549""
","""event"",""trial"",""time""
""blur"",""0"",""0""
""blur"",""44"",""263645""
","""event"",""trial"",""time""
""focus"",""0"",""0""
""focus"",""1"",""14374""
""focus"",""44"",""279549""
","""event"",""trial"",""time""
""fullscreenenter"",""1"",""15979""
","""event"",""trial"",""time""
""fullscreenexit"",""44"",""262195""
",,null,"<p> Are you ready to play a practice game? </p> <p>In this practice game, you'll be digging up barrels of gems. But, in the real game, you'll be digging up the gems themselves. </p>",null,"<p>In this game, your goal is to collect as many gems as you can. That’s how you will win bonus money. </p> <p>The entire game will last 20 minutes no matter how many gems you collect or how many planets you visit. </p><p>To stay on a planet and dig again, press the letter A on your keyboard. To leave for a new planet, press the letter L.</p><p>The more you dig on a planet, the fewer gems you’ll get with each dig which is why you might consider leaving for a new planet. </p><p>When you arrive at a new planet, you’ll be greeted by an alien. What the alien looks like does not tell you anything about how much treasure is on the planet. </p>",,,,,,,,,,,,,,,,,,,,,,,
instruc_repeat_continue,45,305454,0.0-16.0-2.0,"""event"",""trial"",""time""
""focus"",""0"",""0""
""blur"",""0"",""0""
""focus"",""1"",""14374""
""fullscreenenter"",""1"",""15979""
""fullscreenexit"",""44"",""262195""
""blur"",""44"",""263645""
""focus"",""44"",""279549""
","""event"",""trial"",""time""
""blur"",""0"",""0""
""blur"",""44"",""263645""
","""event"",""trial"",""time""
""focus"",""0"",""0""
""focus"",""1"",""14374""
""focus"",""44"",""279549""
","""event"",""trial"",""time""
""fullscreenenter"",""1"",""15979""
","""event"",""trial"",""time""
""fullscreenexit"",""44"",""262195""
",,3421,"<p> Are you ready to play a practice game? </p> <p>In this practice game, you'll be digging up barrels of gems. But, in the real game, you'll be digging up the gems themselves. </p>",,,,,,,0,,,,,,,,,,,,,,,,,,
quiz_q_1_ask,46,309295,0.0-16.0-3.0,"""event"",""trial"",""time""
""focus"",""0"",""0""
""blur"",""0"",""0""
""focus"",""1"",""14374""
""fullscreenenter"",""1"",""15979""
""fullscreenexit"",""44"",""262195""
""blur"",""44"",""263645""
""focus"",""44"",""279549""
","""event"",""trial"",""time""
""blur"",""0"",""0""
""blur"",""44"",""263645""
","""event"",""trial"",""time""
""focus"",""0"",""0""
""focus"",""1"",""14374""
""focus"",""44"",""279549""
","""event"",""trial"",""time""
""fullscreenenter"",""1"",""15979""
","""event"",""trial"",""time""
""fullscreenexit"",""44"",""262195""
",,3839,run_exp/static/audio/clip_11_q1_ask.m4a,,,,,,,2,,,,,,,,,,,,,,,,,,
quiz_q_1_fb_correct,47,313133,0.0-17.0-0.0,"""event"",""trial"",""time""
""focus"",""0"",""0""
""blur"",""0"",""0""
""focus"",""1"",""14374""
""fullscreenenter"",""1"",""15979""
""fullscreenexit"",""44"",""262195""
""blur"",""44"",""263645""
""focus"",""44"",""279549""
","""event"",""trial"",""time""
""blur"",""0"",""0""
""blur"",""44"",""263645""
","""event"",""trial"",""time""
""focus"",""0"",""0""
""focus"",""1"",""14374""
""focus"",""44"",""279549""
","""event"",""trial"",""time""
""fullscreenenter"",""1"",""15979""
","""event"",""trial"",""time""
""fullscreenexit"",""44"",""262195""
",,null,run_exp/static/audio/clip_12_q1_correct.m4a,null,<p>That’s correct. You win extra money by collecting more gems.</p>,,,,,,,,,,,,,,,,,,,,,,,
quiz_q_2_ask,48,316406,0.0-17.0-1.0,"""event"",""trial"",""time""
""focus"",""0"",""0""
""blur"",""0"",""0""
""focus"",""1"",""14374""
""fullscreenenter"",""1"",""15979""
""fullscreenexit"",""44"",""262195""
""blur"",""44"",""263645""
""focus"",""44"",""279549""
","""event"",""trial"",""time""
""blur"",""0"",""0""
""blur"",""44"",""263645""
","""event"",""trial"",""time""
""focus"",""0"",""0""
""focus"",""1"",""14374""
""focus"",""44"",""279549""
","""event"",""trial"",""time""
""fullscreenenter"",""1"",""15979""
","""event"",""trial"",""time""
""fullscreenexit"",""44"",""262195""
",,3272,run_exp/static/audio/clip_14_q2_ask.m4a,,,,,,,1,,,,,,,,,,,,,,,,,,
quiz_q_2_fb_correct,49,320413,0.0-18.0-0.0,"""event"",""trial"",""time""
""focus"",""0"",""0""
""blur"",""0"",""0""
""focus"",""1"",""14374""
""fullscreenenter"",""1"",""15979""
""fullscreenexit"",""44"",""262195""
""blur"",""44"",""263645""
""focus"",""44"",""279549""
","""event"",""trial"",""time""
""blur"",""0"",""0""
""blur"",""44"",""263645""
","""event"",""trial"",""time""
""focus"",""0"",""0""
""focus"",""1"",""14374""
""focus"",""44"",""279549""
","""event"",""trial"",""time""
""fullscreenenter"",""1"",""15979""
","""event"",""trial"",""time""
""fullscreenexit"",""44"",""262195""
",,null,run_exp/static/audio/clip_15_q2_correct.m4a,null,<p>That’s correct. The experiment is 20 minutes no matter what.</p>,,,,,,,,,,,,,,,,,,,,,,,
quiz_q_3_ask,50,322562,0.0-18.0-1.0,"""event"",""trial"",""time""
""focus"",""0"",""0""
""blur"",""0"",""0""
""focus"",""1"",""14374""
""fullscreenenter"",""1"",""15979""
""fullscreenexit"",""44"",""262195""
""blur"",""44"",""263645""
""focus"",""44"",""279549""
","""event"",""trial"",""time""
""blur"",""0"",""0""
""blur"",""44"",""263645""
","""event"",""trial"",""time""
""focus"",""0"",""0""
""focus"",""1"",""14374""
""focus"",""44"",""279549""
","""event"",""trial"",""time""
""fullscreenenter"",""1"",""15979""
","""event"",""trial"",""time""
""fullscreenexit"",""44"",""262195""
",,2149,run_exp/static/audio/clip_17_q3_ask.m4a,,,,,,,1,,,,,,,,,,,,,,,,,,
quiz_q_3_fb_correct,51,326553,0.0-19.0-0.0,"""event"",""trial"",""time""
""focus"",""0"",""0""
""blur"",""0"",""0""
""focus"",""1"",""14374""
""fullscreenenter"",""1"",""15979""
""fullscreenexit"",""44"",""262195""
""blur"",""44"",""263645""
""focus"",""44"",""279549""
","""event"",""trial"",""time""
""blur"",""0"",""0""
""blur"",""44"",""263645""
","""event"",""trial"",""time""
""focus"",""0"",""0""
""focus"",""1"",""14374""
""focus"",""44"",""279549""
","""event"",""trial"",""time""
""fullscreenenter"",""1"",""15979""
","""event"",""trial"",""time""
""fullscreenexit"",""44"",""262195""
",,null,run_exp/static/audio/clip_18_q3_correct.m4a,null,<p> That’s correct. You press the letter L to travel to a new planet.</p>,,,,,,,,,,,,,,,,,,,,,,,
quiz_q_4_ask,52,330528,0.0-19.0-1.0,"""event"",""trial"",""time""
""focus"",""0"",""0""
""blur"",""0"",""0""
""focus"",""1"",""14374""
""fullscreenenter"",""1"",""15979""
""fullscreenexit"",""44"",""262195""
""blur"",""44"",""263645""
""focus"",""44"",""279549""
","""event"",""trial"",""time""
""blur"",""0"",""0""
""blur"",""44"",""263645""
","""event"",""trial"",""time""
""focus"",""0"",""0""
""focus"",""1"",""14374""
""focus"",""44"",""279549""
","""event"",""trial"",""time""
""fullscreenenter"",""1"",""15979""
","""event"",""trial"",""time""
""fullscreenexit"",""44"",""262195""
",,3974,run_exp/static/audio/clip_20_q4_ask.m4a,,,,,,,0,,,,,,,,,,,,,,,,,,
quiz_q_4_fb_correct,53,335853,0.0-20.0-0.0,"""event"",""trial"",""time""
""focus"",""0"",""0""
""blur"",""0"",""0""
""focus"",""1"",""14374""
""fullscreenenter"",""1"",""15979""
""fullscreenexit"",""44"",""262195""
""blur"",""44"",""263645""
""focus"",""44"",""279549""
","""event"",""trial"",""time""
""blur"",""0"",""0""
""blur"",""44"",""263645""
","""event"",""trial"",""time""
""focus"",""0"",""0""
""focus"",""1"",""14374""
""focus"",""44"",""279549""
","""event"",""trial"",""time""
""fullscreenenter"",""1"",""15979""
","""event"",""trial"",""time""
""fullscreenexit"",""44"",""262195""
",,null,run_exp/static/audio/clip_21_q4_correct.m4a,null,<p> That’s correct. The more you dig on a planet the fewer gems you’ll get with each dig. </p>,,,,,,,,,,,,,,,,,,,,,,,
quiz_q_5_ask,54,338721,0.0-20.0-1.0,"""event"",""trial"",""time""
""focus"",""0"",""0""
""blur"",""0"",""0""
""focus"",""1"",""14374""
""fullscreenenter"",""1"",""15979""
""fullscreenexit"",""44"",""262195""
""blur"",""44"",""263645""
""focus"",""44"",""279549""
""blur"",""55"",""342575""
","""event"",""trial"",""time""
""blur"",""0"",""0""
""blur"",""44"",""263645""
""blur"",""55"",""342575""
","""event"",""trial"",""time""
""focus"",""0"",""0""
""focus"",""1"",""14374""
""focus"",""44"",""279549""
","""event"",""trial"",""time""
""fullscreenenter"",""1"",""15979""
","""event"",""trial"",""time""
""fullscreenexit"",""44"",""262195""
",,2867,run_exp/static/audio/clip_23_q5_ask.m4a,,,,,,,1,,,,,,,,,,,,,,,,,,
quiz_q_5_fb_correct,55,343713,0.0-21.0-0.0,"""event"",""trial"",""time""
""focus"",""0"",""0""
""blur"",""0"",""0""
""focus"",""1"",""14374""
""fullscreenenter"",""1"",""15979""
""fullscreenexit"",""44"",""262195""
""blur"",""44"",""263645""
""focus"",""44"",""279549""
""blur"",""55"",""342575""
","""event"",""trial"",""time""
""blur"",""0"",""0""
""blur"",""44"",""263645""
""blur"",""55"",""342575""
","""event"",""trial"",""time""
""focus"",""0"",""0""
""focus"",""1"",""14374""
""focus"",""44"",""279549""
","""event"",""trial"",""time""
""fullscreenenter"",""1"",""15979""
","""event"",""trial"",""time""
""fullscreenexit"",""44"",""262195""
",,null,run_exp/static/audio/clip_24_q5_correct.m4a,null,<p> That’s correct. The alien tells you nothing about how much treasure is on the planet.</p>,,,,,,,,,,,,,,,,,,,,,,,
quiz_correct,56,347173,0.0-22.0-0.0,"""event"",""trial"",""time""
""focus"",""0"",""0""
""blur"",""0"",""0""
""focus"",""1"",""14374""
""fullscreenenter"",""1"",""15979""
""fullscreenexit"",""44"",""262195""
""blur"",""44"",""263645""
""focus"",""44"",""279549""
""blur"",""55"",""342575""
""focus"",""57"",""351101""
","""event"",""trial"",""time""
""blur"",""0"",""0""
""blur"",""44"",""263645""
""blur"",""55"",""342575""
","""event"",""trial"",""time""
""focus"",""0"",""0""
""focus"",""1"",""14374""
""focus"",""44"",""279549""
""focus"",""57"",""351101""
","""event"",""trial"",""time""
""fullscreenenter"",""1"",""15979""
","""event"",""trial"",""time""
""fullscreenexit"",""44"",""262195""
",,null,run_exp/static/audio/clip_26_correct_quiz.m4a,null,,,,,,,,,,,,,,,,,,,,,,,,
quiz_correct_continue,57,352414,0.0-22.0-1.0,"""event"",""trial"",""time""
""focus"",""0"",""0""
""blur"",""0"",""0""
""focus"",""1"",""14374""
""fullscreenenter"",""1"",""15979""
""fullscreenexit"",""44"",""262195""
""blur"",""44"",""263645""
""focus"",""44"",""279549""
""blur"",""55"",""342575""
""focus"",""57"",""351101""
""blur"",""58"",""353251""
","""event"",""trial"",""time""
""blur"",""0"",""0""
""blur"",""44"",""263645""
""blur"",""55"",""342575""
""blur"",""58"",""353251""
","""event"",""trial"",""time""
""focus"",""0"",""0""
""focus"",""1"",""14374""
""focus"",""44"",""279549""
""focus"",""57"",""351101""
","""event"",""trial"",""time""
""fullscreenenter"",""1"",""15979""
","""event"",""trial"",""time""
""fullscreenexit"",""44"",""262195""
",,5240,<p>Good job! You're now ready to move on to the real game!</p>,,,,,,,0,,,,,,,,,,,,,,,,,,
audio-keyboard-response,58,362533,0.0-22.0-2.0,"""event"",""trial"",""time""
""focus"",""0"",""0""
""blur"",""0"",""0""
""focus"",""1"",""14374""
""fullscreenenter"",""1"",""15979""
""fullscreenexit"",""44"",""262195""
""blur"",""44"",""263645""
""focus"",""44"",""279549""
""blur"",""55"",""342575""
""focus"",""57"",""351101""
""blur"",""58"",""353251""
""focus"",""59"",""363681""
""blur"",""59"",""364444""
""focus"",""59"",""366960""
","""event"",""trial"",""time""
""blur"",""0"",""0""
""blur"",""44"",""263645""
""blur"",""55"",""342575""
""blur"",""58"",""353251""
""blur"",""59"",""364444""
","""event"",""trial"",""time""
""focus"",""0"",""0""
""focus"",""1"",""14374""
""focus"",""44"",""279549""
""focus"",""57"",""351101""
""focus"",""59"",""363681""
""focus"",""59"",""366960""
","""event"",""trial"",""time""
""fullscreenenter"",""1"",""15979""
","""event"",""trial"",""time""
""fullscreenexit"",""44"",""262195""
",,null,run_exp/static/audio/clip_28_real_game.m4a,null,,,,,,,,,,,,,,,,,,,,,,,,
instruc_begin_exp_contine,59,368956,0.0-22.0-3.0,"""event"",""trial"",""time""
""focus"",""0"",""0""
""blur"",""0"",""0""
""focus"",""1"",""14374""
""fullscreenenter"",""1"",""15979""
""fullscreenexit"",""44"",""262195""
""blur"",""44"",""263645""
""focus"",""44"",""279549""
""blur"",""55"",""342575""
""focus"",""57"",""351101""
""blur"",""58"",""353251""
""focus"",""59"",""363681""
""blur"",""59"",""364444""
""focus"",""59"",""366960""
","""event"",""trial"",""time""
""blur"",""0"",""0""
""blur"",""44"",""263645""
""blur"",""55"",""342575""
""blur"",""58"",""353251""
""blur"",""59"",""364444""
","""event"",""trial"",""time""
""focus"",""0"",""0""
""focus"",""1"",""14374""
""focus"",""44"",""279549""
""focus"",""57"",""351101""
""focus"",""59"",""363681""
""focus"",""59"",""366960""
","""event"",""trial"",""time""
""fullscreenenter"",""1"",""15979""
","""event"",""trial"",""time""
""fullscreenexit"",""44"",""262195""
",,6424,"<p>Now that you know how  to dig for space treasure and travel to new planets,you can start exploring! </p><p>Do you want to go over the instructions again or get started with the real game?</p>",,,,,,,1,,,,,,1,,,,,,,,,,,,
alien_welcome,60,373961,0.0-23.0-0.0,"""event"",""trial"",""time""
""focus"",""0"",""0""
""blur"",""0"",""0""
""focus"",""1"",""14374""
""fullscreenenter"",""1"",""15979""
""fullscreenexit"",""44"",""262195""
""blur"",""44"",""263645""
""focus"",""44"",""279549""
""blur"",""55"",""342575""
""focus"",""57"",""351101""
""blur"",""58"",""353251""
""focus"",""59"",""363681""
""blur"",""59"",""364444""
""focus"",""59"",""366960""
","""event"",""trial"",""time""
""blur"",""0"",""0""
""blur"",""44"",""263645""
""blur"",""55"",""342575""
""blur"",""58"",""353251""
""blur"",""59"",""364444""
","""event"",""trial"",""time""
""focus"",""0"",""0""
""focus"",""1"",""14374""
""focus"",""44"",""279549""
""focus"",""57"",""351101""
""focus"",""59"",""363681""
""focus"",""59"",""366960""
","""event"",""trial"",""time""
""fullscreenenter"",""1"",""15979""
","""event"",""trial"",""time""
""fullscreenexit"",""44"",""262195""
",,null,run_exp/static/images/task_images/aliens/old_aliens/planet/alien_planet-40.jpg,null,,,,,,,,,,,,,40,"40,60,10,30,66,31,48,79,57,37,19,71,76,36,2,69,42,16,39,5,18,63,46,65,20,70",,,,,,,,,,
land,61,374462,0.0-23.0-1.0,"""event"",""trial"",""time""
""focus"",""0"",""0""
""blur"",""0"",""0""
""focus"",""1"",""14374""
""fullscreenenter"",""1"",""15979""
""fullscreenexit"",""44"",""262195""
""blur"",""44"",""263645""
""focus"",""44"",""279549""
""blur"",""55"",""342575""
""focus"",""57"",""351101""
""blur"",""58"",""353251""
""focus"",""59"",""363681""
""blur"",""59"",""364444""
""focus"",""59"",""366960""
","""event"",""trial"",""time""
""blur"",""0"",""0""
""blur"",""44"",""263645""
""blur"",""55"",""342575""
""blur"",""58"",""353251""
""blur"",""59"",""364444""
","""event"",""trial"",""time""
""focus"",""0"",""0""
""focus"",""1"",""14374""
""focus"",""44"",""279549""
""focus"",""57"",""351101""
""focus"",""59"",""363681""
""focus"",""59"",""366960""
","""event"",""trial"",""time""
""fullscreenenter"",""1"",""15979""
","""event"",""trial"",""time""
""fullscreenexit"",""44"",""262195""
",,null,run_exp/static/images/task_images/land.jpg,null,,,,,,,99,,,1,,,,,,,,,,,,,,
dig,62,376468,0.0-23.0-2.0,"""event"",""trial"",""time""
""focus"",""0"",""0""
""blur"",""0"",""0""
""focus"",""1"",""14374""
""fullscreenenter"",""1"",""15979""
""fullscreenexit"",""44"",""262195""
""blur"",""44"",""263645""
""focus"",""44"",""279549""
""blur"",""55"",""342575""
""focus"",""57"",""351101""
""blur"",""58"",""353251""
""focus"",""59"",""363681""
""blur"",""59"",""364444""
""focus"",""59"",""366960""
","""event"",""trial"",""time""
""blur"",""0"",""0""
""blur"",""44"",""263645""
""blur"",""55"",""342575""
""blur"",""58"",""353251""
""blur"",""59"",""364444""
","""event"",""trial"",""time""
""focus"",""0"",""0""
""focus"",""1"",""14374""
""focus"",""44"",""279549""
""focus"",""57"",""351101""
""focus"",""59"",""363681""
""focus"",""59"",""366960""
","""event"",""trial"",""time""
""fullscreenenter"",""1"",""15979""
","""event"",""trial"",""time""
""fullscreenexit"",""44"",""262195""
",,,,,,,,,,,,"[{""stimulus"":""run_exp/static/images/task_images/dig.jpg"",""time"":0},{""stimulus"":""run_exp/static/images/task_images/land.jpg"",""time"":682},{""stimulus"":""run_exp/static/images/task_images/dig.jpg"",""time"":1344}]",[],1,,,,,,,,,,,,,,
harvest,63,377469,0.0-23.0-3.0,"""event"",""trial"",""time""
""focus"",""0"",""0""
""blur"",""0"",""0""
""focus"",""1"",""14374""
""fullscreenenter"",""1"",""15979""
""fullscreenexit"",""44"",""262195""
""blur"",""44"",""263645""
""focus"",""44"",""279549""
""blur"",""55"",""342575""
""focus"",""57"",""351101""
""blur"",""58"",""353251""
""focus"",""59"",""363681""
""blur"",""59"",""364444""
""focus"",""59"",""366960""
","""event"",""trial"",""time""
""blur"",""0"",""0""
""blur"",""44"",""263645""
""blur"",""55"",""342575""
""blur"",""58"",""353251""
""blur"",""59"",""364444""
","""event"",""trial"",""time""
""focus"",""0"",""0""
""focus"",""1"",""14374""
""focus"",""44"",""279549""
""focus"",""57"",""351101""
""focus"",""59"",""363681""
""focus"",""59"",""366960""
","""event"",""trial"",""time""
""fullscreenenter"",""1"",""15979""
","""event"",""trial"",""time""
""fullscreenexit"",""44"",""262195""
",,null,run_exp/static/images/task_images/gems/99.jpg,null,,,,,,,26,,,1,,,,,99,0.261764559,0.262626263,,,,,,,
decision,64,377914,0.0-23.0-4.0,"""event"",""trial"",""time""
""focus"",""0"",""0""
""blur"",""0"",""0""
""focus"",""1"",""14374""
""fullscreenenter"",""1"",""15979""
""fullscreenexit"",""44"",""262195""
""blur"",""44"",""263645""
""focus"",""44"",""279549""
""blur"",""55"",""342575""
""focus"",""57"",""351101""
""blur"",""58"",""353251""
""focus"",""59"",""363681""
""blur"",""59"",""364444""
""focus"",""59"",""366960""
","""event"",""trial"",""time""
""blur"",""0"",""0""
""blur"",""44"",""263645""
""blur"",""55"",""342575""
""blur"",""58"",""353251""
""blur"",""59"",""364444""
","""event"",""trial"",""time""
""focus"",""0"",""0""
""focus"",""1"",""14374""
""focus"",""44"",""279549""
""focus"",""57"",""351101""
""focus"",""59"",""363681""
""focus"",""59"",""366960""
","""event"",""trial"",""time""
""fullscreenenter"",""1"",""15979""
","""event"",""trial"",""time""
""fullscreenexit"",""44"",""262195""
",,444,run_exp/static/images/task_images/land.jpg,65,,,,,,,26,,,1,,,,,,,,8957,1,0,FALSE,,,
dig,65,380472,0.0-24.0-0.0,"""event"",""trial"",""time""
""focus"",""0"",""0""
""blur"",""0"",""0""
""focus"",""1"",""14374""
""fullscreenenter"",""1"",""15979""
""fullscreenexit"",""44"",""262195""
""blur"",""44"",""263645""
""focus"",""44"",""279549""
""blur"",""55"",""342575""
""focus"",""57"",""351101""
""blur"",""58"",""353251""
""focus"",""59"",""363681""
""blur"",""59"",""364444""
""focus"",""59"",""366960""
","""event"",""trial"",""time""
""blur"",""0"",""0""
""blur"",""44"",""263645""
""blur"",""55"",""342575""
""blur"",""58"",""353251""
""blur"",""59"",""364444""
","""event"",""trial"",""time""
""focus"",""0"",""0""
""focus"",""1"",""14374""
""focus"",""44"",""279549""
""focus"",""57"",""351101""
""focus"",""59"",""363681""
""focus"",""59"",""366960""
","""event"",""trial"",""time""
""fullscreenenter"",""1"",""15979""
","""event"",""trial"",""time""
""fullscreenexit"",""44"",""262195""
",,,,,,,,,,,,"[{""stimulus"":""run_exp/static/images/task_images/dig.jpg"",""time"":0},{""stimulus"":""run_exp/static/images/task_images/land.jpg"",""time"":854},{""stimulus"":""run_exp/static/images/task_images/dig.jpg"",""time"":1711}]",[],1,,,,,,,,,,,,,,
harvest,66,381480,0.0-24.0-1.0,"""event"",""trial"",""time""
""focus"",""0"",""0""
""blur"",""0"",""0""
""focus"",""1"",""14374""
""fullscreenenter"",""1"",""15979""
""fullscreenexit"",""44"",""262195""
""blur"",""44"",""263645""
""focus"",""44"",""279549""
""blur"",""55"",""342575""
""focus"",""57"",""351101""
""blur"",""58"",""353251""
""focus"",""59"",""363681""
""blur"",""59"",""364444""
""focus"",""59"",""366960""
","""event"",""trial"",""time""
""blur"",""0"",""0""
""blur"",""44"",""263645""
""blur"",""55"",""342575""
""blur"",""58"",""353251""
""blur"",""59"",""364444""
","""event"",""trial"",""time""
""focus"",""0"",""0""
""focus"",""1"",""14374""
""focus"",""44"",""279549""
""focus"",""57"",""351101""
""focus"",""59"",""363681""
""focus"",""59"",""366960""
","""event"",""trial"",""time""
""fullscreenenter"",""1"",""15979""
","""event"",""trial"",""time""
""fullscreenexit"",""44"",""262195""
",,null,run_exp/static/images/task_images/gems/26.jpg,null,,,,,,,7,,,1,,,,,26,0.254802524,0.269230769,,,,,,,
decision,67,381940,0.0-24.0-2.0,"""event"",""trial"",""time""
""focus"",""0"",""0""
""blur"",""0"",""0""
""focus"",""1"",""14374""
""fullscreenenter"",""1"",""15979""
""fullscreenexit"",""44"",""262195""
""blur"",""44"",""263645""
""focus"",""44"",""279549""
""blur"",""55"",""342575""
""focus"",""57"",""351101""
""blur"",""58"",""353251""
""focus"",""59"",""363681""
""blur"",""59"",""364444""
""focus"",""59"",""366960""
","""event"",""trial"",""time""
""blur"",""0"",""0""
""blur"",""44"",""263645""
""blur"",""55"",""342575""
""blur"",""58"",""353251""
""blur"",""59"",""364444""
","""event"",""trial"",""time""
""focus"",""0"",""0""
""focus"",""1"",""14374""
""focus"",""44"",""279549""
""focus"",""57"",""351101""
""focus"",""59"",""363681""
""focus"",""59"",""366960""
","""event"",""trial"",""time""
""fullscreenenter"",""1"",""15979""
","""event"",""trial"",""time""
""fullscreenexit"",""44"",""262195""
",,460,run_exp/static/images/task_images/land.jpg,65,,,,,,,7,,,1,,,,,,,,12983,1,1,FALSE,,,
dig,68,384495,0.0-25.0-0.0,"""event"",""trial"",""time""
""focus"",""0"",""0""
""blur"",""0"",""0""
""focus"",""1"",""14374""
""fullscreenenter"",""1"",""15979""
""fullscreenexit"",""44"",""262195""
""blur"",""44"",""263645""
""focus"",""44"",""279549""
""blur"",""55"",""342575""
""focus"",""57"",""351101""
""blur"",""58"",""353251""
""focus"",""59"",""363681""
""blur"",""59"",""364444""
""focus"",""59"",""366960""
","""event"",""trial"",""time""
""blur"",""0"",""0""
""blur"",""44"",""263645""
""blur"",""55"",""342575""
""blur"",""58"",""353251""
""blur"",""59"",""364444""
","""event"",""trial"",""time""
""focus"",""0"",""0""
""focus"",""1"",""14374""
""focus"",""44"",""279549""
""focus"",""57"",""351101""
""focus"",""59"",""363681""
""focus"",""59"",""366960""
","""event"",""trial"",""time""
""fullscreenenter"",""1"",""15979""
","""event"",""trial"",""time""
""fullscreenexit"",""44"",""262195""
",,,,,,,,,,,,"[{""stimulus"":""run_exp/static/images/task_images/dig.jpg"",""time"":0},{""stimulus"":""run_exp/static/images/task_images/land.jpg"",""time"":854},{""stimulus"":""run_exp/static/images/task_images/dig.jpg"",""time"":1693}]",[],1,,,,,,,,,,,,,,
harvest,69,385497,0.0-25.0-1.0,"""event"",""trial"",""time""
""focus"",""0"",""0""
""blur"",""0"",""0""
""focus"",""1"",""14374""
""fullscreenenter"",""1"",""15979""
""fullscreenexit"",""44"",""262195""
""blur"",""44"",""263645""
""focus"",""44"",""279549""
""blur"",""55"",""342575""
""focus"",""57"",""351101""
""blur"",""58"",""353251""
""focus"",""59"",""363681""
""blur"",""59"",""364444""
""focus"",""59"",""366960""
","""event"",""trial"",""time""
""blur"",""0"",""0""
""blur"",""44"",""263645""
""blur"",""55"",""342575""
""blur"",""58"",""353251""
""blur"",""59"",""364444""
","""event"",""trial"",""time""
""focus"",""0"",""0""
""focus"",""1"",""14374""
""focus"",""44"",""279549""
""focus"",""57"",""351101""
""focus"",""59"",""363681""
""focus"",""59"",""366960""
","""event"",""trial"",""time""
""fullscreenenter"",""1"",""15979""
","""event"",""trial"",""time""
""fullscreenexit"",""44"",""262195""
",,null,run_exp/static/images/task_images/gems/7.jpg,null,,,,,,,2,,,1,,,,,7,0.226170184,0.285714286,,,,,,,
decision,70,385915,0.0-25.0-2.0,"""event"",""trial"",""time""
""focus"",""0"",""0""
""blur"",""0"",""0""
""focus"",""1"",""14374""
""fullscreenenter"",""1"",""15979""
""fullscreenexit"",""44"",""262195""
""blur"",""44"",""263645""
""focus"",""44"",""279549""
""blur"",""55"",""342575""
""focus"",""57"",""351101""
""blur"",""58"",""353251""
""focus"",""59"",""363681""
""blur"",""59"",""364444""
""focus"",""59"",""366960""
","""event"",""trial"",""time""
""blur"",""0"",""0""
""blur"",""44"",""263645""
""blur"",""55"",""342575""
""blur"",""58"",""353251""
""blur"",""59"",""364444""
","""event"",""trial"",""time""
""focus"",""0"",""0""
""focus"",""1"",""14374""
""focus"",""44"",""279549""
""focus"",""57"",""351101""
""focus"",""59"",""363681""
""focus"",""59"",""366960""
","""event"",""trial"",""time""
""fullscreenenter"",""1"",""15979""
","""event"",""trial"",""time""
""fullscreenexit"",""44"",""262195""
",,417,run_exp/static/images/task_images/land.jpg,65,,,,,,,2,,,1,,,,,,,,16958,1,2,FALSE,,,
dig,71,388504,0.0-26.0-0.0,"""event"",""trial"",""time""
""focus"",""0"",""0""
""blur"",""0"",""0""
""focus"",""1"",""14374""
""fullscreenenter"",""1"",""15979""
""fullscreenexit"",""44"",""262195""
""blur"",""44"",""263645""
""focus"",""44"",""279549""
""blur"",""55"",""342575""
""focus"",""57"",""351101""
""blur"",""58"",""353251""
""focus"",""59"",""363681""
""blur"",""59"",""364444""
""focus"",""59"",""366960""
","""event"",""trial"",""time""
""blur"",""0"",""0""
""blur"",""44"",""263645""
""blur"",""55"",""342575""
""blur"",""58"",""353251""
""blur"",""59"",""364444""
","""event"",""trial"",""time""
""focus"",""0"",""0""
""focus"",""1"",""14374""
""focus"",""44"",""279549""
""focus"",""57"",""351101""
""focus"",""59"",""363681""
""focus"",""59"",""366960""
","""event"",""trial"",""time""
""fullscreenenter"",""1"",""15979""
","""event"",""trial"",""time""
""fullscreenexit"",""44"",""262195""
",,,,,,,,,,,,"[{""stimulus"":""run_exp/static/images/task_images/dig.jpg"",""time"":0},{""stimulus"":""run_exp/static/images/task_images/land.jpg"",""time"":865},{""stimulus"":""run_exp/static/images/task_images/dig.jpg"",""time"":1736}]",[],1,,,,,,,,,,,,,,
harvest,72,389512,0.0-26.0-1.0,"""event"",""trial"",""time""
""focus"",""0"",""0""
""blur"",""0"",""0""
""focus"",""1"",""14374""
""fullscreenenter"",""1"",""15979""
""fullscreenexit"",""44"",""262195""
""blur"",""44"",""263645""
""focus"",""44"",""279549""
""blur"",""55"",""342575""
""focus"",""57"",""351101""
""blur"",""58"",""353251""
""focus"",""59"",""363681""
""blur"",""59"",""364444""
""focus"",""59"",""366960""
","""event"",""trial"",""time""
""blur"",""0"",""0""
""blur"",""44"",""263645""
""blur"",""55"",""342575""
""blur"",""58"",""353251""
""blur"",""59"",""364444""
","""event"",""trial"",""time""
""focus"",""0"",""0""
""focus"",""1"",""14374""
""focus"",""44"",""279549""
""focus"",""57"",""351101""
""focus"",""59"",""363681""
""focus"",""59"",""366960""
","""event"",""trial"",""time""
""fullscreenenter"",""1"",""15979""
","""event"",""trial"",""time""
""fullscreenexit"",""44"",""262195""
",,null,run_exp/static/images/task_images/gems/2.jpg,null,,,,,,,0,,,1,,,,,2,0.204554366,0,,,,,,,
decision,73,389859,0.0-26.0-2.0,"""event"",""trial"",""time""
""focus"",""0"",""0""
""blur"",""0"",""0""
""focus"",""1"",""14374""
""fullscreenenter"",""1"",""15979""
""fullscreenexit"",""44"",""262195""
""blur"",""44"",""263645""
""focus"",""44"",""279549""
""blur"",""55"",""342575""
""focus"",""57"",""351101""
""blur"",""58"",""353251""
""focus"",""59"",""363681""
""blur"",""59"",""364444""
""focus"",""59"",""366960""
","""event"",""trial"",""time""
""blur"",""0"",""0""
""blur"",""44"",""263645""
""blur"",""55"",""342575""
""blur"",""58"",""353251""
""blur"",""59"",""364444""
","""event"",""trial"",""time""
""focus"",""0"",""0""
""focus"",""1"",""14374""
""focus"",""44"",""279549""
""focus"",""57"",""351101""
""focus"",""59"",""363681""
""focus"",""59"",""366960""
","""event"",""trial"",""time""
""fullscreenenter"",""1"",""15979""
","""event"",""trial"",""time""
""fullscreenexit"",""44"",""262195""
",,346,run_exp/static/images/task_images/land.jpg,65,,,,,,,0,,,1,,,,,,,,20902,1,3,FALSE,,,
dig,74,392517,0.0-27.0-0.0,"""event"",""trial"",""time""
""focus"",""0"",""0""
""blur"",""0"",""0""
""focus"",""1"",""14374""
""fullscreenenter"",""1"",""15979""
""fullscreenexit"",""44"",""262195""
""blur"",""44"",""263645""
""focus"",""44"",""279549""
""blur"",""55"",""342575""
""focus"",""57"",""351101""
""blur"",""58"",""353251""
""focus"",""59"",""363681""
""blur"",""59"",""364444""
""focus"",""59"",""366960""
","""event"",""trial"",""time""
""blur"",""0"",""0""
""blur"",""44"",""263645""
""blur"",""55"",""342575""
""blur"",""58"",""353251""
""blur"",""59"",""364444""
","""event"",""trial"",""time""
""focus"",""0"",""0""
""focus"",""1"",""14374""
""focus"",""44"",""279549""
""focus"",""57"",""351101""
""focus"",""59"",""363681""
""focus"",""59"",""366960""
","""event"",""trial"",""time""
""fullscreenenter"",""1"",""15979""
","""event"",""trial"",""time""
""fullscreenexit"",""44"",""262195""
",,,,,,,,,,,,"[{""stimulus"":""run_exp/static/images/task_images/dig.jpg"",""time"":0},{""stimulus"":""run_exp/static/images/task_images/land.jpg"",""time"":886},{""stimulus"":""run_exp/static/images/task_images/dig.jpg"",""time"":1772}]",[],1,,,,,,,,,,,,,,
harvest,75,393529,0.0-27.0-1.0,"""event"",""trial"",""time""
""focus"",""0"",""0""
""blur"",""0"",""0""
""focus"",""1"",""14374""
""fullscreenenter"",""1"",""15979""
""fullscreenexit"",""44"",""262195""
""blur"",""44"",""263645""
""focus"",""44"",""279549""
""blur"",""55"",""342575""
""focus"",""57"",""351101""
""blur"",""58"",""353251""
""focus"",""59"",""363681""
""blur"",""59"",""364444""
""focus"",""59"",""366960""
","""event"",""trial"",""time""
""blur"",""0"",""0""
""blur"",""44"",""263645""
""blur"",""55"",""342575""
""blur"",""58"",""353251""
""blur"",""59"",""364444""
","""event"",""trial"",""time""
""focus"",""0"",""0""
""focus"",""1"",""14374""
""focus"",""44"",""279549""
""focus"",""57"",""351101""
""focus"",""59"",""363681""
""focus"",""59"",""366960""
","""event"",""trial"",""time""
""fullscreenenter"",""1"",""15979""
","""event"",""trial"",""time""
""fullscreenexit"",""44"",""262195""
",,null,run_exp/static/images/task_images/gems/0.jpg,null,,,,,,,0,,,1,,,,,0,0.15454096,NaN,,,,,,,
decision,76,394292,0.0-27.0-2.0,"""event"",""trial"",""time""
""focus"",""0"",""0""
""blur"",""0"",""0""
""focus"",""1"",""14374""
""fullscreenenter"",""1"",""15979""
""fullscreenexit"",""44"",""262195""
""blur"",""44"",""263645""
""focus"",""44"",""279549""
""blur"",""55"",""342575""
""focus"",""57"",""351101""
""blur"",""58"",""353251""
""focus"",""59"",""363681""
""blur"",""59"",""364444""
""focus"",""59"",""366960""
","""event"",""trial"",""time""
""blur"",""0"",""0""
""blur"",""44"",""263645""
""blur"",""55"",""342575""
""blur"",""58"",""353251""
""blur"",""59"",""364444""
","""event"",""trial"",""time""
""focus"",""0"",""0""
""focus"",""1"",""14374""
""focus"",""44"",""279549""
""focus"",""57"",""351101""
""focus"",""59"",""363681""
""focus"",""59"",""366960""
","""event"",""trial"",""time""
""fullscreenenter"",""1"",""15979""
","""event"",""trial"",""time""
""fullscreenexit"",""44"",""262195""
",,763,run_exp/static/images/task_images/land.jpg,76,,,,,,,0,,,1,,,,,,,,25335,1,4,TRUE,,,
travel,77,403542,0.0-28.0-0.0,"""event"",""trial"",""time""
""focus"",""0"",""0""
""blur"",""0"",""0""
""focus"",""1"",""14374""
""fullscreenenter"",""1"",""15979""
""fullscreenexit"",""44"",""262195""
""blur"",""44"",""263645""
""focus"",""44"",""279549""
""blur"",""55"",""342575""
""focus"",""57"",""351101""
""blur"",""58"",""353251""
""focus"",""59"",""363681""
""blur"",""59"",""364444""
""focus"",""59"",""366960""
","""event"",""trial"",""time""
""blur"",""0"",""0""
""blur"",""44"",""263645""
""blur"",""55"",""342575""
""blur"",""58"",""353251""
""blur"",""59"",""364444""
","""event"",""trial"",""time""
""focus"",""0"",""0""
""focus"",""1"",""14374""
""focus"",""44"",""279549""
""focus"",""57"",""351101""
""focus"",""59"",""363681""
""focus"",""59"",""366960""
","""event"",""trial"",""time""
""fullscreenenter"",""1"",""15979""
","""event"",""trial"",""time""
""fullscreenexit"",""44"",""262195""
",,,,,,,,,,,,"[{""stimulus"":""run_exp/static/images/task_images/rocket-01.jpg"",""time"":0},{""stimulus"":""run_exp/static/images/task_images/rocket-02.jpg"",""time"":1042},{""stimulus"":""run_exp/static/images/task_images/rocket-03.jpg"",""time"":2066},{""stimulus"":""run_exp/static/images/task_images/rocket-04.jpg"",""time"":3090},{""stimulus"":""run_exp/static/images/task_images/rocket-05.jpg"",""time"":4120},{""stimulus"":""run_exp/static/images/task_images/rocket-06.jpg"",""time"":5132},{""stimulus"":""run_exp/static/images/task_images/rocket-07.jpg"",""time"":6158},{""stimulus"":""run_exp/static/images/task_images/rocket-08.jpg"",""time"":7184},{""stimulus"":""run_exp/static/images/task_images/rocket-09.jpg"",""time"":8217}]",[],1,,,,,,,,,,,,,,
alien_welcome,78,408547,0.0-28.0-1.0,"""event"",""trial"",""time""
""focus"",""0"",""0""
""blur"",""0"",""0""
""focus"",""1"",""14374""
""fullscreenenter"",""1"",""15979""
""fullscreenexit"",""44"",""262195""
""blur"",""44"",""263645""
""focus"",""44"",""279549""
""blur"",""55"",""342575""
""focus"",""57"",""351101""
""blur"",""58"",""353251""
""focus"",""59"",""363681""
""blur"",""59"",""364444""
""focus"",""59"",""366960""
","""event"",""trial"",""time""
""blur"",""0"",""0""
""blur"",""44"",""263645""
""blur"",""55"",""342575""
""blur"",""58"",""353251""
""blur"",""59"",""364444""
","""event"",""trial"",""time""
""focus"",""0"",""0""
""focus"",""1"",""14374""
""focus"",""44"",""279549""
""focus"",""57"",""351101""
""focus"",""59"",""363681""
""focus"",""59"",""366960""
","""event"",""trial"",""time""
""fullscreenenter"",""1"",""15979""
","""event"",""trial"",""time""
""fullscreenexit"",""44"",""262195""
",,null,run_exp/static/images/task_images/aliens/old_aliens/planet/alien_planet-60.jpg,null,,,,,,,,,,,,,60,"40,60,10,30,66,31,48,79,57,37,19,71,76,36,2,69,42,16,39,5,18,63,46,65,20,70",,,,,,,,,,
land,79,409064,0.0-28.0-2.0,"""event"",""trial"",""time""
""focus"",""0"",""0""
""blur"",""0"",""0""
""focus"",""1"",""14374""
""fullscreenenter"",""1"",""15979""
""fullscreenexit"",""44"",""262195""
""blur"",""44"",""263645""
""focus"",""44"",""279549""
""blur"",""55"",""342575""
""focus"",""57"",""351101""
""blur"",""58"",""353251""
""focus"",""59"",""363681""
""blur"",""59"",""364444""
""focus"",""59"",""366960""
","""event"",""trial"",""time""
""blur"",""0"",""0""
""blur"",""44"",""263645""
""blur"",""55"",""342575""
""blur"",""58"",""353251""
""blur"",""59"",""364444""
","""event"",""trial"",""time""
""focus"",""0"",""0""
""focus"",""1"",""14374""
""focus"",""44"",""279549""
""focus"",""57"",""351101""
""focus"",""59"",""363681""
""focus"",""59"",""366960""
","""event"",""trial"",""time""
""fullscreenenter"",""1"",""15979""
","""event"",""trial"",""time""
""fullscreenexit"",""44"",""262195""
",,null,run_exp/static/images/task_images/land.jpg,null,,,,,,,95,,,2,,,,,,,,,,,,,,
dig,80,411079,0.0-28.0-3.0,"""event"",""trial"",""time""
""focus"",""0"",""0""
""blur"",""0"",""0""
""focus"",""1"",""14374""
""fullscreenenter"",""1"",""15979""
""fullscreenexit"",""44"",""262195""
""blur"",""44"",""263645""
""focus"",""44"",""279549""
""blur"",""55"",""342575""
""focus"",""57"",""351101""
""blur"",""58"",""353251""
""focus"",""59"",""363681""
""blur"",""59"",""364444""
""focus"",""59"",""366960""
","""event"",""trial"",""time""
""blur"",""0"",""0""
""blur"",""44"",""263645""
""blur"",""55"",""342575""
""blur"",""58"",""353251""
""blur"",""59"",""364444""
","""event"",""trial"",""time""
""focus"",""0"",""0""
""focus"",""1"",""14374""
""focus"",""44"",""279549""
""focus"",""57"",""351101""
""focus"",""59"",""363681""
""focus"",""59"",""366960""
","""event"",""trial"",""time""
""fullscreenenter"",""1"",""15979""
","""event"",""trial"",""time""
""fullscreenexit"",""44"",""262195""
",,,,,,,,,,,,"[{""stimulus"":""run_exp/static/images/task_images/dig.jpg"",""time"":0},{""stimulus"":""run_exp/static/images/task_images/land.jpg"",""time"":678},{""stimulus"":""run_exp/static/images/task_images/dig.jpg"",""time"":1338}]",[],2,,,,,,,,,,,,,,
harvest,81,412084,0.0-28.0-4.0,"""event"",""trial"",""time""
""focus"",""0"",""0""
""blur"",""0"",""0""
""focus"",""1"",""14374""
""fullscreenenter"",""1"",""15979""
""fullscreenexit"",""44"",""262195""
""blur"",""44"",""263645""
""focus"",""44"",""279549""
""blur"",""55"",""342575""
""focus"",""57"",""351101""
""blur"",""58"",""353251""
""focus"",""59"",""363681""
""blur"",""59"",""364444""
""focus"",""59"",""366960""
","""event"",""trial"",""time""
""blur"",""0"",""0""
""blur"",""44"",""263645""
""blur"",""55"",""342575""
""blur"",""58"",""353251""
""blur"",""59"",""364444""
","""event"",""trial"",""time""
""focus"",""0"",""0""
""focus"",""1"",""14374""
""focus"",""44"",""279549""
""focus"",""57"",""351101""
""focus"",""59"",""363681""
""focus"",""59"",""366960""
","""event"",""trial"",""time""
""fullscreenenter"",""1"",""15979""
","""event"",""trial"",""time""
""fullscreenexit"",""44"",""262195""
",,null,run_exp/static/images/task_images/gems/95.jpg,null,,,,,,,12,,,2,,,,,95,0.131374358,0.126315789,,,,,,,
decision,82,412557,0.0-28.0-5.0,"""event"",""trial"",""time""
""focus"",""0"",""0""
""blur"",""0"",""0""
""focus"",""1"",""14374""
""fullscreenenter"",""1"",""15979""
""fullscreenexit"",""44"",""262195""
""blur"",""44"",""263645""
""focus"",""44"",""279549""
""blur"",""55"",""342575""
""focus"",""57"",""351101""
""blur"",""58"",""353251""
""focus"",""59"",""363681""
""blur"",""59"",""364444""
""focus"",""59"",""366960""
","""event"",""trial"",""time""
""blur"",""0"",""0""
""blur"",""44"",""263645""
""blur"",""55"",""342575""
""blur"",""58"",""353251""
""blur"",""59"",""364444""
","""event"",""trial"",""time""
""focus"",""0"",""0""
""focus"",""1"",""14374""
""focus"",""44"",""279549""
""focus"",""57"",""351101""
""focus"",""59"",""363681""
""focus"",""59"",""366960""
","""event"",""trial"",""time""
""fullscreenenter"",""1"",""15979""
","""event"",""trial"",""time""
""fullscreenexit"",""44"",""262195""
",,473,run_exp/static/images/task_images/land.jpg,65,,,,,,,12,,,2,,,,,,,,43600,1,0,FALSE,,,
dig,83,415093,0.0-29.0-0.0,"""event"",""trial"",""time""
""focus"",""0"",""0""
""blur"",""0"",""0""
""focus"",""1"",""14374""
""fullscreenenter"",""1"",""15979""
""fullscreenexit"",""44"",""262195""
""blur"",""44"",""263645""
""focus"",""44"",""279549""
""blur"",""55"",""342575""
""focus"",""57"",""351101""
""blur"",""58"",""353251""
""focus"",""59"",""363681""
""blur"",""59"",""364444""
""focus"",""59"",""366960""
","""event"",""trial"",""time""
""blur"",""0"",""0""
""blur"",""44"",""263645""
""blur"",""55"",""342575""
""blur"",""58"",""353251""
""blur"",""59"",""364444""
","""event"",""trial"",""time""
""focus"",""0"",""0""
""focus"",""1"",""14374""
""focus"",""44"",""279549""
""focus"",""57"",""351101""
""focus"",""59"",""363681""
""focus"",""59"",""366960""
","""event"",""trial"",""time""
""fullscreenenter"",""1"",""15979""
","""event"",""trial"",""time""
""fullscreenexit"",""44"",""262195""
",,,,,,,,,,,,"[{""stimulus"":""run_exp/static/images/task_images/dig.jpg"",""time"":0},{""stimulus"":""run_exp/static/images/task_images/land.jpg"",""time"":859},{""stimulus"":""run_exp/static/images/task_images/dig.jpg"",""time"":1696}]",[],2,,,,,,,,,,,,,,
harvest,84,416105,0.0-29.0-1.0,"""event"",""trial"",""time""
""focus"",""0"",""0""
""blur"",""0"",""0""
""focus"",""1"",""14374""
""fullscreenenter"",""1"",""15979""
""fullscreenexit"",""44"",""262195""
""blur"",""44"",""263645""
""focus"",""44"",""279549""
""blur"",""55"",""342575""
""focus"",""57"",""351101""
""blur"",""58"",""353251""
""focus"",""59"",""363681""
""blur"",""59"",""364444""
""focus"",""59"",""366960""
","""event"",""trial"",""time""
""blur"",""0"",""0""
""blur"",""44"",""263645""
""blur"",""55"",""342575""
""blur"",""58"",""353251""
""blur"",""59"",""364444""
","""event"",""trial"",""time""
""focus"",""0"",""0""
""focus"",""1"",""14374""
""focus"",""44"",""279549""
""focus"",""57"",""351101""
""focus"",""59"",""363681""
""focus"",""59"",""366960""
","""event"",""trial"",""time""
""fullscreenenter"",""1"",""15979""
","""event"",""trial"",""time""
""fullscreenexit"",""44"",""262195""
",,null,run_exp/static/images/task_images/gems/12.jpg,null,,,,,,,2,,,2,,,,,12,0.170924516,0.166666667,,,,,,,
decision,85,416574,0.0-29.0-2.0,"""event"",""trial"",""time""
""focus"",""0"",""0""
""blur"",""0"",""0""
""focus"",""1"",""14374""
""fullscreenenter"",""1"",""15979""
""fullscreenexit"",""44"",""262195""
""blur"",""44"",""263645""
""focus"",""44"",""279549""
""blur"",""55"",""342575""
""focus"",""57"",""351101""
""blur"",""58"",""353251""
""focus"",""59"",""363681""
""blur"",""59"",""364444""
""focus"",""59"",""366960""
","""event"",""trial"",""time""
""blur"",""0"",""0""
""blur"",""44"",""263645""
""blur"",""55"",""342575""
""blur"",""58"",""353251""
""blur"",""59"",""364444""
","""event"",""trial"",""time""
""focus"",""0"",""0""
""focus"",""1"",""14374""
""focus"",""44"",""279549""
""focus"",""57"",""351101""
""focus"",""59"",""363681""
""focus"",""59"",""366960""
","""event"",""trial"",""time""
""fullscreenenter"",""1"",""15979""
","""event"",""trial"",""time""
""fullscreenexit"",""44"",""262195""
",,469,run_exp/static/images/task_images/land.jpg,65,,,,,,,2,,,2,,,,,,,,47617,1,1,FALSE,,,
dig,86,419113,0.0-30.0-0.0,"""event"",""trial"",""time""
""focus"",""0"",""0""
""blur"",""0"",""0""
""focus"",""1"",""14374""
""fullscreenenter"",""1"",""15979""
""fullscreenexit"",""44"",""262195""
""blur"",""44"",""263645""
""focus"",""44"",""279549""
""blur"",""55"",""342575""
""focus"",""57"",""351101""
""blur"",""58"",""353251""
""focus"",""59"",""363681""
""blur"",""59"",""364444""
""focus"",""59"",""366960""
","""event"",""trial"",""time""
""blur"",""0"",""0""
""blur"",""44"",""263645""
""blur"",""55"",""342575""
""blur"",""58"",""353251""
""blur"",""59"",""364444""
","""event"",""trial"",""time""
""focus"",""0"",""0""
""focus"",""1"",""14374""
""focus"",""44"",""279549""
""focus"",""57"",""351101""
""focus"",""59"",""363681""
""focus"",""59"",""366960""
","""event"",""trial"",""time""
""fullscreenenter"",""1"",""15979""
","""event"",""trial"",""time""
""fullscreenexit"",""44"",""262195""
",,,,,,,,,,,,"[{""stimulus"":""run_exp/static/images/task_images/dig.jpg"",""time"":0},{""stimulus"":""run_exp/static/images/task_images/land.jpg"",""time"":854},{""stimulus"":""run_exp/static/images/task_images/dig.jpg"",""time"":1698}]",[],2,,,,,,,,,,,,,,
harvest,87,420129,0.0-30.0-1.0,"""event"",""trial"",""time""
""focus"",""0"",""0""
""blur"",""0"",""0""
""focus"",""1"",""14374""
""fullscreenenter"",""1"",""15979""
""fullscreenexit"",""44"",""262195""
""blur"",""44"",""263645""
""focus"",""44"",""279549""
""blur"",""55"",""342575""
""focus"",""57"",""351101""
""blur"",""58"",""353251""
""focus"",""59"",""363681""
""blur"",""59"",""364444""
""focus"",""59"",""366960""
","""event"",""trial"",""time""
""blur"",""0"",""0""
""blur"",""44"",""263645""
""blur"",""55"",""342575""
""blur"",""58"",""353251""
""blur"",""59"",""364444""
","""event"",""trial"",""time""
""focus"",""0"",""0""
""focus"",""1"",""14374""
""focus"",""44"",""279549""
""focus"",""57"",""351101""
""focus"",""59"",""363681""
""focus"",""59"",""366960""
","""event"",""trial"",""time""
""fullscreenenter"",""1"",""15979""
","""event"",""trial"",""time""
""fullscreenexit"",""44"",""262195""
",,null,run_exp/static/images/task_images/gems/2.jpg,null,,,,,,,0,,,2,,,,,2,0.21807598,0,,,,,,,
decision,88,420710,0.0-30.0-2.0,"""event"",""trial"",""time""
""focus"",""0"",""0""
""blur"",""0"",""0""
""focus"",""1"",""14374""
""fullscreenenter"",""1"",""15979""
""fullscreenexit"",""44"",""262195""
""blur"",""44"",""263645""
""focus"",""44"",""279549""
""blur"",""55"",""342575""
""focus"",""57"",""351101""
""blur"",""58"",""353251""
""focus"",""59"",""363681""
""blur"",""59"",""364444""
""focus"",""59"",""366960""
","""event"",""trial"",""time""
""blur"",""0"",""0""
""blur"",""44"",""263645""
""blur"",""55"",""342575""
""blur"",""58"",""353251""
""blur"",""59"",""364444""
","""event"",""trial"",""time""
""focus"",""0"",""0""
""focus"",""1"",""14374""
""focus"",""44"",""279549""
""focus"",""57"",""351101""
""focus"",""59"",""363681""
""focus"",""59"",""366960""
","""event"",""trial"",""time""
""fullscreenenter"",""1"",""15979""
","""event"",""trial"",""time""
""fullscreenexit"",""44"",""262195""
",,581,run_exp/static/images/task_images/land.jpg,76,,,,,,,0,,,2,,,,,,,,51753,1,2,TRUE,,,
travel,89,430138,0.0-31.0-0.0,"""event"",""trial"",""time""
""focus"",""0"",""0""
""blur"",""0"",""0""
""focus"",""1"",""14374""
""fullscreenenter"",""1"",""15979""
""fullscreenexit"",""44"",""262195""
""blur"",""44"",""263645""
""focus"",""44"",""279549""
""blur"",""55"",""342575""
""focus"",""57"",""351101""
""blur"",""58"",""353251""
""focus"",""59"",""363681""
""blur"",""59"",""364444""
""focus"",""59"",""366960""
","""event"",""trial"",""time""
""blur"",""0"",""0""
""blur"",""44"",""263645""
""blur"",""55"",""342575""
""blur"",""58"",""353251""
""blur"",""59"",""364444""
","""event"",""trial"",""time""
""focus"",""0"",""0""
""focus"",""1"",""14374""
""focus"",""44"",""279549""
""focus"",""57"",""351101""
""focus"",""59"",""363681""
""focus"",""59"",""366960""
","""event"",""trial"",""time""
""fullscreenenter"",""1"",""15979""
","""event"",""trial"",""time""
""fullscreenexit"",""44"",""262195""
",,,,,,,,,,,,"[{""stimulus"":""run_exp/static/images/task_images/rocket-01.jpg"",""time"":0},{""stimulus"":""run_exp/static/images/task_images/rocket-02.jpg"",""time"":1061},{""stimulus"":""run_exp/static/images/task_images/rocket-03.jpg"",""time"":2103},{""stimulus"":""run_exp/static/images/task_images/rocket-04.jpg"",""time"":3153},{""stimulus"":""run_exp/static/images/task_images/rocket-05.jpg"",""time"":4194},{""stimulus"":""run_exp/static/images/task_images/rocket-06.jpg"",""time"":5236},{""stimulus"":""run_exp/static/images/task_images/rocket-07.jpg"",""time"":6293},{""stimulus"":""run_exp/static/images/task_images/rocket-08.jpg"",""time"":7325},{""stimulus"":""run_exp/static/images/task_images/rocket-09.jpg"",""time"":8385}]",[],2,,,,,,,,,,,,,,
alien_welcome,90,435142,0.0-31.0-1.0,"""event"",""trial"",""time""
""focus"",""0"",""0""
""blur"",""0"",""0""
""focus"",""1"",""14374""
""fullscreenenter"",""1"",""15979""
""fullscreenexit"",""44"",""262195""
""blur"",""44"",""263645""
""focus"",""44"",""279549""
""blur"",""55"",""342575""
""focus"",""57"",""351101""
""blur"",""58"",""353251""
""focus"",""59"",""363681""
""blur"",""59"",""364444""
""focus"",""59"",""366960""
","""event"",""trial"",""time""
""blur"",""0"",""0""
""blur"",""44"",""263645""
""blur"",""55"",""342575""
""blur"",""58"",""353251""
""blur"",""59"",""364444""
","""event"",""trial"",""time""
""focus"",""0"",""0""
""focus"",""1"",""14374""
""focus"",""44"",""279549""
""focus"",""57"",""351101""
""focus"",""59"",""363681""
""focus"",""59"",""366960""
","""event"",""trial"",""time""
""fullscreenenter"",""1"",""15979""
","""event"",""trial"",""time""
""fullscreenexit"",""44"",""262195""
",,null,run_exp/static/images/task_images/aliens/old_aliens/planet/alien_planet-10.jpg,null,,,,,,,,,,,,,10,"40,60,10,30,66,31,48,79,57,37,19,71,76,36,2,69,42,16,39,5,18,63,46,65,20,70",,,,,,,,,,
land,91,435644,0.0-31.0-2.0,"""event"",""trial"",""time""
""focus"",""0"",""0""
""blur"",""0"",""0""
""focus"",""1"",""14374""
""fullscreenenter"",""1"",""15979""
""fullscreenexit"",""44"",""262195""
""blur"",""44"",""263645""
""focus"",""44"",""279549""
""blur"",""55"",""342575""
""focus"",""57"",""351101""
""blur"",""58"",""353251""
""focus"",""59"",""363681""
""blur"",""59"",""364444""
""focus"",""59"",""366960""
","""event"",""trial"",""time""
""blur"",""0"",""0""
""blur"",""44"",""263645""
""blur"",""55"",""342575""
""blur"",""58"",""353251""
""blur"",""59"",""364444""
","""event"",""trial"",""time""
""focus"",""0"",""0""
""focus"",""1"",""14374""
""focus"",""44"",""279549""
""focus"",""57"",""351101""
""focus"",""59"",""363681""
""focus"",""59"",""366960""
","""event"",""trial"",""time""
""fullscreenenter"",""1"",""15979""
","""event"",""trial"",""time""
""fullscreenexit"",""44"",""262195""
",,null,run_exp/static/images/task_images/land.jpg,null,,,,,,,95,,,3,,,,,,,,,,,,,,
dig,92,437659,0.0-31.0-3.0,"""event"",""trial"",""time""
""focus"",""0"",""0""
""blur"",""0"",""0""
""focus"",""1"",""14374""
""fullscreenenter"",""1"",""15979""
""fullscreenexit"",""44"",""262195""
""blur"",""44"",""263645""
""focus"",""44"",""279549""
""blur"",""55"",""342575""
""focus"",""57"",""351101""
""blur"",""58"",""353251""
""focus"",""59"",""363681""
""blur"",""59"",""364444""
""focus"",""59"",""366960""
","""event"",""trial"",""time""
""blur"",""0"",""0""
""blur"",""44"",""263645""
""blur"",""55"",""342575""
""blur"",""58"",""353251""
""blur"",""59"",""364444""
","""event"",""trial"",""time""
""focus"",""0"",""0""
""focus"",""1"",""14374""
""focus"",""44"",""279549""
""focus"",""57"",""351101""
""focus"",""59"",""363681""
""focus"",""59"",""366960""
","""event"",""trial"",""time""
""fullscreenenter"",""1"",""15979""
","""event"",""trial"",""time""
""fullscreenexit"",""44"",""262195""
",,,,,,,,,,,,"[{""stimulus"":""run_exp/static/images/task_images/dig.jpg"",""time"":0},{""stimulus"":""run_exp/static/images/task_images/land.jpg"",""time"":668},{""stimulus"":""run_exp/static/images/task_images/dig.jpg"",""time"":1338}]",[],3,,,,,,,,,,,,,,
harvest,93,438661,0.0-31.0-4.0,"""event"",""trial"",""time""
""focus"",""0"",""0""
""blur"",""0"",""0""
""focus"",""1"",""14374""
""fullscreenenter"",""1"",""15979""
""fullscreenexit"",""44"",""262195""
""blur"",""44"",""263645""
""focus"",""44"",""279549""
""blur"",""55"",""342575""
""focus"",""57"",""351101""
""blur"",""58"",""353251""
""focus"",""59"",""363681""
""blur"",""59"",""364444""
""focus"",""59"",""366960""
","""event"",""trial"",""time""
""blur"",""0"",""0""
""blur"",""44"",""263645""
""blur"",""55"",""342575""
""blur"",""58"",""353251""
""blur"",""59"",""364444""
","""event"",""trial"",""time""
""focus"",""0"",""0""
""focus"",""1"",""14374""
""focus"",""44"",""279549""
""focus"",""57"",""351101""
""focus"",""59"",""363681""
""focus"",""59"",""366960""
","""event"",""trial"",""time""
""fullscreenenter"",""1"",""15979""
","""event"",""trial"",""time""
""fullscreenexit"",""44"",""262195""
",,null,run_exp/static/images/task_images/gems/95.jpg,null,,,,,,,50,,,3,,,,,95,0.528886692,0.526315789,,,,,,,
decision,94,438847,0.0-31.0-5.0,"""event"",""trial"",""time""
""focus"",""0"",""0""
""blur"",""0"",""0""
""focus"",""1"",""14374""
""fullscreenenter"",""1"",""15979""
""fullscreenexit"",""44"",""262195""
""blur"",""44"",""263645""
""focus"",""44"",""279549""
""blur"",""55"",""342575""
""focus"",""57"",""351101""
""blur"",""58"",""353251""
""focus"",""59"",""363681""
""blur"",""59"",""364444""
""focus"",""59"",""366960""
","""event"",""trial"",""time""
""blur"",""0"",""0""
""blur"",""44"",""263645""
""blur"",""55"",""342575""
""blur"",""58"",""353251""
""blur"",""59"",""364444""
","""event"",""trial"",""time""
""focus"",""0"",""0""
""focus"",""1"",""14374""
""focus"",""44"",""279549""
""focus"",""57"",""351101""
""focus"",""59"",""363681""
""focus"",""59"",""366960""
","""event"",""trial"",""time""
""fullscreenenter"",""1"",""15979""
","""event"",""trial"",""time""
""fullscreenexit"",""44"",""262195""
",,186,run_exp/static/images/task_images/land.jpg,65,,,,,,,50,,,3,,,,,,,,69890,1,0,FALSE,,,
dig,95,441667,0.0-32.0-0.0,"""event"",""trial"",""time""
""focus"",""0"",""0""
""blur"",""0"",""0""
""focus"",""1"",""14374""
""fullscreenenter"",""1"",""15979""
""fullscreenexit"",""44"",""262195""
""blur"",""44"",""263645""
""focus"",""44"",""279549""
""blur"",""55"",""342575""
""focus"",""57"",""351101""
""blur"",""58"",""353251""
""focus"",""59"",""363681""
""blur"",""59"",""364444""
""focus"",""59"",""366960""
","""event"",""trial"",""time""
""blur"",""0"",""0""
""blur"",""44"",""263645""
""blur"",""55"",""342575""
""blur"",""58"",""353251""
""blur"",""59"",""364444""
","""event"",""trial"",""time""
""focus"",""0"",""0""
""focus"",""1"",""14374""
""focus"",""44"",""279549""
""focus"",""57"",""351101""
""focus"",""59"",""363681""
""focus"",""59"",""366960""
","""event"",""trial"",""time""
""fullscreenenter"",""1"",""15979""
","""event"",""trial"",""time""
""fullscreenexit"",""44"",""262195""
",,,,,,,,,,,,"[{""stimulus"":""run_exp/static/images/task_images/dig.jpg"",""time"":0},{""stimulus"":""run_exp/static/images/task_images/land.jpg"",""time"":941},{""stimulus"":""run_exp/static/images/task_images/dig.jpg"",""time"":1885}]",[],3,,,,,,,,,,,,,,
harvest,96,442680,0.0-32.0-1.0,"""event"",""trial"",""time""
""focus"",""0"",""0""
""blur"",""0"",""0""
""focus"",""1"",""14374""
""fullscreenenter"",""1"",""15979""
""fullscreenexit"",""44"",""262195""
""blur"",""44"",""263645""
""focus"",""44"",""279549""
""blur"",""55"",""342575""
""focus"",""57"",""351101""
""blur"",""58"",""353251""
""focus"",""59"",""363681""
""blur"",""59"",""364444""
""focus"",""59"",""366960""
","""event"",""trial"",""time""
""blur"",""0"",""0""
""blur"",""44"",""263645""
""blur"",""55"",""342575""
""blur"",""58"",""353251""
""blur"",""59"",""364444""
","""event"",""trial"",""time""
""focus"",""0"",""0""
""focus"",""1"",""14374""
""focus"",""44"",""279549""
""focus"",""57"",""351101""
""focus"",""59"",""363681""
""focus"",""59"",""366960""
","""event"",""trial"",""time""
""fullscreenenter"",""1"",""15979""
","""event"",""trial"",""time""
""fullscreenexit"",""44"",""262195""
",,null,run_exp/static/images/task_images/gems/50.jpg,null,,,,,,,24,,,3,,,,,50,0.484459868,0.48,,,,,,,
decision,97,442872,0.0-32.0-2.0,"""event"",""trial"",""time""
""focus"",""0"",""0""
""blur"",""0"",""0""
""focus"",""1"",""14374""
""fullscreenenter"",""1"",""15979""
""fullscreenexit"",""44"",""262195""
""blur"",""44"",""263645""
""focus"",""44"",""279549""
""blur"",""55"",""342575""
""focus"",""57"",""351101""
""blur"",""58"",""353251""
""focus"",""59"",""363681""
""blur"",""59"",""364444""
""focus"",""59"",""366960""
","""event"",""trial"",""time""
""blur"",""0"",""0""
""blur"",""44"",""263645""
""blur"",""55"",""342575""
""blur"",""58"",""353251""
""blur"",""59"",""364444""
","""event"",""trial"",""time""
""focus"",""0"",""0""
""focus"",""1"",""14374""
""focus"",""44"",""279549""
""focus"",""57"",""351101""
""focus"",""59"",""363681""
""focus"",""59"",""366960""
","""event"",""trial"",""time""
""fullscreenenter"",""1"",""15979""
","""event"",""trial"",""time""
""fullscreenexit"",""44"",""262195""
",,192,run_exp/static/images/task_images/land.jpg,65,,,,,,,24,,,3,,,,,,,,73915,1,1,FALSE,,,
dig,98,445683,0.0-33.0-0.0,"""event"",""trial"",""time""
""focus"",""0"",""0""
""blur"",""0"",""0""
""focus"",""1"",""14374""
""fullscreenenter"",""1"",""15979""
""fullscreenexit"",""44"",""262195""
""blur"",""44"",""263645""
""focus"",""44"",""279549""
""blur"",""55"",""342575""
""focus"",""57"",""351101""
""blur"",""58"",""353251""
""focus"",""59"",""363681""
""blur"",""59"",""364444""
""focus"",""59"",""366960""
","""event"",""trial"",""time""
""blur"",""0"",""0""
""blur"",""44"",""263645""
""blur"",""55"",""342575""
""blur"",""58"",""353251""
""blur"",""59"",""364444""
","""event"",""trial"",""time""
""focus"",""0"",""0""
""focus"",""1"",""14374""
""focus"",""44"",""279549""
""focus"",""57"",""351101""
""focus"",""59"",""363681""
""focus"",""59"",""366960""
","""event"",""trial"",""time""
""fullscreenenter"",""1"",""15979""
","""event"",""trial"",""time""
""fullscreenexit"",""44"",""262195""
",,,,,,,,,,,,"[{""stimulus"":""run_exp/static/images/task_images/dig.jpg"",""time"":0},{""stimulus"":""run_exp/static/images/task_images/land.jpg"",""time"":949},{""stimulus"":""run_exp/static/images/task_images/dig.jpg"",""time"":1882}]",[],3,,,,,,,,,,,,,,
harvest,99,446689,0.0-33.0-1.0,"""event"",""trial"",""time""
""focus"",""0"",""0""
""blur"",""0"",""0""
""focus"",""1"",""14374""
""fullscreenenter"",""1"",""15979""
""fullscreenexit"",""44"",""262195""
""blur"",""44"",""263645""
""focus"",""44"",""279549""
""blur"",""55"",""342575""
""focus"",""57"",""351101""
""blur"",""58"",""353251""
""focus"",""59"",""363681""
""blur"",""59"",""364444""
""focus"",""59"",""366960""
","""event"",""trial"",""time""
""blur"",""0"",""0""
""blur"",""44"",""263645""
""blur"",""55"",""342575""
""blur"",""58"",""353251""
""blur"",""59"",""364444""
","""event"",""trial"",""time""
""focus"",""0"",""0""
""focus"",""1"",""14374""
""focus"",""44"",""279549""
""focus"",""57"",""351101""
""focus"",""59"",""363681""
""focus"",""59"",""366960""
","""event"",""trial"",""time""
""fullscreenenter"",""1"",""15979""
","""event"",""trial"",""time""
""fullscreenexit"",""44"",""262195""
",,null,run_exp/static/images/task_images/gems/24.jpg,null,,,,,,,12,,,3,,,,,24,0.509824199,0.5,,,,,,,
decision,100,446840,0.0-33.0-2.0,"""event"",""trial"",""time""
""focus"",""0"",""0""
""blur"",""0"",""0""
""focus"",""1"",""14374""
""fullscreenenter"",""1"",""15979""
""fullscreenexit"",""44"",""262195""
""blur"",""44"",""263645""
""focus"",""44"",""279549""
""blur"",""55"",""342575""
""focus"",""57"",""351101""
""blur"",""58"",""353251""
""focus"",""59"",""363681""
""blur"",""59"",""364444""
""focus"",""59"",""366960""
","""event"",""trial"",""time""
""blur"",""0"",""0""
""blur"",""44"",""263645""
""blur"",""55"",""342575""
""blur"",""58"",""353251""
""blur"",""59"",""364444""
","""event"",""trial"",""time""
""focus"",""0"",""0""
""focus"",""1"",""14374""
""focus"",""44"",""279549""
""focus"",""57"",""351101""
""focus"",""59"",""363681""
""focus"",""59"",""366960""
","""event"",""trial"",""time""
""fullscreenenter"",""1"",""15979""
","""event"",""trial"",""time""
""fullscreenexit"",""44"",""262195""
",,150,run_exp/static/images/task_images/land.jpg,65,,,,,,,12,,,3,,,,,,,,77883,1,2,FALSE,,,
dig,101,449694,0.0-34.0-0.0,"""event"",""trial"",""time""
""focus"",""0"",""0""
""blur"",""0"",""0""
""focus"",""1"",""14374""
""fullscreenenter"",""1"",""15979""
""fullscreenexit"",""44"",""262195""
""blur"",""44"",""263645""
""focus"",""44"",""279549""
""blur"",""55"",""342575""
""focus"",""57"",""351101""
""blur"",""58"",""353251""
""focus"",""59"",""363681""
""blur"",""59"",""364444""
""focus"",""59"",""366960""
","""event"",""trial"",""time""
""blur"",""0"",""0""
""blur"",""44"",""263645""
""blur"",""55"",""342575""
""blur"",""58"",""353251""
""blur"",""59"",""364444""
","""event"",""trial"",""time""
""focus"",""0"",""0""
""focus"",""1"",""14374""
""focus"",""44"",""279549""
""focus"",""57"",""351101""
""focus"",""59"",""363681""
""focus"",""59"",""366960""
","""event"",""trial"",""time""
""fullscreenenter"",""1"",""15979""
","""event"",""trial"",""time""
""fullscreenexit"",""44"",""262195""
",,,,,,,,,,,,"[{""stimulus"":""run_exp/static/images/task_images/dig.jpg"",""time"":0},{""stimulus"":""run_exp/static/images/task_images/land.jpg"",""time"":963},{""stimulus"":""run_exp/static/images/task_images/dig.jpg"",""time"":1913}]",[],3,,,,,,,,,,,,,,
harvest,102,450702,0.0-34.0-1.0,"""event"",""trial"",""time""
""focus"",""0"",""0""
""blur"",""0"",""0""
""focus"",""1"",""14374""
""fullscreenenter"",""1"",""15979""
""fullscreenexit"",""44"",""262195""
""blur"",""44"",""263645""
""focus"",""44"",""279549""
""blur"",""55"",""342575""
""focus"",""57"",""351101""
""blur"",""58"",""353251""
""focus"",""59"",""363681""
""blur"",""59"",""364444""
""focus"",""59"",""366960""
","""event"",""trial"",""time""
""blur"",""0"",""0""
""blur"",""44"",""263645""
""blur"",""55"",""342575""
""blur"",""58"",""353251""
""blur"",""59"",""364444""
","""event"",""trial"",""time""
""focus"",""0"",""0""
""focus"",""1"",""14374""
""focus"",""44"",""279549""
""focus"",""57"",""351101""
""focus"",""59"",""363681""
""focus"",""59"",""366960""
","""event"",""trial"",""time""
""fullscreenenter"",""1"",""15979""
","""event"",""trial"",""time""
""fullscreenexit"",""44"",""262195""
",,null,run_exp/static/images/task_images/gems/12.jpg,null,,,,,,,6,,,3,,,,,12,0.523413759,0.5,,,,,,,
decision,103,450720,0.0-34.0-2.0,"""event"",""trial"",""time""
""focus"",""0"",""0""
""blur"",""0"",""0""
""focus"",""1"",""14374""
""fullscreenenter"",""1"",""15979""
""fullscreenexit"",""44"",""262195""
""blur"",""44"",""263645""
""focus"",""44"",""279549""
""blur"",""55"",""342575""
""focus"",""57"",""351101""
""blur"",""58"",""353251""
""focus"",""59"",""363681""
""blur"",""59"",""364444""
""focus"",""59"",""366960""
","""event"",""trial"",""time""
""blur"",""0"",""0""
""blur"",""44"",""263645""
""blur"",""55"",""342575""
""blur"",""58"",""353251""
""blur"",""59"",""364444""
","""event"",""trial"",""time""
""focus"",""0"",""0""
""focus"",""1"",""14374""
""focus"",""44"",""279549""
""focus"",""57"",""351101""
""focus"",""59"",""363681""
""focus"",""59"",""366960""
","""event"",""trial"",""time""
""fullscreenenter"",""1"",""15979""
","""event"",""trial"",""time""
""fullscreenexit"",""44"",""262195""
",,18,run_exp/static/images/task_images/land.jpg,65,,,,,,,6,,,3,,,,,,,,81763,1,3,FALSE,,,
dig,104,453715,0.0-35.0-0.0,"""event"",""trial"",""time""
""focus"",""0"",""0""
""blur"",""0"",""0""
""focus"",""1"",""14374""
""fullscreenenter"",""1"",""15979""
""fullscreenexit"",""44"",""262195""
""blur"",""44"",""263645""
""focus"",""44"",""279549""
""blur"",""55"",""342575""
""focus"",""57"",""351101""
""blur"",""58"",""353251""
""focus"",""59"",""363681""
""blur"",""59"",""364444""
""focus"",""59"",""366960""
","""event"",""trial"",""time""
""blur"",""0"",""0""
""blur"",""44"",""263645""
""blur"",""55"",""342575""
""blur"",""58"",""353251""
""blur"",""59"",""364444""
","""event"",""trial"",""time""
""focus"",""0"",""0""
""focus"",""1"",""14374""
""focus"",""44"",""279549""
""focus"",""57"",""351101""
""focus"",""59"",""363681""
""focus"",""59"",""366960""
","""event"",""trial"",""time""
""fullscreenenter"",""1"",""15979""
","""event"",""trial"",""time""
""fullscreenexit"",""44"",""262195""
",,,,,,,,,,,,"[{""stimulus"":""run_exp/static/images/task_images/dig.jpg"",""time"":0},{""stimulus"":""run_exp/static/images/task_images/land.jpg"",""time"":998},{""stimulus"":""run_exp/static/images/task_images/dig.jpg"",""time"":1997}]",[],3,,,,,,,,,,,,,,
harvest,105,454719,0.0-35.0-1.0,"""event"",""trial"",""time""
""focus"",""0"",""0""
""blur"",""0"",""0""
""focus"",""1"",""14374""
""fullscreenenter"",""1"",""15979""
""fullscreenexit"",""44"",""262195""
""blur"",""44"",""263645""
""focus"",""44"",""279549""
""blur"",""55"",""342575""
""focus"",""57"",""351101""
""blur"",""58"",""353251""
""focus"",""59"",""363681""
""blur"",""59"",""364444""
""focus"",""59"",""366960""
","""event"",""trial"",""time""
""blur"",""0"",""0""
""blur"",""44"",""263645""
""blur"",""55"",""342575""
""blur"",""58"",""353251""
""blur"",""59"",""364444""
","""event"",""trial"",""time""
""focus"",""0"",""0""
""focus"",""1"",""14374""
""focus"",""44"",""279549""
""focus"",""57"",""351101""
""focus"",""59"",""363681""
""focus"",""59"",""366960""
","""event"",""trial"",""time""
""fullscreenenter"",""1"",""15979""
","""event"",""trial"",""time""
""fullscreenexit"",""44"",""262195""
",,null,run_exp/static/images/task_images/gems/6.jpg,null,,,,,,,3,,,3,,,,,6,0.479727836,0.5,,,,,,,
decision,106,455210,0.0-35.0-2.0,"""event"",""trial"",""time""
""focus"",""0"",""0""
""blur"",""0"",""0""
""focus"",""1"",""14374""
""fullscreenenter"",""1"",""15979""
""fullscreenexit"",""44"",""262195""
""blur"",""44"",""263645""
""focus"",""44"",""279549""
""blur"",""55"",""342575""
""focus"",""57"",""351101""
""blur"",""58"",""353251""
""focus"",""59"",""363681""
""blur"",""59"",""364444""
""focus"",""59"",""366960""
","""event"",""trial"",""time""
""blur"",""0"",""0""
""blur"",""44"",""263645""
""blur"",""55"",""342575""
""blur"",""58"",""353251""
""blur"",""59"",""364444""
","""event"",""trial"",""time""
""focus"",""0"",""0""
""focus"",""1"",""14374""
""focus"",""44"",""279549""
""focus"",""57"",""351101""
""focus"",""59"",""363681""
""focus"",""59"",""366960""
","""event"",""trial"",""time""
""fullscreenenter"",""1"",""15979""
","""event"",""trial"",""time""
""fullscreenexit"",""44"",""262195""
",,491,run_exp/static/images/task_images/land.jpg,65,,,,,,,3,,,3,,,,,,,,86253,1,4,FALSE,,,
dig,107,457732,0.0-36.0-0.0,"""event"",""trial"",""time""
""focus"",""0"",""0""
""blur"",""0"",""0""
""focus"",""1"",""14374""
""fullscreenenter"",""1"",""15979""
""fullscreenexit"",""44"",""262195""
""blur"",""44"",""263645""
""focus"",""44"",""279549""
""blur"",""55"",""342575""
""focus"",""57"",""351101""
""blur"",""58"",""353251""
""focus"",""59"",""363681""
""blur"",""59"",""364444""
""focus"",""59"",""366960""
","""event"",""trial"",""time""
""blur"",""0"",""0""
""blur"",""44"",""263645""
""blur"",""55"",""342575""
""blur"",""58"",""353251""
""blur"",""59"",""364444""
","""event"",""trial"",""time""
""focus"",""0"",""0""
""focus"",""1"",""14374""
""focus"",""44"",""279549""
""focus"",""57"",""351101""
""focus"",""59"",""363681""
""focus"",""59"",""366960""
","""event"",""trial"",""time""
""fullscreenenter"",""1"",""15979""
","""event"",""trial"",""time""
""fullscreenexit"",""44"",""262195""
",,,,,,,,,,,,"[{""stimulus"":""run_exp/static/images/task_images/dig.jpg"",""time"":0},{""stimulus"":""run_exp/static/images/task_images/land.jpg"",""time"":852},{""stimulus"":""run_exp/static/images/task_images/dig.jpg"",""time"":1673}]",[],3,,,,,,,,,,,,,,
harvest,108,458741,0.0-36.0-1.0,"""event"",""trial"",""time""
""focus"",""0"",""0""
""blur"",""0"",""0""
""focus"",""1"",""14374""
""fullscreenenter"",""1"",""15979""
""fullscreenexit"",""44"",""262195""
""blur"",""44"",""263645""
""focus"",""44"",""279549""
""blur"",""55"",""342575""
""focus"",""57"",""351101""
""blur"",""58"",""353251""
""focus"",""59"",""363681""
""blur"",""59"",""364444""
""focus"",""59"",""366960""
","""event"",""trial"",""time""
""blur"",""0"",""0""
""blur"",""44"",""263645""
""blur"",""55"",""342575""
""blur"",""58"",""353251""
""blur"",""59"",""364444""
","""event"",""trial"",""time""
""focus"",""0"",""0""
""focus"",""1"",""14374""
""focus"",""44"",""279549""
""focus"",""57"",""351101""
""focus"",""59"",""363681""
""focus"",""59"",""366960""
","""event"",""trial"",""time""
""fullscreenenter"",""1"",""15979""
","""event"",""trial"",""time""
""fullscreenexit"",""44"",""262195""
",,null,run_exp/static/images/task_images/gems/3.jpg,null,,,,,,,2,,,3,,,,,3,0.516325185,0.666666667,,,,,,,
decision,109,458753,0.0-36.0-2.0,"""event"",""trial"",""time""
""focus"",""0"",""0""
""blur"",""0"",""0""
""focus"",""1"",""14374""
""fullscreenenter"",""1"",""15979""
""fullscreenexit"",""44"",""262195""
""blur"",""44"",""263645""
""focus"",""44"",""279549""
""blur"",""55"",""342575""
""focus"",""57"",""351101""
""blur"",""58"",""353251""
""focus"",""59"",""363681""
""blur"",""59"",""364444""
""focus"",""59"",""366960""
","""event"",""trial"",""time""
""blur"",""0"",""0""
""blur"",""44"",""263645""
""blur"",""55"",""342575""
""blur"",""58"",""353251""
""blur"",""59"",""364444""
","""event"",""trial"",""time""
""focus"",""0"",""0""
""focus"",""1"",""14374""
""focus"",""44"",""279549""
""focus"",""57"",""351101""
""focus"",""59"",""363681""
""focus"",""59"",""366960""
","""event"",""trial"",""time""
""fullscreenenter"",""1"",""15979""
","""event"",""trial"",""time""
""fullscreenexit"",""44"",""262195""
",,12,run_exp/static/images/task_images/land.jpg,65,,,,,,,2,,,3,,,,,,,,89796,1,5,FALSE,,,
dig,110,461753,0.0-37.0-0.0,"""event"",""trial"",""time""
""focus"",""0"",""0""
""blur"",""0"",""0""
""focus"",""1"",""14374""
""fullscreenenter"",""1"",""15979""
""fullscreenexit"",""44"",""262195""
""blur"",""44"",""263645""
""focus"",""44"",""279549""
""blur"",""55"",""342575""
""focus"",""57"",""351101""
""blur"",""58"",""353251""
""focus"",""59"",""363681""
""blur"",""59"",""364444""
""focus"",""59"",""366960""
","""event"",""trial"",""time""
""blur"",""0"",""0""
""blur"",""44"",""263645""
""blur"",""55"",""342575""
