trial_type,trial_index,time_elapsed,internal_node_id,interactions,blur_events,focus_events,fullscreenenter_events,fullscreenexit_events,success,rt,stimulus,key_press,prompt,subject_id,participant_id,age,gender,button_pressed,next_reward,animation_sequence,responses,planet,curr_prac_trial,n_prac_rounds,alien,aliens,reward_received,decay_rate_actual,decay_rate_exp,time_in_block,block_num,prt,last_trial_on_planet,button_html,bonus,num_failures
pavlovia,0,8,0.0-0.0,"""event"",""trial"",""time""
""fullscreenenter"",""1"",""10609""
","
","
","""event"",""trial"",""time""
""fullscreenenter"",""1"",""10609""
","
",,,,,,,,,,,,,,,,,,,,,,,,,,,,
fullscreen,1,11581,0.0-1.0,"""event"",""trial"",""time""
""fullscreenenter"",""1"",""10609""
","
","
","""event"",""trial"",""time""
""fullscreenenter"",""1"",""10609""
","
",TRUE,,,,,,,,,,,,,,,,,,,,,,,,,,,
instruc_welcome,2,21520,0.0-2.0,"""event"",""trial"",""time""
""fullscreenenter"",""1"",""10609""
","
","
","""event"",""trial"",""time""
""fullscreenenter"",""1"",""10609""
","
",,null,run_exp/static/audio/clip_1_welcome.m4a,null,"<p>Howdy! In this experiment, you’ll be an explorer traveling through space to collect space treasure.</p><p>Your mission is to collect as much treasure as possible.</p><br><br><p><img src='run_exp/static/images/task_images/opening_img-01.jpg' height='300' width='auto'></p>",9737,3148,21.08,Female,,,,,,,,,,,,,,,,,,,
audio-keyboard-response,3,38120,0.0-3.0,"""event"",""trial"",""time""
""fullscreenenter"",""1"",""10609""
","
","
","""event"",""trial"",""time""
""fullscreenenter"",""1"",""10609""
","
",,null,run_exp/static/audio/clip_2_move.m4a,null,,,,,,,,,,,,,,,,,,,,,,,,
welcome_dec,4,39300,0.0-4.0,"""event"",""trial"",""time""
""fullscreenenter"",""1"",""10609""
","
","
","""event"",""trial"",""time""
""fullscreenenter"",""1"",""10609""
","
",,1176.2,"<p>Howdy! In this experiment, you’ll be an explorer traveling through space to collect space treasure.</p><p>Your mission is to collect as much treasure as possible.</p><br><br><p><img src='run_exp/static/images/task_images/opening_img-01.jpg' height='300' width='auto'></p>",,,,,,,0,,,,,,,,,,,,,,,,,,
html-keyboard-response,5,40651,0.0-5.0,"""event"",""trial"",""time""
""fullscreenenter"",""1"",""10609""
","
","
","""event"",""trial"",""time""
""fullscreenenter"",""1"",""10609""
","
",,1347.9,"<p>Howdy! In this experiment, you’ll be an explorer traveling through space to collect space treasure.</p><p>Your mission is to collect as much treasure as possible.</p><br><br><p><img src='run_exp/static/images/task_images/opening_img-01.jpg' height='300' width='auto'></p><button class=""jspsych-html-btn-chosen""><img src=""run_exp/static/images/task_images/planet-01.jpg"" height=""50""></button><button class=""jspsych-html-btn-unchosen""><img src=""run_exp/static/images/task_images/planet-02.jpg"" height=""50""></button><p><b>[press the space bar to lock in your answer]<b><br></p>",32,,,,,,,,,,,,,,,,,,,,,,,,
instruc_welcome,6,50399,0.0-6.0-0.0,"""event"",""trial"",""time""
""fullscreenenter"",""1"",""10609""
","
","
","""event"",""trial"",""time""
""fullscreenenter"",""1"",""10609""
","
",,null,run_exp/static/audio/clip_1_welcome.m4a,null,"<p>Howdy! In this experiment, you’ll be an explorer traveling through space to collect space treasure.</p><p>Your mission is to collect as much treasure as possible.</p><br><br><p><img src='run_exp/static/images/task_images/opening_img-01.jpg' height='300' width='auto'></p>",9737,3148,21,Female,,,,,,,,,,,,,,,,,,,
audio-keyboard-response,7,66980,0.0-6.0-1.0,"""event"",""trial"",""time""
""fullscreenenter"",""1"",""10609""
","
","
","""event"",""trial"",""time""
""fullscreenenter"",""1"",""10609""
","
",,null,run_exp/static/audio/clip_2_move.m4a,null,,,,,,,,,,,,,,,,,,,,,,,,
welcome_dec,8,74556,0.0-6.0-2.0,"""event"",""trial"",""time""
""fullscreenenter"",""1"",""10609""
","
","
","""event"",""trial"",""time""
""fullscreenenter"",""1"",""10609""
","
",,7568.2,"<p>Howdy! In this experiment, you’ll be an explorer traveling through space to collect space treasure.</p><p>Your mission is to collect as much treasure as possible.</p><br><br><p><img src='run_exp/static/images/task_images/opening_img-01.jpg' height='300' width='auto'></p>",,,,,,,1,,,,,,,,,,,,,,,,,,
html-keyboard-response,9,75485,0.0-6.0-3.0,"""event"",""trial"",""time""
""fullscreenenter"",""1"",""10609""
","
","
","""event"",""trial"",""time""
""fullscreenenter"",""1"",""10609""
","
",,926.9000001,"<p>Howdy! In this experiment, you’ll be an explorer traveling through space to collect space treasure.</p><p>Your mission is to collect as much treasure as possible.</p><br><br><p><img src='run_exp/static/images/task_images/opening_img-01.jpg' height='300' width='auto'></p><button class=""jspsych-html-btn-unchosen""><img src=""run_exp/static/images/task_images/planet-01.jpg"" height=""50""></button><button class=""jspsych-html-btn-chosen""><img src=""run_exp/static/images/task_images/planet-02.jpg"" height=""50""></button><p><b>[press the space bar to lock in your answer]<b><br></p>",32,,,,,,,,,,,,,,,,,,,,,,,,
instruc_goal,10,85545,0.0-7.0-0.0,"""event"",""trial"",""time""
""fullscreenenter"",""1"",""10609""
","
","
","""event"",""trial"",""time""
""fullscreenenter"",""1"",""10609""
","
",,null,run_exp/static/audio/clip_3_goal.m4a,null,"<p> As a space explorer, you’ll visit different planets to dig for space treasure, these pink gems.</p> <p> The more treasure you dig up, the more bonus money you’ll win! </p><br><br><p><img src='run_exp/static/images/task_images/pink_gem.jpg' height='300' width='auto'></p>",,,,,,,,,,,,,,,,,,,,,,,
instruc_goal,11,88252,0.0-7.0-1.0,"""event"",""trial"",""time""
""fullscreenenter"",""1"",""10609""
","
","
","""event"",""trial"",""time""
""fullscreenenter"",""1"",""10609""
","
",,2704.3,"<p> As a space explorer, you’ll visit different planets to dig for space treasure, these pink gems.</p> <p> The more treasure you dig up, the more bonus money you’ll win! </p><br><br><p><img src='run_exp/static/images/task_images/pink_gem.jpg' height='300' width='auto'></p>",,,,,,,1,,,,,,,,,,,,,,,,,,
html-keyboard-response,12,89023,0.0-7.0-2.0,"""event"",""trial"",""time""
""fullscreenenter"",""1"",""10609""
","
","
","""event"",""trial"",""time""
""fullscreenenter"",""1"",""10609""
","
",,769.2,"<p> As a space explorer, you’ll visit different planets to dig for space treasure, these pink gems.</p> <p> The more treasure you dig up, the more bonus money you’ll win! </p><br><br><p><img src='run_exp/static/images/task_images/pink_gem.jpg' height='300' width='auto'></p><button class=""jspsych-html-btn-unchosen""><img src=""run_exp/static/images/task_images/planet-01.jpg"" height=""50""></button><button class=""jspsych-html-btn-chosen""><img src=""run_exp/static/images/task_images/planet-02.jpg"" height=""50""></button><p><b>[press the space bar to lock in your answer]<b><br></p>",32,,,,,,,,,,,,,,,,,,,,,,,,
instruc_dig,13,105024,0.0-8.0-0.0,"""event"",""trial"",""time""
""fullscreenenter"",""1"",""10609""
","
","
","""event"",""trial"",""time""
""fullscreenenter"",""1"",""10609""
","
",,null,run_exp/static/audio/clip_4_dig.m4a,null,,,,,,,100,,,,,,,,,,,,,,,,,
instruc_dig_try,14,108234,0.0-8.0-1.0,"""event"",""trial"",""time""
""fullscreenenter"",""1"",""10609""
","
","
","""event"",""trial"",""time""
""fullscreenenter"",""1"",""10609""
","
",,3207,"<p> When you’ve arrived at a new planet, you will dig once. </p> <p>Then, you get to decide if you want to stay on the planet and dig again or travel to a new planet and dig there.</p> <p> To stay and dig, press the letter <strong>‘A’</strong> on your keyboard. Try pressing it now! </p><p><img src='run_exp/static/images/task_images/land.jpg'  height='700' width='auto'></p>",65,"<p> When you’ve arrived at a new planet, you will dig once. </p> <p>Then, you get to decide if you want to stay on the planet and dig again or travel to a new planet and dig there.</p> <p> To stay and dig, press the letter <strong>‘A’</strong> on your keyboard. Try pressing it now! </p><p><img src='run_exp/static/images/task_images/land.jpg'  height='700' width='auto'></p>",,,,,,100,,,,,,,,,,,,,,,,,
dig_prac,15,110253,0.0-8.0-2.0,"""event"",""trial"",""time""
""fullscreenenter"",""1"",""10609""
","
","
","""event"",""trial"",""time""
""fullscreenenter"",""1"",""10609""
","
",,,,,,,,,,,,"[{""stimulus"":""run_exp/static/images/task_images/dig.jpg"",""time"":0.20000004768371582},{""stimulus"":""run_exp/static/images/task_images/land.jpg"",""time"":679.2000000476837},{""stimulus"":""run_exp/static/images/task_images/dig.jpg"",""time"":1344.7000000476837}]",[],,,,,,,,,,,,,,,
instruc_travel,16,146503,0.0-8.0-3.0,"""event"",""trial"",""time""
""fullscreenenter"",""1"",""10609""
","
","
","""event"",""trial"",""time""
""fullscreenenter"",""1"",""10609""
","
",,null,run_exp/static/audio/clip_5_travel.m4a,null,"<p>Every time you dig up gems, there are less gems on the planet, so the more you dig on a planet the fewer gems you’ll get with each dig.</p><p>When gems are running low, you may want to travel to a new planet. </p> <p>  Planets are very far apart in this galaxy, so it will take some time to travel between them. </p> <br><p>There are lots and lots of planets for you to visit, so you won’t be able to return to any planets you’ve seen before. </p><br><p>To leave this planet and travel to a new one, press the letter <strong>‘L’</strong> on your keyboard. Try pressing it now! </p><p><img src='run_exp/static/images/task_images/rocket-01.jpg'  height='600' width='auto'></p>",,,,,,,,,,,,,,,,,,,,,,,
instruc_travel_try,17,147486,0.0-8.0-4.0,"""event"",""trial"",""time""
""fullscreenenter"",""1"",""10609""
","
","
","""event"",""trial"",""time""
""fullscreenenter"",""1"",""10609""
","
",,980.5,"<p>Every time you dig up gems, there are less gems on the planet, so the more you dig on a planet the fewer gems you’ll get with each dig.</p><p>When gems are running low, you may want to travel to a new planet. </p> <p>  Planets are very far apart in this galaxy, so it will take some time to travel between them. </p> <br><p>There are lots and lots of planets for you to visit, so you won’t be able to return to any planets you’ve seen before. </p><br><p>To leave this planet and travel to a new one, press the letter <strong>‘L’</strong> on your keyboard. Try pressing it now! </p><p><img src='run_exp/static/images/task_images/rocket-01.jpg'  height='600' width='auto'></p>",76,"<p>Every time you dig up gems, there are less gems on the planet, so the more you dig on a planet the fewer gems you’ll get with each dig.</p><p>When gems are running low, you may want to travel to a new planet. </p> <p>  Planets are very far apart in this galaxy, so it will take some time to travel between them. </p> <br><p>There are lots and lots of planets for you to visit, so you won’t be able to return to any planets you’ve seen before. </p><br><p>To leave this planet and travel to a new one, press the letter <strong>‘L’</strong> on your keyboard. Try pressing it now! </p><p><img src='run_exp/static/images/task_images/rocket-01.jpg'  height='600' width='auto'></p>",,,,,,,,,,,,,,,,,,,,,,,
travel_prac,18,157502,0.0-8.0-5.0,"""event"",""trial"",""time""
""fullscreenenter"",""1"",""10609""
","
","
","""event"",""trial"",""time""
""fullscreenenter"",""1"",""10609""
","
",,,,,,,,,,,,"[{""stimulus"":""run_exp/static/images/task_images/rocket-01.jpg"",""time"":0.40000009536743164},{""stimulus"":""run_exp/static/images/task_images/rocket-02.jpg"",""time"":1123.9000000953674},{""stimulus"":""run_exp/static/images/task_images/rocket-03.jpg"",""time"":2233.7999999523163},{""stimulus"":""run_exp/static/images/task_images/rocket-04.jpg"",""time"":3354},{""stimulus"":""run_exp/static/images/task_images/rocket-05.jpg"",""time"":4454.299999952316},{""stimulus"":""run_exp/static/images/task_images/rocket-06.jpg"",""time"":5574.600000143051},{""stimulus"":""run_exp/static/images/task_images/rocket-07.jpg"",""time"":6684.200000047684},{""stimulus"":""run_exp/static/images/task_images/rocket-08.jpg"",""time"":7784},{""stimulus"":""run_exp/static/images/task_images/rocket-09.jpg"",""time"":8903.299999952316}]",[],0,,,,,,,,,,,,,,
instruc_alien_greet,19,184683,0.0-8.0-6.0,"""event"",""trial"",""time""
""fullscreenenter"",""1"",""10609""
","
","
","""event"",""trial"",""time""
""fullscreenenter"",""1"",""10609""
","
",,null,run_exp/static/audio/clip_6_alien.m4a,null,"<p>When you arrive at a new planet, the alien who owns the treasure mine on that planet will greet you!</p><p>The better an alien takes care of their mine the easier it is to dig for gems. Some aliens take better care of their mine than others. So, you won’t get exactly the same amount of gems on each planet.</p><p>What the alien looks like does not tell you anything about how many gems there are on the planet.</p><br><p><img src=""run_exp/static/images/task_images/aliens/instructions_aliens/planet/alien_planet-1.jpg""  height=""600"" width=""auto""></p>",,,,,,,,,,,,,,,,,,,,,,,
instruc_alien_greet,20,189668,0.0-8.0-7.0,"""event"",""trial"",""time""
""fullscreenenter"",""1"",""10609""
","
","
","""event"",""trial"",""time""
""fullscreenenter"",""1"",""10609""
","
",,4982.6,"<p>When you arrive at a new planet, the alien who owns the treasure mine on that planet will greet you!</p><p>The better an alien takes care of their mine the easier it is to dig for gems. Some aliens take better care of their mine than others. So, you won’t get exactly the same amount of gems on each planet.</p><p>What the alien looks like does not tell you anything about how many gems there are on the planet.</p><br><p><img src=""run_exp/static/images/task_images/aliens/instructions_aliens/planet/alien_planet-1.jpg""  height=""600"" width=""auto""></p>",,,,,,,1,,,,,,,,,,,,,,,,,,
html-keyboard-response,21,195757,0.0-8.0-8.0,"""event"",""trial"",""time""
""fullscreenenter"",""1"",""10609""
","
","
","""event"",""trial"",""time""
""fullscreenenter"",""1"",""10609""
","
",,6087.2,"<p>When you arrive at a new planet, the alien who owns the treasure mine on that planet will greet you!</p><p>The better an alien takes care of their mine the easier it is to dig for gems. Some aliens take better care of their mine than others. So, you won’t get exactly the same amount of gems on each planet.</p><p>What the alien looks like does not tell you anything about how many gems there are on the planet.</p><br><p><img src=""run_exp/static/images/task_images/aliens/instructions_aliens/planet/alien_planet-1.jpg""  height=""600"" width=""auto""></p><button class=""jspsych-html-btn-unchosen""><img src=""run_exp/static/images/task_images/planet-01.jpg"" height=""50""></button><button class=""jspsych-html-btn-chosen""><img src=""run_exp/static/images/task_images/planet-02.jpg"" height=""50""></button><p><b>[press the space bar to lock in your answer]<b><br></p>",32,,,,,,,,,,,,,,,,,,,,,,,,
time_out,22,206818,0.0-9.0-0.0,"""event"",""trial"",""time""
""fullscreenenter"",""1"",""10609""
","
","
","""event"",""trial"",""time""
""fullscreenenter"",""1"",""10609""
","
",,null,run_exp/static/audio/clip_7_timeout.m4a,null,"<p>If you don't make your choice fast enough, you’ll have to wait a few seconds before you can make another one.</p><p>You can’t dig for more gems or travel to new planets. You just have to sit and wait.</p><br><p><img src='run_exp/static/images/task_images/time_out.jpg'  height='600' width='auto'></p>",,,,,,,,,,,,,,,,,,,,,,,
time_out,23,224103,0.0-9.0-1.0,"""event"",""trial"",""time""
""fullscreenenter"",""1"",""10609""
","
","
","""event"",""trial"",""time""
""fullscreenenter"",""1"",""10609""
","
",,17282.9,"<p>If you don't make your choice fast enough, you’ll have to wait a few seconds before you can make another one.</p><p>You can’t dig for more gems or travel to new planets. You just have to sit and wait.</p><br><p><img src='run_exp/static/images/task_images/time_out.jpg'  height='600' width='auto'></p>",,,,,,,1,,,,,,,,,,,,,,,,,,
html-keyboard-response,24,225176,0.0-9.0-2.0,"""event"",""trial"",""time""
""fullscreenenter"",""1"",""10609""
","
","
","""event"",""trial"",""time""
""fullscreenenter"",""1"",""10609""
","
",,1071.7,"<p>If you don't make your choice fast enough, you’ll have to wait a few seconds before you can make another one.</p><p>You can’t dig for more gems or travel to new planets. You just have to sit and wait.</p><br><p><img src='run_exp/static/images/task_images/time_out.jpg'  height='600' width='auto'></p><button class=""jspsych-html-btn-unchosen""><img src=""run_exp/static/images/task_images/planet-01.jpg"" height=""50""></button><button class=""jspsych-html-btn-chosen""><img src=""run_exp/static/images/task_images/planet-02.jpg"" height=""50""></button><p><b>[press the space bar to lock in your answer]<b><br></p>",32,,,,,,,,,,,,,,,,,,,,,,,,
instruc_break,25,240933,0.0-10.0-0.0,"""event"",""trial"",""time""
""fullscreenenter"",""1"",""10609""
","
","
","""event"",""trial"",""time""
""fullscreenenter"",""1"",""10609""
","
",,null,run_exp/static/audio/clip_8_break.m4a,null,"<p> After digging and traveling for a while, you’ll be able to take a break at home base. </p><p>The game will last 20 minutes no matter what.</p><p>You will visit home base every 5 minutes, so, you will visit home base three times during the game.</p><br><p><img src='run_exp/static/images/task_images/home_base.jpg' height='600' width='auto'></p>",,,,,,,,,,,,,,,,,,,,,,,
instruc_break,26,289487,0.0-10.0-1.0,"""event"",""trial"",""time""
""fullscreenenter"",""1"",""10609""
","
","
","""event"",""trial"",""time""
""fullscreenenter"",""1"",""10609""
","
",,48550.6,"<p> After digging and traveling for a while, you’ll be able to take a break at home base. </p><p>The game will last 20 minutes no matter what.</p><p>You will visit home base every 5 minutes, so, you will visit home base three times during the game.</p><br><p><img src='run_exp/static/images/task_images/home_base.jpg' height='600' width='auto'></p>",,,,,,,1,,,,,,,,,,,,,,,,,,
html-keyboard-response,27,290391,0.0-10.0-2.0,"""event"",""trial"",""time""
""fullscreenenter"",""1"",""10609""
","
","
","""event"",""trial"",""time""
""fullscreenenter"",""1"",""10609""
","
",,901,"<p> After digging and traveling for a while, you’ll be able to take a break at home base. </p><p>The game will last 20 minutes no matter what.</p><p>You will visit home base every 5 minutes, so, you will visit home base three times during the game.</p><br><p><img src='run_exp/static/images/task_images/home_base.jpg' height='600' width='auto'></p><button class=""jspsych-html-btn-unchosen""><img src=""run_exp/static/images/task_images/planet-01.jpg"" height=""50""></button><button class=""jspsych-html-btn-chosen""><img src=""run_exp/static/images/task_images/planet-02.jpg"" height=""50""></button><p><b>[press the space bar to lock in your answer]<b><br></p>",32,,,,,,,,,,,,,,,,,,,,,,,,
instruc_prac_game,28,300718,0.0-11.0-0.0,"""event"",""trial"",""time""
""fullscreenenter"",""1"",""10609""
","
","
","""event"",""trial"",""time""
""fullscreenenter"",""1"",""10609""
","
",,null,run_exp/static/audio/clip_9_practice.m4a,null,"<p> Are you ready to play a practice game? </p> <p>In this practice game, you'll be digging up barrels of gems. But, in the real game, you'll be digging up the gems themselves. </p>",,,,,,,,,,,,,,,,,,,,,,,
html-button-response,29,304649,0.0-11.0-1.0,"""event"",""trial"",""time""
""fullscreenenter"",""1"",""10609""
","
","
","""event"",""trial"",""time""
""fullscreenenter"",""1"",""10609""
","
",,3928.7,"<p> Are you ready to play a practice game? </p> <p>In this practice game, you'll be digging up barrels of gems. But, in the real game, you'll be digging up the gems themselves. </p>",,,,,,,0,,,,,,,,,,,,,,,,,,
alien_welcome_prac,30,309657,0.0-12.0-0.0,"""event"",""trial"",""time""
""fullscreenenter"",""1"",""10609""
","
","
","""event"",""trial"",""time""
""fullscreenenter"",""1"",""10609""
","
",,null,run_exp/static/images/task_images/aliens/practice_aliens/planet/alien_planet-5.jpg,null,,,,,,,,,,,,,,,,,,,,,,,,
land_prac,31,310164,0.0-12.0-1.0,"""event"",""trial"",""time""
""fullscreenenter"",""1"",""10609""
","
","
","""event"",""trial"",""time""
""fullscreenenter"",""1"",""10609""
","
",,null,run_exp/static/images/task_images/land.jpg,null,,,,,,,103,,,0,,,,,,,,,,,,,,
dig_prac,32,312187,0.0-12.0-2.0,"""event"",""trial"",""time""
""fullscreenenter"",""1"",""10609""
","
","
","""event"",""trial"",""time""
""fullscreenenter"",""1"",""10609""
","
",,,,,,,,,,,,"[{""stimulus"":""run_exp/static/images/task_images/dig.jpg"",""time"":0.5},{""stimulus"":""run_exp/static/images/task_images/land.jpg"",""time"":681.6000001430511},{""stimulus"":""run_exp/static/images/task_images/dig.jpg"",""time"":1341.4000000953674}]",[],,,,,,,,,,,,,,,
harvest_prac,33,313207,0.0-12.0-3.0,"""event"",""trial"",""time""
""fullscreenenter"",""1"",""10609""
","
","
","""event"",""trial"",""time""
""fullscreenenter"",""1"",""10609""
","
",,null,run_exp/static/images/task_images/barrel_text.jpg,null,,,,,,,,,,,,,,,,,,,,,,,,
decision_prac,34,316217,0.0-12.0-4.0,"""event"",""trial"",""time""
""fullscreenenter"",""1"",""10609""
","
","
","""event"",""trial"",""time""
""fullscreenenter"",""1"",""10609""
","
",,null,run_exp/static/images/task_images/land.jpg,null,,,,,,,,,,,1,,,,,,,,,,,,,
time_out,35,318237,0.0-13.0-0.0,"""event"",""trial"",""time""
""fullscreenenter"",""1"",""10609""
","
","
","""event"",""trial"",""time""
""fullscreenenter"",""1"",""10609""
","
",,null,run_exp/static/images/task_images/time_out.jpg,null,,,,,,,,,,,,,,,,,,,,,,,,
decision_prac,36,321247,0.0-13.0-1.0,"""event"",""trial"",""time""
""fullscreenenter"",""1"",""10609""
","
","
","""event"",""trial"",""time""
""fullscreenenter"",""1"",""10609""
","
",,null,run_exp/static/images/task_images/land.jpg,null,,,,,,,,,,,2,,,,,,,,,,,,,
time_out,37,323254,0.0-14.0-0.0,"""event"",""trial"",""time""
""fullscreenenter"",""1"",""10609""
","
","
","""event"",""trial"",""time""
""fullscreenenter"",""1"",""10609""
","
",,null,run_exp/static/images/task_images/time_out.jpg,null,,,,,,,,,,,,,,,,,,,,,,,,
decision_prac,38,324240,0.0-14.0-1.0,"""event"",""trial"",""time""
""fullscreenenter"",""1"",""10609""
","
","
","""event"",""trial"",""time""
""fullscreenenter"",""1"",""10609""
","
",,984.5999999,run_exp/static/images/task_images/land.jpg,65,,,,,,,,,,,3,,,,,,,,,,,,,
dig_prac,39,326258,0.0-15.0-0.0,"""event"",""trial"",""time""
""fullscreenenter"",""1"",""10609""
","
","
","""event"",""trial"",""time""
""fullscreenenter"",""1"",""10609""
","
",,,,,,,,,,,,"[{""stimulus"":""run_exp/static/images/task_images/dig.jpg"",""time"":0.2999999523162842},{""stimulus"":""run_exp/static/images/task_images/land.jpg"",""time"":673.2999999523163},{""stimulus"":""run_exp/static/images/task_images/dig.jpg"",""time"":1343.2000000476837}]",[],,,,,,,,,,,,,,,
harvest_prac,40,327278,0.0-15.0-1.0,"""event"",""trial"",""time""
""fullscreenenter"",""1"",""10609""
","
","
","""event"",""trial"",""time""
""fullscreenenter"",""1"",""10609""
","
",,null,run_exp/static/images/task_images/barrel_text.jpg,null,,,,,,,,,,,,,,,,,,,,,,,,
decision_prac,41,328736,0.0-15.0-2.0,"""event"",""trial"",""time""
""fullscreenenter"",""1"",""10609""
","
","
","""event"",""trial"",""time""
""fullscreenenter"",""1"",""10609""
","
",,1457.3,run_exp/static/images/task_images/land.jpg,65,,,,,,,,,,,4,,,,,,,,,,,,,
dig_prac,42,330746,0.0-16.0-0.0,"""event"",""trial"",""time""
""fullscreenenter"",""1"",""10609""
","
","
","""event"",""trial"",""time""
""fullscreenenter"",""1"",""10609""
","
",,,,,,,,,,,,"[{""stimulus"":""run_exp/static/images/task_images/dig.jpg"",""time"":0.3000001907348633},{""stimulus"":""run_exp/static/images/task_images/land.jpg"",""time"":669.9000000953674},{""stimulus"":""run_exp/static/images/task_images/dig.jpg"",""time"":1346.6000001430511}]",[],,,,,,,,,,,,,,,
harvest_prac,43,331758,0.0-16.0-1.0,"""event"",""trial"",""time""
""fullscreenenter"",""1"",""10609""
","
","
","""event"",""trial"",""time""
""fullscreenenter"",""1"",""10609""
","
",,null,run_exp/static/images/task_images/barrel_text.jpg,null,,,,,,,,,,,,,,,,,,,,,,,,
decision_prac,44,332665,0.0-16.0-2.0,"""event"",""trial"",""time""
""fullscreenenter"",""1"",""10609""
","
","
","""event"",""trial"",""time""
""fullscreenenter"",""1"",""10609""
","
",,905.5,run_exp/static/images/task_images/land.jpg,76,,,,,,,,,,,,1,,,,,,,,,,,,
quiz_instruc,45,341331,0.0-17.0-0.0,"""event"",""trial"",""time""
""fullscreenenter"",""1"",""10609""
","
","
","""event"",""trial"",""time""
""fullscreenenter"",""1"",""10609""
","
",,8660.9,run_exp/static/audio/clip_10_quiz.m4a,,,,,,,0,,,,,,,,,,,,,,,,,,
instruc_repeat,46,384109,0.0-17.0-1.0,"""event"",""trial"",""time""
""fullscreenenter"",""1"",""10609""
","
","
","""event"",""trial"",""time""
""fullscreenenter"",""1"",""10609""
","
",,null,"<p> Are you ready to play a practice game? </p> <p>In this practice game, you'll be digging up barrels of gems. But, in the real game, you'll be digging up the gems themselves. </p>",null,"<p>In this game, your goal is to collect as many gems as you can. That’s how you will win bonus money. </p> <p>The entire game will last 20 minutes no matter how many gems you collect or how many planets you visit. </p><p>To stay on a planet and dig again, press the letter A on your keyboard. To leave for a new planet, press the letter L.</p><p>The more you dig on a planet, the fewer gems you’ll get with each dig which is why you might consider leaving for a new planet. </p><p>When you arrive at a new planet, you’ll be greeted by an alien. What the alien looks like does not tell you anything about how much treasure is on the planet. </p>",,,,,,,,,,,,,,,,,,,,,,,
instruc_repeat_continue,47,389451,0.0-17.0-2.0,"""event"",""trial"",""time""
""fullscreenenter"",""1"",""10609""
","
","
","""event"",""trial"",""time""
""fullscreenenter"",""1"",""10609""
","
",,5339.6,"<p> Are you ready to play a practice game? </p> <p>In this practice game, you'll be digging up barrels of gems. But, in the real game, you'll be digging up the gems themselves. </p>",,,,,,,0,,,,,,,,,,,,,,,,,,
quiz_q_1_ask,48,400165,0.0-17.0-3.0,"""event"",""trial"",""time""
""fullscreenenter"",""1"",""10609""
","
","
","""event"",""trial"",""time""
""fullscreenenter"",""1"",""10609""
","
",,10711.4,run_exp/static/audio/clip_11_q1_ask.m4a,,,,,,,2,,,,,,,,,,,,,,,,,,
quiz_q_1_fb_correct,49,404010,0.0-18.0-0.0,"""event"",""trial"",""time""
""fullscreenenter"",""1"",""10609""
","
","
","""event"",""trial"",""time""
""fullscreenenter"",""1"",""10609""
","
",,null,run_exp/static/audio/clip_12_q1_correct.m4a,null,<p>That’s correct. You win extra money by collecting more gems.</p>,,,,,,,,,,,,,,,,,,,,,,,
quiz_q_2_ask,50,408848,0.0-18.0-1.0,"""event"",""trial"",""time""
""fullscreenenter"",""1"",""10609""
","
","
","""event"",""trial"",""time""
""fullscreenenter"",""1"",""10609""
","
",,4835.6,run_exp/static/audio/clip_14_q2_ask.m4a,,,,,,,1,,,,,,,,,,,,,,,,,,
quiz_q_2_fb_correct,51,412849,0.0-19.0-0.0,"""event"",""trial"",""time""
""fullscreenenter"",""1"",""10609""
","
","
","""event"",""trial"",""time""
""fullscreenenter"",""1"",""10609""
","
",,null,run_exp/static/audio/clip_15_q2_correct.m4a,null,<p>That’s correct. The experiment is 20 minutes no matter what.</p>,,,,,,,,,,,,,,,,,,,,,,,
quiz_q_3_ask,52,417160,0.0-19.0-1.0,"""event"",""trial"",""time""
""fullscreenenter"",""1"",""10609""
","
","
","""event"",""trial"",""time""
""fullscreenenter"",""1"",""10609""
","
",,4308.2,run_exp/static/audio/clip_17_q3_ask.m4a,,,,,,,1,,,,,,,,,,,,,,,,,,
quiz_q_3_fb_correct,53,421150,0.0-20.0-0.0,"""event"",""trial"",""time""
""fullscreenenter"",""1"",""10609""
","
","
","""event"",""trial"",""time""
""fullscreenenter"",""1"",""10609""
","
",,null,run_exp/static/audio/clip_18_q3_correct.m4a,null,<p> That’s correct. You press the letter L to travel to a new planet.</p>,,,,,,,,,,,,,,,,,,,,,,,
quiz_q_4_ask,54,424590,0.0-20.0-1.0,"""event"",""trial"",""time""
""fullscreenenter"",""1"",""10609""
","
","
","""event"",""trial"",""time""
""fullscreenenter"",""1"",""10609""
","
",,3438.3,run_exp/static/audio/clip_20_q4_ask.m4a,,,,,,,0,,,,,,,,,,,,,,,,,,
quiz_q_4_fb_correct,55,429907,0.0-21.0-0.0,"""event"",""trial"",""time""
""fullscreenenter"",""1"",""10609""
","
","
","""event"",""trial"",""time""
""fullscreenenter"",""1"",""10609""
","
",,null,run_exp/static/audio/clip_21_q4_correct.m4a,null,<p> That’s correct. The more you dig on a planet the fewer gems you’ll get with each dig. </p>,,,,,,,,,,,,,,,,,,,,,,,
quiz_q_5_ask,56,433518,0.0-21.0-1.0,"""event"",""trial"",""time""
""fullscreenenter"",""1"",""10609""
","
","
","""event"",""trial"",""time""
""fullscreenenter"",""1"",""10609""
","
",,3607.7,run_exp/static/audio/clip_23_q5_ask.m4a,,,,,,,1,,,,,,,,,,,,,,,,,,
quiz_q_5_fb_correct,57,438527,0.0-22.0-0.0,"""event"",""trial"",""time""
""fullscreenenter"",""1"",""10609""
","
","
","""event"",""trial"",""time""
""fullscreenenter"",""1"",""10609""
","
",,null,run_exp/static/audio/clip_24_q5_correct.m4a,null,<p> That’s correct. The alien tells you nothing about how much treasure is on the planet.</p>,,,,,,,,,,,,,,,,,,,,,,,
quiz_correct,58,441987,0.0-23.0-0.0,"""event"",""trial"",""time""
""fullscreenenter"",""1"",""10609""
","
","
","""event"",""trial"",""time""
""fullscreenenter"",""1"",""10609""
","
",,null,run_exp/static/audio/clip_26_correct_quiz.m4a,null,,,,,,,,,,,,,,,,,,,,,,,,
quiz_correct_continue,59,446148,0.0-23.0-1.0,"""event"",""trial"",""time""
""fullscreenenter"",""1"",""10609""
","
","
","""event"",""trial"",""time""
""fullscreenenter"",""1"",""10609""
","
",,4159.5,<p>Good job! You're now ready to move on to the real game!</p>,,,,,,,0,,,,,,,,,,,,,,,,,,
audio-keyboard-response,60,456267,0.0-23.0-2.0,"""event"",""trial"",""time""
""fullscreenenter"",""1"",""10609""
","
","
","""event"",""trial"",""time""
""fullscreenenter"",""1"",""10609""
","
",,null,run_exp/static/audio/clip_28_real_game.m4a,null,,,,,,,,,,,,,,,,,,,,,,,,
instruc_begin_exp_contine,61,458118,0.0-23.0-3.0,"""event"",""trial"",""time""
""fullscreenenter"",""1"",""10609""
","
","
","""event"",""trial"",""time""
""fullscreenenter"",""1"",""10609""
","
",,1849.6,"<p>Now that you know how  to dig for space treasure and travel to new planets,you can start exploring! </p><p>Do you want to go over the instructions again or get started with the real game?</p>",,,,,,,1,,,,,,1,,,,,,,,,,,,
alien_welcome,62,463123,0.0-24.0-0.0,"""event"",""trial"",""time""
""fullscreenenter"",""1"",""10609""
","
","
","""event"",""trial"",""time""
""fullscreenenter"",""1"",""10609""
","
",,null,run_exp/static/images/task_images/aliens/old_aliens/planet/alien_planet-33.jpg,null,,,,,,,,,,,,,33,"33,24,36,14,20,79,21,23,44,59,29,67,62,7,4,60,65,71,18,61,6,22,16,5,27,28,55,8,52,26,46,9,17,51,66",,,,,,,,,,
land,63,463640,0.0-24.0-1.0,"""event"",""trial"",""time""
""fullscreenenter"",""1"",""10609""
","
","
","""event"",""trial"",""time""
""fullscreenenter"",""1"",""10609""
","
",,null,run_exp/static/images/task_images/land.jpg,null,,,,,,,98,,,1,,,,,,,,,,,,,,
dig,64,465656,0.0-24.0-2.0,"""event"",""trial"",""time""
""fullscreenenter"",""1"",""10609""
","
","
","""event"",""trial"",""time""
""fullscreenenter"",""1"",""10609""
","
",,,,,,,,,,,,"[{""stimulus"":""run_exp/static/images/task_images/dig.jpg"",""time"":0.2999999523162842},{""stimulus"":""run_exp/static/images/task_images/land.jpg"",""time"":674.1000001430511},{""stimulus"":""run_exp/static/images/task_images/dig.jpg"",""time"":1343.9000000953674}]",[],1,,,,,,,,,,,,,,
harvest,65,466676,0.0-24.0-3.0,"""event"",""trial"",""time""
""fullscreenenter"",""1"",""10609""
","
","
","""event"",""trial"",""time""
""fullscreenenter"",""1"",""10609""
","
",,null,run_exp/static/images/task_images/gems/98.jpg,null,,,,,,,21,,,1,,,,,98,0.212925441,0.214285714,,,,,,,
decision,66,467447,0.0-24.0-4.0,"""event"",""trial"",""time""
""fullscreenenter"",""1"",""10609""
","
","
","""event"",""trial"",""time""
""fullscreenenter"",""1"",""10609""
","
",,769.2,run_exp/static/images/task_images/land.jpg,65,,,,,,,21,,,1,,,,,,,,9327,1,0,FALSE,,,
dig,67,469686,0.0-25.0-0.0,"""event"",""trial"",""time""
""fullscreenenter"",""1"",""10609""
","
","
","""event"",""trial"",""time""
""fullscreenenter"",""1"",""10609""
","
",,,,,,,,,,,,"[{""stimulus"":""run_exp/static/images/task_images/dig.jpg"",""time"":0.2999999523162842},{""stimulus"":""run_exp/static/images/task_images/land.jpg"",""time"":755.0999999046326},{""stimulus"":""run_exp/static/images/task_images/dig.jpg"",""time"":1494.6999998092651}]",[],1,,,,,,,,,,,,,,
harvest,68,470694,0.0-25.0-1.0,"""event"",""trial"",""time""
""fullscreenenter"",""1"",""10609""
","
","
","""event"",""trial"",""time""
""fullscreenenter"",""1"",""10609""
","
",,null,run_exp/static/images/task_images/gems/21.jpg,null,,,,,,,2,,,1,,,,,21,0.102648359,0.095238095,,,,,,,
decision,69,471236,0.0-25.0-2.0,"""event"",""trial"",""time""
""fullscreenenter"",""1"",""10609""
","
","
","""event"",""trial"",""time""
""fullscreenenter"",""1"",""10609""
","
",,539.8,run_exp/static/images/task_images/land.jpg,65,,,,,,,2,,,1,,,,,,,,13116,1,1,FALSE,,,
dig,70,473715,0.0-26.0-0.0,"""event"",""trial"",""time""
""fullscreenenter"",""1"",""10609""
","
","
","""event"",""trial"",""time""
""fullscreenenter"",""1"",""10609""
","
",,,,,,,,,,,,"[{""stimulus"":""run_exp/static/images/task_images/dig.jpg"",""time"":0.2999999523162842},{""stimulus"":""run_exp/static/images/task_images/land.jpg"",""time"":836.5},{""stimulus"":""run_exp/static/images/task_images/dig.jpg"",""time"":1656.2999999523163}]",[],1,,,,,,,,,,,,,,
harvest,71,474721,0.0-26.0-1.0,"""event"",""trial"",""time""
""fullscreenenter"",""1"",""10609""
","
","
","""event"",""trial"",""time""
""fullscreenenter"",""1"",""10609""
","
",,null,run_exp/static/images/task_images/gems/2.jpg,null,,,,,,,0,,,1,,,,,2,0.122400378,0,,,,,,,
decision,72,475414,0.0-26.0-2.0,"""event"",""trial"",""time""
""fullscreenenter"",""1"",""10609""
","
","
","""event"",""trial"",""time""
""fullscreenenter"",""1"",""10609""
","
",,691.5999999,run_exp/static/images/task_images/land.jpg,76,,,,,,,0,,,1,,,,,,,,17294,1,2,TRUE,,,
travel,73,484736,0.0-27.0-0.0,"""event"",""trial"",""time""
""fullscreenenter"",""1"",""10609""
","
","
","""event"",""trial"",""time""
""fullscreenenter"",""1"",""10609""
","
",,,,,,,,,,,,"[{""stimulus"":""run_exp/static/images/task_images/rocket-01.jpg"",""time"":0.2999999523162842},{""stimulus"":""run_exp/static/images/task_images/rocket-02.jpg"",""time"":1037.2999999523163},{""stimulus"":""run_exp/static/images/task_images/rocket-03.jpg"",""time"":2087.4000000953674},{""stimulus"":""run_exp/static/images/task_images/rocket-04.jpg"",""time"":3107.7000000476837},{""stimulus"":""run_exp/static/images/task_images/rocket-05.jpg"",""time"":4147.299999952316},{""stimulus"":""run_exp/static/images/task_images/rocket-06.jpg"",""time"":5177.5},{""stimulus"":""run_exp/static/images/task_images/rocket-07.jpg"",""time"":6207.5},{""stimulus"":""run_exp/static/images/task_images/rocket-08.jpg"",""time"":7247.900000095367},{""stimulus"":""run_exp/static/images/task_images/rocket-09.jpg"",""time"":8277.299999952316}]",[],1,,,,,,,,,,,,,,
alien_welcome,74,489745,0.0-27.0-1.0,"""event"",""trial"",""time""
""fullscreenenter"",""1"",""10609""
","
","
","""event"",""trial"",""time""
""fullscreenenter"",""1"",""10609""
","
",,null,run_exp/static/images/task_images/aliens/old_aliens/planet/alien_planet-24.jpg,null,,,,,,,,,,,,,24,"33,24,36,14,20,79,21,23,44,59,29,67,62,7,4,60,65,71,18,61,6,22,16,5,27,28,55,8,52,26,46,9,17,51,66",,,,,,,,,,
land,75,490264,0.0-27.0-2.0,"""event"",""trial"",""time""
""fullscreenenter"",""1"",""10609""
","
","
","""event"",""trial"",""time""
""fullscreenenter"",""1"",""10609""
","
",,null,run_exp/static/images/task_images/land.jpg,null,,,,,,,95,,,2,,,,,,,,,,,,,,
dig,76,492278,0.0-27.0-3.0,"""event"",""trial"",""time""
""fullscreenenter"",""1"",""10609""
","
","
","""event"",""trial"",""time""
""fullscreenenter"",""1"",""10609""
","
",,,,,,,,,,,,"[{""stimulus"":""run_exp/static/images/task_images/dig.jpg"",""time"":0.40000009536743164},{""stimulus"":""run_exp/static/images/task_images/land.jpg"",""time"":672.2999999523163},{""stimulus"":""run_exp/static/images/task_images/dig.jpg"",""time"":1352.2000000476837}]",[],2,,,,,,,,,,,,,,
harvest,77,493298,0.0-27.0-4.0,"""event"",""trial"",""time""
""fullscreenenter"",""1"",""10609""
","
","
","""event"",""trial"",""time""
""fullscreenenter"",""1"",""10609""
","
",,null,run_exp/static/images/task_images/gems/95.jpg,null,,,,,,,14,,,2,,,,,95,0.147424661,0.147368421,,,,,,,
decision,78,493858,0.0-27.0-5.0,"""event"",""trial"",""time""
""fullscreenenter"",""1"",""10609""
","
","
","""event"",""trial"",""time""
""fullscreenenter"",""1"",""10609""
","
",,558.5,run_exp/static/images/task_images/land.jpg,65,,,,,,,14,,,2,,,,,,,,35738,1,0,FALSE,,,
dig,79,496307,0.0-28.0-0.0,"""event"",""trial"",""time""
""fullscreenenter"",""1"",""10609""
","
","
","""event"",""trial"",""time""
""fullscreenenter"",""1"",""10609""
","
",,,,,,,,,,,,"[{""stimulus"":""run_exp/static/images/task_images/dig.jpg"",""time"":0.2999999523162842},{""stimulus"":""run_exp/static/images/task_images/land.jpg"",""time"":826.3999998569489},{""stimulus"":""run_exp/static/images/task_images/dig.jpg"",""time"":1646.1999998092651}]",[],2,,,,,,,,,,,,,,
harvest,80,497328,0.0-28.0-1.0,"""event"",""trial"",""time""
""fullscreenenter"",""1"",""10609""
","
","
","""event"",""trial"",""time""
""fullscreenenter"",""1"",""10609""
","
",,null,run_exp/static/images/task_images/gems/14.jpg,null,,,,,,,4,,,2,,,,,14,0.259749577,0.285714286,,,,,,,
decision,81,497450,0.0-28.0-2.0,"""event"",""trial"",""time""
""fullscreenenter"",""1"",""10609""
","
","
","""event"",""trial"",""time""
""fullscreenenter"",""1"",""10609""
","
",,120.5999999,run_exp/static/images/task_images/land.jpg,65,,,,,,,4,,,2,,,,,,,,39330,1,1,FALSE,,,
dig,82,500347,0.0-29.0-0.0,"""event"",""trial"",""time""
""fullscreenenter"",""1"",""10609""
","
","
","""event"",""trial"",""time""
""fullscreenenter"",""1"",""10609""
","
",,,,,,,,,,,,"[{""stimulus"":""run_exp/static/images/task_images/dig.jpg"",""time"":0.2999999523162842},{""stimulus"":""run_exp/static/images/task_images/land.jpg"",""time"":963.7000000476837},{""stimulus"":""run_exp/static/images/task_images/dig.jpg"",""time"":1934.7999999523163}]",[],2,,,,,,,,,,,,,,
harvest,83,501368,0.0-29.0-1.0,"""event"",""trial"",""time""
""fullscreenenter"",""1"",""10609""
","
","
","""event"",""trial"",""time""
""fullscreenenter"",""1"",""10609""
","
",,null,run_exp/static/images/task_images/gems/4.jpg,null,,,,,,,1,,,2,,,,,4,0.192403838,0.25,,,,,,,
decision,84,502925,0.0-29.0-2.0,"""event"",""trial"",""time""
""fullscreenenter"",""1"",""10609""
","
","
","""event"",""trial"",""time""
""fullscreenenter"",""1"",""10609""
","
",,1555.9,run_exp/static/images/task_images/land.jpg,76,,,,,,,1,,,2,,,,,,,,44806,1,2,TRUE,,,
travel,85,511378,0.0-30.0-0.0,"""event"",""trial"",""time""
""fullscreenenter"",""1"",""10609""
","
","
","""event"",""trial"",""time""
""fullscreenenter"",""1"",""10609""
","
",,,,,,,,,,,,"[{""stimulus"":""run_exp/static/images/task_images/rocket-01.jpg"",""time"":0.3000001907348633},{""stimulus"":""run_exp/static/images/task_images/rocket-02.jpg"",""time"":951.6000001430511},{""stimulus"":""run_exp/static/images/task_images/rocket-03.jpg"",""time"":1887.8000001907349},{""stimulus"":""run_exp/static/images/task_images/rocket-04.jpg"",""time"":2822.2000000476837},{""stimulus"":""run_exp/static/images/task_images/rocket-05.jpg"",""time"":3757.9000000953674},{""stimulus"":""run_exp/static/images/task_images/rocket-06.jpg"",""time"":4698.300000190735},{""stimulus"":""run_exp/static/images/task_images/rocket-07.jpg"",""time"":5638.200000047684},{""stimulus"":""run_exp/static/images/task_images/rocket-08.jpg"",""time"":6578.200000047684},{""stimulus"":""run_exp/static/images/task_images/rocket-09.jpg"",""time"":7518.100000143051}]",[],2,,,,,,,,,,,,,,
alien_welcome,86,516388,0.0-30.0-1.0,"""event"",""trial"",""time""
""fullscreenenter"",""1"",""10609""
","
","
","""event"",""trial"",""time""
""fullscreenenter"",""1"",""10609""
","
",,null,run_exp/static/images/task_images/aliens/old_aliens/planet/alien_planet-36.jpg,null,,,,,,,,,,,,,36,"33,24,36,14,20,79,21,23,44,59,29,67,62,7,4,60,65,71,18,61,6,22,16,5,27,28,55,8,52,26,46,9,17,51,66",,,,,,,,,,
land,87,516908,0.0-30.0-2.0,"""event"",""trial"",""time""
""fullscreenenter"",""1"",""10609""
","
","
","""event"",""trial"",""time""
""fullscreenenter"",""1"",""10609""
","
",,null,run_exp/static/images/task_images/land.jpg,null,,,,,,,98,,,3,,,,,,,,,,,,,,
dig,88,518928,0.0-30.0-3.0,"""event"",""trial"",""time""
""fullscreenenter"",""1"",""10609""
","
","
","""event"",""trial"",""time""
""fullscreenenter"",""1"",""10609""
","
",,,,,,,,,,,,"[{""stimulus"":""run_exp/static/images/task_images/dig.jpg"",""time"":0.5999999046325684},{""stimulus"":""run_exp/static/images/task_images/land.jpg"",""time"":677.8999998569489},{""stimulus"":""run_exp/static/images/task_images/dig.jpg"",""time"":1338.2999999523163}]",[],3,,,,,,,,,,,,,,
harvest,89,519938,0.0-30.0-4.0,"""event"",""trial"",""time""
""fullscreenenter"",""1"",""10609""
","
","
","""event"",""trial"",""time""
""fullscreenenter"",""1"",""10609""
","
",,null,run_exp/static/images/task_images/gems/98.jpg,null,,,,,,,43,,,3,,,,,98,0.438695126,0.43877551,,,,,,,
decision,90,521517,0.0-30.0-5.0,"""event"",""trial"",""time""
""fullscreenenter"",""1"",""10609""
","
","
","""event"",""trial"",""time""
""fullscreenenter"",""1"",""10609""
","
",,1577.2,run_exp/static/images/task_images/land.jpg,65,,,,,,,43,,,3,,,,,,,,63397,1,0,FALSE,,,
dig,91,522958,0.0-31.0-0.0,"""event"",""trial"",""time""
""fullscreenenter"",""1"",""10609""
","
","
","""event"",""trial"",""time""
""fullscreenenter"",""1"",""10609""
","
",,,,,,,,,,,,"[{""stimulus"":""run_exp/static/images/task_images/dig.jpg"",""time"":0.20000004768371582},{""stimulus"":""run_exp/static/images/task_images/land.jpg"",""time"":476},{""stimulus"":""run_exp/static/images/task_images/dig.jpg"",""time"":966}]",[],3,,,,,,,,,,,,,,
harvest,92,523978,0.0-31.0-1.0,"""event"",""trial"",""time""
""fullscreenenter"",""1"",""10609""
","
","
","""event"",""trial"",""time""
""fullscreenenter"",""1"",""10609""
","
",,null,run_exp/static/images/task_images/gems/43.jpg,null,,,,,,,22,,,3,,,,,43,0.519588552,0.511627907,,,,,,,
decision,93,524993,0.0-31.0-2.0,"""event"",""trial"",""time""
""fullscreenenter"",""1"",""10609""
","
","
","""event"",""trial"",""time""
""fullscreenenter"",""1"",""10609""
","
",,1013.9,run_exp/static/images/task_images/land.jpg,65,,,,,,,22,,,3,,,,,,,,66873,1,1,FALSE,,,
dig,94,526991,0.0-32.0-0.0,"""event"",""trial"",""time""
""fullscreenenter"",""1"",""10609""
","
","
","""event"",""trial"",""time""
""fullscreenenter"",""1"",""10609""
","
",,,,,,,,,,,,"[{""stimulus"":""run_exp/static/images/task_images/dig.jpg"",""time"":0.2999999523162842},{""stimulus"":""run_exp/static/images/task_images/land.jpg"",""time"":670.7000000476837},{""stimulus"":""run_exp/static/images/task_images/dig.jpg"",""time"":1331.0999999046326}]",[],3,,,,,,,,,,,,,,
harvest,95,527998,0.0-32.0-1.0,"""event"",""trial"",""time""
""fullscreenenter"",""1"",""10609""
","
","
","""event"",""trial"",""time""
""fullscreenenter"",""1"",""10609""
","
",,null,run_exp/static/images/task_images/gems/22.jpg,null,,,,,,,12,,,3,,,,,22,0.540160026,0.545454545,,,,,,,
decision,96,528441,0.0-32.0-2.0,"""event"",""trial"",""time""
""fullscreenenter"",""1"",""10609""
","
","
","""event"",""trial"",""time""
""fullscreenenter"",""1"",""10609""
","
",,442.1000001,run_exp/static/images/task_images/land.jpg,65,,,,,,,12,,,3,,,,,,,,70322,1,2,FALSE,,,
dig,97,531017,0.0-33.0-0.0,"""event"",""trial"",""time""
""fullscreenenter"",""1"",""10609""
","
","
","""event"",""trial"",""time""
""fullscreenenter"",""1"",""10609""
","
",,,,,,,,,,,,"[{""stimulus"":""run_exp/static/images/task_images/dig.jpg"",""time"":0.39999985694885254},{""stimulus"":""run_exp/static/images/task_images/land.jpg"",""time"":872.7000000476837},{""stimulus"":""run_exp/static/images/task_images/dig.jpg"",""time"":1712.5}]",[],3,,,,,,,,,,,,,,
harvest,98,532038,0.0-33.0-1.0,"""event"",""trial"",""time""
""fullscreenenter"",""1"",""10609""
","
","
","""event"",""trial"",""time""
""fullscreenenter"",""1"",""10609""
","
",,null,run_exp/static/images/task_images/gems/12.jpg,null,,,,,,,6,,,3,,,,,12,0.50647496,0.5,,,,,,,
decision,99,532669,0.0-33.0-2.0,"""event"",""trial"",""time""
""fullscreenenter"",""1"",""10609""
","
","
","""event"",""trial"",""time""
""fullscreenenter"",""1"",""10609""
","
",,629.8,run_exp/static/images/task_images/land.jpg,65,,,,,,,6,,,3,,,,,,,,74549,1,3,FALSE,,,
dig,100,535048,0.0-34.0-0.0,"""event"",""trial"",""time""
""fullscreenenter"",""1"",""10609""
","
","
","""event"",""trial"",""time""
""fullscreenenter"",""1"",""10609""
","
",,,,,,,,,,,,"[{""stimulus"":""run_exp/static/images/task_images/dig.jpg"",""time"":0.20000004768371582},{""stimulus"":""run_exp/static/images/task_images/land.jpg"",""time"":805.0999999046326},{""stimulus"":""run_exp/static/images/task_images/dig.jpg"",""time"":1585.0999999046326}]",[],3,,,,,,,,,,,,,,
harvest,101,536053,0.0-34.0-1.0,"""event"",""trial"",""time""
""fullscreenenter"",""1"",""10609""
","
","
","""event"",""trial"",""time""
""fullscreenenter"",""1"",""10609""
","
",,null,run_exp/static/images/task_images/gems/6.jpg,null,,,,,,,3,,,3,,,,,6,0.478529098,0.5,,,,,,,
decision,102,536806,0.0-34.0-2.0,"""event"",""trial"",""time""
""fullscreenenter"",""1"",""10609""
","
","
","""event"",""trial"",""time""
""fullscreenenter"",""1"",""10609""
","
",,751.1999998,run_exp/static/images/task_images/land.jpg,65,,,,,,,3,,,3,,,,,,,,78686,1,4,FALSE,,,
dig,103,539078,0.0-35.0-0.0,"""event"",""trial"",""time""
""fullscreenenter"",""1"",""10609""
","
","
","""event"",""trial"",""time""
""fullscreenenter"",""1"",""10609""
","
",,,,,,,,,,,,"[{""stimulus"":""run_exp/static/images/task_images/dig.jpg"",""time"":0.20000004768371582},{""stimulus"":""run_exp/static/images/task_images/land.jpg"",""time"":758.4000000953674},{""stimulus"":""run_exp/static/images/task_images/dig.jpg"",""time"":1518.2000000476837}]",[],3,,,,,,,,,,,,,,
harvest,104,540096,0.0-35.0-1.0,"""event"",""trial"",""time""
""fullscreenenter"",""1"",""10609""
","
","
","""event"",""trial"",""time""
""fullscreenenter"",""1"",""10609""
","
",,null,run_exp/static/images/task_images/gems/3.jpg,null,,,,,,,2,,,3,,,,,3,0.532128283,0.666666667,,,,,,,
decision,105,540539,0.0-35.0-2.0,"""event"",""trial"",""time""
""fullscreenenter"",""1"",""10609""
","
","
","""event"",""trial"",""time""
""fullscreenenter"",""1"",""10609""
","
",,442.4000001,run_exp/static/images/task_images/land.jpg,65,,,,,,,2,,,3,,,,,,,,82419,1,5,FALSE,,,
dig,106,543108,0.0-36.0-0.0,"""event"",""trial"",""time""
""fullscreenenter"",""1"",""10609""
","
","
","""event"",""trial"",""time""
""fullscreenenter"",""1"",""10609""
","
",,,,,,,,,,,,"[{""stimulus"":""run_exp/static/images/task_images/dig.jpg"",""time"":0.20000004768371582},{""stimulus"":""run_exp/static/images/task_images/land.jpg"",""time"":867.1000001430511},{""stimulus"":""run_exp/static/images/task_images/dig.jpg"",""time"":1706.1000001430511}]",[],3,,,,,,,,,,,,,,
harvest,107,544127,0.0-36.0-1.0,"""event"",""trial"",""time""
""fullscreenenter"",""1"",""10609""
","
","
","""event"",""trial"",""time""
""fullscreenenter"",""1"",""10609""
","
",,null,run_exp/static/images/task_images/gems/2.jpg,null,,,,,,,1,,,3,,,,,2,0.521354767,0.5,,,,,,,
decision,108,545191,0.0-36.0-2.0,"""event"",""trial"",""time""
""fullscreenenter"",""1"",""10609""
","
","
","""event"",""trial"",""time""
""fullscreenenter"",""1"",""10609""
","
",,1062.7,run_exp/static/images/task_images/land.jpg,76,,,,,,,1,,,3,,,,,,,,87071,1,6,TRUE,,,
travel,109,554146,0.0-37.0-0.0,"""event"",""trial"",""time""
""fullscreenenter"",""1"",""10609""
","
","
","""event"",""trial"",""time""
""fullscreenenter"",""1"",""10609""
","
",,,,,,,,,,,,"[{""stimulus"":""run_exp/static/images/task_images/rocket-01.jpg"",""time"":0.40000009536743164},{""stimulus"":""run_exp/static/images/task_images/rocket-02.jpg"",""time"":1013.0999999046326},{""stimulus"":""run_exp/static/images/task_images/rocket-03.jpg"",""time"":1993.5},{""stimulus"":""run_exp/static/images/task_images/rocket-04.jpg"",""time"":2993},{""stimulus"":""run_exp/static/images/task_images/rocket-05.jpg"",""time"":3982.7999999523163},{""stimulus"":""run_exp/static/images/task_images/rocket-06.jpg"",""time"":4983.299999952316},{""stimulus"":""run_exp/static/images/task_images/rocket-07.jpg"",""time"":5963.5},{""stimulus"":""run_exp/static/images/task_images/rocket-08.jpg"",""time"":6953.5},{""stimulus"":""run_exp/static/images/task_images/rocket-09.jpg"",""time"":7953.099999904633}]",[],3,,,,,,,,,,,,,,
alien_welcome,110,559166,0.0-37.0-1.0,"""event"",""trial"",""time""
""fullscreenenter"",""1"",""10609""
","
","
","""event"",""trial"",""time""
""fullscreenenter"",""1"",""10609""
","
",,null,run_exp/static/images/task_images/aliens/old_aliens/planet/alien_planet-14.jpg,null,,,,,,,,,,,,,14,"33,24,36,14,20,79,21,23,44,59,29,67,62,7,4,60,65,71,18,61,6,22,16,5,27,28,55,8,52,26,46,9,17,51,66",,,,,,,,,,
land,111,559670,0.0-37.0-2.0,"""event"",""trial"",""time""
""fullscreenenter"",""1"",""10609""
","
","
","""event"",""trial"",""time""
""fullscreenenter"",""1"",""10609""
","
",,null,run_exp/static/images/task_images/land.jpg,null,,,,,,,100,,,4,,,,,,,,,,,,,,
dig,112,561676,0.0-37.0-3.0,"""event"",""trial"",""time""
""fullscreenenter"",""1"",""10609""
","
","
","""event"",""trial"",""time""
""fullscreenenter"",""1"",""10609""
","
",,,,,,,,,,,,"[{""stimulus"":""run_exp/static/images/task_images/dig.jpg"",""time"":0.2999999523162842},{""stimulus"":""run_exp/static/images/task_images/land.jpg"",""time"":674.2000000476837},{""stimulus"":""run_exp/static/images/task_images/dig.jpg"",""time"":1354.0999999046326}]",[],4,,,,,,,,,,,,,,
harvest,113,562686,0.0-37.0-4.0,"""event"",""trial"",""time""
""fullscreenenter"",""1"",""10609""
","
","
","""event"",""trial"",""time""
""fullscreenenter"",""1"",""10609""
","
",,null,run_exp/static/images/task_images/gems/100.jpg,null,,,,,,,60,,,4,,,,,100,0.597049216,0.6,,,,,,,
decision,114,562888,0.0-37.0-5.0,"""event"",""trial"",""time""
""fullscreenenter"",""1"",""10609""
","
","
","""event"",""trial"",""time""
""fullscreenenter"",""1"",""10609""
","
",,201.0999999,run_exp/static/images/task_images/land.jpg,65,,,,,,,60,,,4,,,,,,,,104768,1,0,FALSE,,,
dig,115,565696,0.0-38.0-0.0,"""event"",""trial"",""time""
""fullscreenenter"",""1"",""10609""
","
","
","""event"",""trial"",""time""
""fullscreenenter"",""1"",""10609""
","
",,,,,,,,,,,,"[{""stimulus"":""run_exp/static/images/task_images/dig.jpg"",""time"":0.09999990463256836},{""stimulus"":""run_exp/static/images/task_images/land.jpg"",""time"":940.2999999523163},{""stimulus"":""run_exp/static/images/task_images/dig.jpg"",""time"":1866.1999998092651}]",[],4,,,,,,,,,,,,,,
harvest,116,566706,0.0-38.0-1.0,"""event"",""trial"",""time""
""fullscreenenter"",""1"",""10609""
","
","
","""event"",""trial"",""time""
""fullscreenenter"",""1"",""10609""
","
",,null,run_exp/static/images/task_images/gems/60.jpg,null,,,,,,,32,,,4,,,,,60,0.527612288,0.533333333,,,,,,,
decision,117,566744,0.0-38.0-2.0,"""event"",""trial"",""time""
""fullscreenenter"",""1"",""10609""
","
","
","""event"",""trial"",""time""
""fullscreenenter"",""1"",""10609""
","
",,36.60000014,run_exp/static/images/task_images/land.jpg,65,,,,,,,32,,,4,,,,,,,,108624,1,1,FALSE,,,
dig,118,569726,0.0-39.0-0.0,"""event"",""trial"",""time""
""fullscreenenter"",""1"",""10609""
","
","
","""event"",""trial"",""time""
""fullscreenenter"",""1"",""10609""
","
",,,,,,,,,,,,"[{""stimulus"":""run_exp/static/images/task_images/dig.jpg"",""time"":0.20000004768371582},{""stimulus"":""run_exp/static/images/task_images/land.jpg"",""time"":998.3000001907349},{""stimulus"":""run_exp/static/images/task_images/dig.jpg"",""time"":1978.7000000476837}]",[],4,,,,,,,,,,,,,,
harvest,119,570736,0.0-39.0-1.0,"""event"",""trial"",""time""
""fullscreenenter"",""1"",""10609""
","
","
","""event"",""trial"",""time""
""fullscreenenter"",""1"",""10609""
","
",,null,run_exp/static/images/task_images/gems/32.jpg,null,,,,,,,16,,,4,,,,,32,0.499774352,0.5,,,,,,,
decision,120,571950,0.0-39.0-2.0,"""event"",""trial"",""time""
""fullscreenenter"",""1"",""10609""
","
","
","""event"",""trial"",""time""
""fullscreenenter"",""1"",""10609""
","
",,1212.5,run_exp/static/images/task_images/land.jpg,65,,,,,,,16,,,4,,,,,,,,113830,1,2,FALSE,,,
dig,121,573745,0.0-40.0-0.0,"""event"",""trial"",""time""
""fullscreenenter"",""1"",""10609""
","
","
","""event"",""trial"",""time""
""fullscreenenter"",""1"",""10609""
","
",,,,,,,,,,,,"[{""stimulus"":""run_exp/static/images/task_images/dig.jpg"",""time"":0.2999999523162842},{""stimulus"":""run_exp/static/images/task_images/land.jpg"",""time"":602.7000000476837},{""stimulus"":""run_exp/static/images/task_images/dig.jpg"",""time"":1202.5}]",[],4,,,,,,,,,,,,,,
harvest,122,574766,0.0-40.0-1.0,"""event"",""trial"",""time""
""fullscreenenter"",""1"",""10609""
","
","
","""event"",""trial"",""time""
""fullscreenenter"",""1"",""10609""
","
",,null,run_exp/static/images/task_images/gems/16.jpg,null,,,,,,,9,,,4,,,,,16,0.582774541,0.5625,,,,,,,
decision,123,574987,0.0-40.0-2.0,"""event"",""trial"",""time""
""fullscreenenter"",""1"",""10609""
","
","
","""event"",""trial"",""time""
""fullscreenenter"",""1"",""10609""
","
",,219.4000001,run_exp/static/images/task_images/land.jpg,65,,,,,,,9,,,4,,,,,,,,116867,1,3,FALSE,,,
dig,124,577786,0.0-41.0-0.0,"""event"",""trial"",""time""
""fullscreenenter"",""1"",""10609""
","
","
","""event"",""trial"",""time""
""fullscreenenter"",""1"",""10609""
","
",,,,,,,,,,,,"[{""stimulus"":""run_exp/static/images/task_images/dig.jpg"",""time"":0.20000004768371582},{""stimulus"":""run_exp/static/images/task_images/land.jpg"",""time"":935.5999999046326},{""stimulus"":""run_exp/static/images/task_images/dig.jpg"",""time"":1861.7999999523163}]",[],4,,,,,,,,,,,,,,
harvest,125,578790,0.0-41.0-1.0,"""event"",""trial"",""time""
""fullscreenenter"",""1"",""10609""
","
","
","""event"",""trial"",""time""
""fullscreenenter"",""1"",""10609""
","
",,null,run_exp/static/images/task_images/gems/9.jpg,null,,,,,,,5,,,4,,,,,9,0.509967123,0.555555556,,,,,,,
decision,126,579901,0.0-41.0-2.0,"""event"",""trial"",""time""
""fullscreenenter"",""1"",""10609""
","
","
","""event"",""trial"",""time""
""fullscreenenter"",""1"",""10609""
","
",,1109.8,run_exp/static/images/task_images/land.jpg,76,,,,,,,5,,,4,,,,,,,,121782,1,4,TRUE,,,
travel,127,588806,0.0-42.0-0.0,"""event"",""trial"",""time""
""fullscreenenter"",""1"",""10609""
","
","
","""event"",""trial"",""time""
""fullscreenenter"",""1"",""10609""
","
",,,,,,,,,,,,"[{""stimulus"":""run_exp/static/images/task_images/rocket-01.jpg"",""time"":0.40000009536743164},{""stimulus"":""run_exp/static/images/task_images/rocket-02.jpg"",""time"":998.7999999523163},{""stimulus"":""run_exp/static/images/task_images/rocket-03.jpg"",""time"":1988.5999999046326},{""stimulus"":""run_exp/static/images/task_images/rocket-04.jpg"",""time"":2969.5999999046326},{""stimulus"":""run_exp/static/images/task_images/rocket-05.jpg"",""time"":3968.9000000953674},{""stimulus"":""run_exp/static/images/task_images/rocket-06.jpg"",""time"":4944.099999904633},{""stimulus"":""run_exp/static/images/task_images/rocket-07.jpg"",""time"":5928.900000095367},{""stimulus"":""run_exp/static/images/task_images/rocket-08.jpg"",""time"":6918.599999904633},{""stimulus"":""run_exp/static/images/task_images/rocket-09.jpg"",""time"":7898.700000047684}]",[],4,,,,,,,,,,,,,,
alien_welcome,128,593826,0.0-42.0-1.0,"""event"",""trial"",""time""
""fullscreenenter"",""1"",""10609""
","
","
","""event"",""trial"",""time""
""fullscreenenter"",""1"",""10609""
","
",,null,run_exp/static/images/task_images/aliens/old_aliens/planet/alien_planet-20.jpg,null,,,,,,,,,,,,,20,"33,24,36,14,20,79,21,23,44,59,29,67,62,7,4,60,65,71,18,61,6,22,16,5,27,28,55,8,52,26,46,9,17,51,66",,,,,,,,,,
land,129,594336,0.0-42.0-2.0,"""event"",""trial"",""time""
""fullscreenenter"",""1"",""10609""
","
","
","""event"",""trial"",""time""
""fullscreenenter"",""1"",""10609""
","
",,null,run_exp/static/images/task_images/land.jpg,null,,,,,,,107,,,5,,,,,,,,,,,,,,
dig,130,596356,0.0-42.0-3.0,"""event"",""trial"",""time""
""fullscreenenter"",""1"",""10609""
","
","
","""event"",""trial"",""time""
""fullscreenenter"",""1"",""10609""
","
",,,,,,,,,,,,"[{""stimulus"":""run_exp/static/images/task_images/dig.jpg"",""time"":0.40000009536743164},{""stimulus"":""run_exp/static/images/task_images/land.jpg"",""time"":678.5},{""stimulus"":""run_exp/static/images/task_images/dig.jpg"",""time"":1349.6000001430511}]",[],5,,,,,,,,,,,,,,
harvest,131,597366,0.0-42.0-4.0,"""event"",""trial"",""time""
""fullscreenenter"",""1"",""10609""
","
","
","""event"",""trial"",""time""
""fullscreenenter"",""1"",""10609""
","
",,null,run_exp/static/images/task_images/gems/107.jpg,null,,,,,,,64,,,5,,,,,107,0.600486146,0.598130841,,,,,,,
decision,132,598148,0.0-42.0-5.0,"""event"",""trial"",""time""
""fullscreenenter"",""1"",""10609""
","
","
","""event"",""trial"",""time""
""fullscreenenter"",""1"",""10609""
","
",,780.2,run_exp/static/images/task_images/land.jpg,65,,,,,,,64,,,5,,,,,,,,140028,1,0,FALSE,,,
dig,133,600376,0.0-43.0-0.0,"""event"",""trial"",""time""
""fullscreenenter"",""1"",""10609""
","
","
","""event"",""trial"",""time""
""fullscreenenter"",""1"",""10609""
","
",,,,,,,,,,,,"[{""stimulus"":""run_exp/static/images/task_images/dig.jpg"",""time"":0.2999999523162842},{""stimulus"":""run_exp/static/images/task_images/land.jpg"",""time"":746.1999998092651},{""stimulus"":""run_exp/static/images/task_images/dig.jpg"",""time"":1483}]",[],5,,,,,,,,,,,,,,
harvest,134,601396,0.0-43.0-1.0,"""event"",""trial"",""time""
""fullscreenenter"",""1"",""10609""
","
","
","""event"",""trial"",""time""
""fullscreenenter"",""1"",""10609""
","
",,null,run_exp/static/images/task_images/gems/64.jpg,null,,,,,,,28,,,5,,,,,64,0.438758607,0.4375,,,,,,,
decision,135,601605,0.0-43.0-2.0,"""event"",""trial"",""time""
""fullscreenenter"",""1"",""10609""
","
","
","""event"",""trial"",""time""
""fullscreenenter"",""1"",""10609""
","
",,207.8000002,run_exp/static/images/task_images/land.jpg,65,,,,,,,28,,,5,,,,,,,,143485,1,1,FALSE,,,
dig,136,604406,0.0-44.0-0.0,"""event"",""trial"",""time""
""fullscreenenter"",""1"",""10609""
","
","
","""event"",""trial"",""time""
""fullscreenenter"",""1"",""10609""
","
",,,,,,,,,,,,"[{""stimulus"":""run_exp/static/images/task_images/dig.jpg"",""time"":0.20000004768371582},{""stimulus"":""run_exp/static/images/task_images/land.jpg"",""time"":947.0999999046326},{""stimulus"":""run_exp/static/images/task_images/dig.jpg"",""time"":1867.5999999046326}]",[],5,,,,,,,,,,,,,,
harvest,137,605426,0.0-44.0-1.0,"""event"",""trial"",""time""
""fullscreenenter"",""1"",""10609""
","
","
","""event"",""trial"",""time""
""fullscreenenter"",""1"",""10609""
","
",,null,run_exp/static/images/task_images/gems/28.jpg,null,,,,,,,15,,,5,,,,,28,0.536589456,0.535714286,,,,,,,
decision,138,605606,0.0-44.0-2.0,"""event"",""trial"",""time""
""fullscreenenter"",""1"",""10609""
","
","
","""event"",""trial"",""time""
""fullscreenenter"",""1"",""10609""
","
",,178.9000001,run_exp/static/images/task_images/land.jpg,65,,,,,,,15,,,5,,,,,,,,147486,1,2,FALSE,,,
dig,139,608446,0.0-45.0-0.0,"""event"",""trial"",""time""
""fullscreenenter"",""1"",""10609""
","
","
","""event"",""trial"",""time""
""fullscreenenter"",""1"",""10609""
","
",,,,,,,,,,,,"[{""stimulus"":""run_exp/static/images/task_images/dig.jpg"",""time"":0.2999999523162842},{""stimulus"":""run_exp/static/images/task_images/land.jpg"",""time"":955.0999999046326},{""stimulus"":""run_exp/static/images/task_images/dig.jpg"",""time"":1896.1999998092651}]",[],5,,,,,,,,,,,,,,
harvest,140,609466,0.0-45.0-1.0,"""event"",""trial"",""time""
""fullscreenenter"",""1"",""10609""
","
","
","""event"",""trial"",""time""
""fullscreenenter"",""1"",""10609""
","
",,null,run_exp/static/images/task_images/gems/15.jpg,null,,,,,,,8,,,5,,,,,15,0.514381407,0.533333333,,,,,,,
decision,141,612478,0.0-45.0-2.0,"""event"",""trial"",""time""
""fullscreenenter"",""1"",""10609""
","
","
","""event"",""trial"",""time""
""fullscreenenter"",""1"",""10609""
","
",,null,run_exp/static/images/task_images/land.jpg,null,,,,,,,8,,,5,,,,,,,,154358,1,3,FALSE,,,
time_out,142,614482,0.0-46.0-0.0,"""event"",""trial"",""time""
""fullscreenenter"",""1"",""10609""
","
","
","""event"",""trial"",""time""
""fullscreenenter"",""1"",""10609""
","
",,null,run_exp/static/images/task_images/time_out.jpg,null,,,,,,,8,,,,,,,,,,,,,,,,,
decision,143,615961,0.0-46.0-1.0,"""event"",""trial"",""time""
""fullscreenenter"",""1"",""10609""
","
","
","""event"",""trial"",""time""
""fullscreenenter"",""1"",""10609""
","
",,1477.9,run_exp/static/images/task_images/land.jpg,65,,,,,,,8,,,5,,,,,,,,157841,1,3,FALSE,,,
dig,144,617487,0.0-47.0-0.0,"""event"",""trial"",""time""
""fullscreenenter"",""1"",""10609""
","
","
","""event"",""trial"",""time""
""fullscreenenter"",""1"",""10609""
","
",,,,,,,,,,,,"[{""stimulus"":""run_exp/static/images/task_images/dig.jpg"",""time"":0.39999985694885254},{""stimulus"":""run_exp/static/images/task_images/land.jpg"",""time"":512.1999998092651},{""stimulus"":""run_exp/static/images/task_images/dig.jpg"",""time"":1018.0999999046326}]",[],5,,,,,,,,,,,,,,
harvest,145,618507,0.0-47.0-1.0,"""event"",""trial"",""time""
""fullscreenenter"",""1"",""10609""
","
","
","""event"",""trial"",""time""
""fullscreenenter"",""1"",""10609""
","
",,null,run_exp/static/images/task_images/gems/8.jpg,null,,,,,,,4,,,5,,,,,8,0.480197165,0.5,,,,,,,
decision,146,619958,0.0-47.0-2.0,"""event"",""trial"",""time""
""fullscreenenter"",""1"",""10609""
","
","
","""event"",""trial"",""time""
""fullscreenenter"",""1"",""10609""
","
",,1449,run_exp/static/images/task_images/land.jpg,76,,,,,,,4,,,5,,,,,,,,161838,1,4,TRUE,,,
travel,147,628523,0.0-48.0-0.0,"""event"",""trial"",""time""
""fullscreenenter"",""1"",""10609""
","
","
","""event"",""trial"",""time""
""fullscreenenter"",""1"",""10609""
","
",,,,,,,,,,,,"[{""stimulus"":""run_exp/static/images/task_images/rocket-01.jpg"",""time"":0},{""stimulus"":""run_exp/static/images/task_images/rocket-02.jpg"",""time"":955.2000000476837},{""stimulus"":""run_exp/static/images/task_images/rocket-03.jpg"",""time"":1911.6000001430511},{""stimulus"":""run_exp/static/images/task_images/rocket-04.jpg"",""time"":2855.9000000953674},{""stimulus"":""run_exp/static/images/task_images/rocket-05.jpg"",""time"":3816.100000143051},{""stimulus"":""run_exp/static/images/task_images/rocket-06.jpg"",""time"":4765.900000095367},{""stimulus"":""run_exp/static/images/task_images/rocket-07.jpg"",""time"":5716.400000095367},{""stimulus"":""run_exp/static/images/task_images/rocket-08.jpg"",""time"":6666},{""stimulus"":""run_exp/static/images/task_images/rocket-09.jpg"",""time"":7606.300000190735}]",[],5,,,,,,,,,,,,,,
alien_welcome,148,633527,0.0-48.0-1.0,"""event"",""trial"",""time""
""fullscreenenter"",""1"",""10609""
","
","
","""event"",""trial"",""time""
""fullscreenenter"",""1"",""10609""
","
",,null,run_exp/static/images/task_images/aliens/old_aliens/planet/alien_planet-79.jpg,null,,,,,,,,,,,,,79,"33,24,36,14,20,79,21,23,44,59,29,67,62,7,4,60,65,71,18,61,6,22,16,5,27,28,55,8,52,26,46,9,17,51,66",,,,,,,,,,
land,149,634044,0.0-48.0-2.0,"""event"",""trial"",""time""
""fullscreenenter"",""1"",""10609""
","
","
","""event"",""trial"",""time""
""fullscreenenter"",""1"",""10609""
","
",,null,run_exp/static/images/task_images/land.jpg,null,,,,,,,97,,,6,,,,,,,,,,,,,,
dig,150,636051,0.0-48.0-3.0,"""event"",""trial"",""time""
""fullscreenenter"",""1"",""10609""
","
","
","""event"",""trial"",""time""
""fullscreenenter"",""1"",""10609""
","
",,,,,,,,,,,,"[{""stimulus"":""run_exp/static/images/task_images/dig.jpg"",""time"":0.5},{""stimulus"":""run_exp/static/images/task_images/land.jpg"",""time"":682.2999999523163},{""stimulus"":""run_exp/static/images/task_images/dig.jpg"",""time"":1342.7999999523163}]",[],6,,,,,,,,,,,,,,
harvest,151,637058,0.0-48.0-4.0,"""event"",""trial"",""time""
""fullscreenenter"",""1"",""10609""
","
","
","""event"",""trial"",""time""
""fullscreenenter"",""1"",""10609""
","
",,null,run_exp/static/images/task_images/gems/97.jpg,null,,,,,,,77,,,6,,,,,97,0.794947481,0.793814433,,,,,,,
decision,152,638309,0.0-48.0-5.0,"""event"",""trial"",""time""
""fullscreenenter"",""1"",""10609""
","
","
","""event"",""trial"",""time""
""fullscreenenter"",""1"",""10609""
","
",,1250.3,run_exp/static/images/task_images/land.jpg,65,,,,,,,77,,,6,,,,,,,,180190,1,0,FALSE,,,
dig,153,640073,0.0-49.0-0.0,"""event"",""trial"",""time""
""fullscreenenter"",""1"",""10609""
","
","
","""event"",""trial"",""time""
""fullscreenenter"",""1"",""10609""
","
",,,,,,,,,,,,"[{""stimulus"":""run_exp/static/images/task_images/dig.jpg"",""time"":0.2999999523162842},{""stimulus"":""run_exp/static/images/task_images/land.jpg"",""time"":592.2999999523163},{""stimulus"":""run_exp/static/images/task_images/dig.jpg"",""time"":1170.5}]",[],6,,,,,,,,,,,,,,
harvest,154,641088,0.0-49.0-1.0,"""event"",""trial"",""time""
""fullscreenenter"",""1"",""10609""
","
","
","""event"",""trial"",""time""
""fullscreenenter"",""1"",""10609""
","
",,null,run_exp/static/images/task_images/gems/77.jpg,null,,,,,,,58,,,6,,,,,77,0.758373032,0.753246753,,,,,,,
decision,155,643452,0.0-49.0-2.0,"""event"",""trial"",""time""
""fullscreenenter"",""1"",""10609""
","
","
","""event"",""trial"",""time""
""fullscreenenter"",""1"",""10609""
","
",,2361.5,run_exp/static/images/task_images/land.jpg,65,,,,,,,58,,,6,,,,,,,,185332,1,1,FALSE,,,
dig,156,644107,0.0-50.0-0.0,"""event"",""trial"",""time""
""fullscreenenter"",""1"",""10609""
","
","
","""event"",""trial"",""time""
""fullscreenenter"",""1"",""10609""
","
",,,,,,,,,,,,"[{""stimulus"":""run_exp/static/images/task_images/dig.jpg"",""time"":0.20000004768371582},{""stimulus"":""run_exp/static/images/task_images/land.jpg"",""time"":228.40000009536743},{""stimulus"":""run_exp/static/images/task_images/dig.jpg"",""time"":431.7000000476837}]",[],6,,,,,,,,,,,,,,
harvest,157,645128,0.0-50.0-1.0,"""event"",""trial"",""time""
""fullscreenenter"",""1"",""10609""
","
","
","""event"",""trial"",""time""
""fullscreenenter"",""1"",""10609""
","
",,null,run_exp/static/images/task_images/gems/58.jpg,null,,,,,,,49,,,6,,,,,58,0.838319977,0.844827586,,,,,,,
decision,158,646938,0.0-50.0-2.0,"""event"",""trial"",""time""
""fullscreenenter"",""1"",""10609""
","
","
","""event"",""trial"",""time""
""fullscreenenter"",""1"",""10609""
","
",,1808.7,run_exp/static/images/task_images/land.jpg,65,,,,,,,49,,,6,,,,,,,,188818,1,2,FALSE,,,
dig,159,648140,0.0-51.0-0.0,"""event"",""trial"",""time""
""fullscreenenter"",""1"",""10609""
","
","
","""event"",""trial"",""time""
""fullscreenenter"",""1"",""10609""
","
",,,,,,,,,,,,"[{""stimulus"":""run_exp/static/images/task_images/dig.jpg"",""time"":0.20000004768371582},{""stimulus"":""run_exp/static/images/task_images/land.jpg"",""time"":405.60000014305115},{""stimulus"":""run_exp/static/images/task_images/dig.jpg"",""time"":805.6000001430511}]",[],6,,,,,,,,,,,,,,
harvest,160,649146,0.0-51.0-1.0,"""event"",""trial"",""time""
""fullscreenenter"",""1"",""10609""
","
","
","""event"",""trial"",""time""
""fullscreenenter"",""1"",""10609""
","
",,null,run_exp/static/images/task_images/gems/49.jpg,null,,,,,,,36,,,6,,,,,49,0.743261881,0.734693878,,,,,,,
decision,161,649713,0.0-51.0-2.0,"""event"",""trial"",""time""
""fullscreenenter"",""1"",""10609""
","
","
","""event"",""trial"",""time""
""fullscreenenter"",""1"",""10609""
","
",,565.5,run_exp/static/images/task_images/land.jpg,65,,,,,,,36,,,6,,,,,,,,191593,1,3,FALSE,,,
dig,162,652167,0.0-52.0-0.0,"""event"",""trial"",""time""
""fullscreenenter"",""1"",""10609""
","
","
","""event"",""trial"",""time""
""fullscreenenter"",""1"",""10609""
","
",,,,,,,,,,,,"[{""stimulus"":""run_exp/static/images/task_images/dig.jpg"",""time"":0},{""stimulus"":""run_exp/static/images/task_images/land.jpg"",""time"":831.0999999046326},{""stimulus"":""run_exp/static/images/task_images/dig.jpg"",""time"":1640.7999999523163}]",[],6,,,,,,,,,,,,,,
harvest,163,653187,0.0-52.0-1.0,"""event"",""trial"",""time""
""fullscreenenter"",""1"",""10609""
","
","
","""event"",""trial"",""time""
""fullscreenenter"",""1"",""10609""
","
",,null,run_exp/static/images/task_images/gems/36.jpg,null,,,,,,,27,,,6,,,,,36,0.75113199,0.75,,,,,,,
decision,164,655634,0.0-52.0-2.0,"""event"",""trial"",""time""
""fullscreenenter"",""1"",""10609""
","
","
","""event"",""trial"",""time""
""fullscreenenter"",""1"",""10609""
","
",,2444.9,run_exp/static/images/task_images/land.jpg,65,,,,,,,27,,,6,,,,,,,,197514,1,4,FALSE,,,
dig,165,656198,0.0-53.0-0.0,"""event"",""trial"",""time""
""fullscreenenter"",""1"",""10609""
","
","
","""event"",""trial"",""time""
""fullscreenenter"",""1"",""10609""
","
",,,,,,,,,,,,"[{""stimulus"":""run_exp/static/images/task_images/dig.jpg"",""time"":0.2999999523162842},{""stimulus"":""run_exp/static/images/task_images/land.jpg"",""time"":199.89999985694885},{""stimulus"":""run_exp/static/images/task_images/dig.jpg"",""time"":380.2999999523163}]",[],6,,,,,,,,,,,,,,
harvest,166,657210,0.0-53.0-1.0,"""event"",""trial"",""time""
""fullscreenenter"",""1"",""10609""
","
","
","""event"",""trial"",""time""
""fullscreenenter"",""1"",""10609""
","
",,null,run_exp/static/images/task_images/gems/27.jpg,null,,,,,,,22,,,6,,,,,27,0.817076456,0.814814815,,,,,,,
decision,167,658522,0.0-53.0-2.0,"""event"",""trial"",""time""
""fullscreenenter"",""1"",""10609""
","
","
","""event"",""trial"",""time""
""fullscreenenter"",""1"",""10609""
","
",,1310.3,run_exp/static/images/task_images/land.jpg,65,,,,,,,22,,,6,,,,,,,,200402,1,5,FALSE,,,
dig,168,660227,0.0-54.0-0.0,"""event"",""trial"",""time""
""fullscreenenter"",""1"",""10609""
","
","
","""event"",""trial"",""time""
""fullscreenenter"",""1"",""10609""
","
",,,,,,,,,,,,"[{""stimulus"":""run_exp/static/images/task_images/dig.jpg"",""time"":0.2999999523162842},{""stimulus"":""run_exp/static/images/task_images/land.jpg"",""time"":581.7999999523163},{""stimulus"":""run_exp/static/images/task_images/dig.jpg"",""time"":1141.8999998569489}]",[],6,,,,,,,,,,,,,,
harvest,169,661237,0.0-54.0-1.0,"""event"",""trial"",""time""
""fullscreenenter"",""1"",""10609""
","
","
","""event"",""trial"",""time""
""fullscreenenter"",""1"",""10609""
","
",,null,run_exp/static/images/task_images/gems/22.jpg,null,,,,,,,18,,,6,,,,,22,0.834531411,0.818181818,,,,,,,
decision,170,662293,0.0-54.0-2.0,"""event"",""trial"",""time""
""fullscreenenter"",""1"",""10609""
","
","
","""event"",""trial"",""time""
""fullscreenenter"",""1"",""10609""
","
",,1054,run_exp/static/images/task_images/land.jpg,65,,,,,,,18,,,6,,,,,,,,204173,1,6,FALSE,,,
dig,171,664247,0.0-55.0-0.0,"""event"",""trial"",""time""
""fullscreenenter"",""1"",""10609""
","
","
","""event"",""trial"",""time""
""fullscreenenter"",""1"",""10609""
","
",,,,,,,,,,,,"[{""stimulus"":""run_exp/static/images/task_images/dig.jpg"",""time"":0.2999999523162842},{""stimulus"":""run_exp/static/images/task_images/land.jpg"",""time"":661},{""stimulus"":""run_exp/static/images/task_images/dig.jpg"",""time"":1300.5999999046326}]",[],6,,,,,,,,,,,,,,
harvest,172,665261,0.0-55.0-1.0,"""event"",""trial"",""time""
""fullscreenenter"",""1"",""10609""
","
","
","""event"",""trial"",""time""
""fullscreenenter"",""1"",""10609""
","
",,null,run_exp/static/images/task_images/gems/18.jpg,null,,,,,,,14,,,6,,,,,18,0.778812504,0.777777778,,,,,,,
decision,173,666146,0.0-55.0-2.0,"""event"",""trial"",""time""
""fullscreenenter"",""1"",""10609""
","
","
","""event"",""trial"",""time""
""fullscreenenter"",""1"",""10609""
","
",,883.3,run_exp/static/images/task_images/land.jpg,65,,,,,,,14,,,6,,,,,,,,208026,1,7,FALSE,,,
dig,174,668268,0.0-56.0-0.0,"""event"",""trial"",""time""
""fullscreenenter"",""1"",""10609""
","
","
","""event"",""trial"",""time""
""fullscreenenter"",""1"",""10609""
","
",,,,,,,,,,,,"[{""stimulus"":""run_exp/static/images/task_images/dig.jpg"",""time"":0.3000001907348633},{""stimulus"":""run_exp/static/images/task_images/land.jpg"",""time"":717},{""stimulus"":""run_exp/static/images/task_images/dig.jpg"",""time"":1417.1000001430511}]",[],6,,,,,,,,,,,,,,
harvest,175,669287,0.0-56.0-1.0,"""event"",""trial"",""time""
""fullscreenenter"",""1"",""10609""
","
","
","""event"",""trial"",""time""
""fullscreenenter"",""1"",""10609""
","
",,null,run_exp/static/images/task_images/gems/14.jpg,null,,,,,,,11,,,6,,,,,14,0.750962174,0.785714286,,,,,,,
decision,176,669669,0.0-56.0-2.0,"""event"",""trial"",""time""
""fullscreenenter"",""1"",""10609""
","
","
","""event"",""trial"",""time""
""fullscreenenter"",""1"",""10609""
","
",,380.6999998,run_exp/static/images/task_images/land.jpg,65,,,,,,,11,,,6,,,,,,,,211549,1,8,FALSE,,,
dig,177,672306,0.0-57.0-0.0,"""event"",""trial"",""time""
""fullscreenenter"",""1"",""10609""
","
","
","""event"",""trial"",""time""
""fullscreenenter"",""1"",""10609""
","
",,,,,,,,,,,,"[{""stimulus"":""run_exp/static/images/task_images/dig.jpg"",""time"":0.3000001907348633},{""stimulus"":""run_exp/static/images/task_images/land.jpg"",""time"":884.4000000953674},{""stimulus"":""run_exp/static/images/task_images/dig.jpg"",""time"":1764.8000001907349}]",[],6,,,,,,,,,,,,,,
harvest,178,673328,0.0-57.0-1.0,"""event"",""trial"",""time""
""fullscreenenter"",""1"",""10609""
","
","
","""event"",""trial"",""time""
""fullscreenenter"",""1"",""10609""
","
",,null,run_exp/static/images/task_images/gems/11.jpg,null,,,,,,,8,,,6,,,,,11,0.751071696,0.727272727,,,,,,,
decision,179,674721,0.0-57.0-2.0,"""event"",""trial"",""time""
""fullscreenenter"",""1"",""10609""
","
","
","""event"",""trial"",""time""
""fullscreenenter"",""1"",""10609""
","
",,1391.7,run_exp/static/images/task_images/land.jpg,65,,,,,,,8,,,6,,,,,,,,216601,1,9,FALSE,,,
dig,180,676337,0.0-58.0-0.0,"""event"",""trial"",""time""
""fullscreenenter"",""1"",""10609""
","
","
","""event"",""trial"",""time""
""fullscreenenter"",""1"",""10609""
","
",,,,,,,,,,,,"[{""stimulus"":""run_exp/static/images/task_images/dig.jpg"",""time"":0.2999999523162842},{""stimulus"":""run_exp/static/images/task_images/land.jpg"",""time"":542.8999998569489},{""stimulus"":""run_exp/static/images/task_images/dig.jpg"",""time"":1092.8999998569489}]",[],6,,,,,,,,,,,,,,
harvest,181,677358,0.0-58.0-1.0,"""event"",""trial"",""time""
""fullscreenenter"",""1"",""10609""
","
","
","""event"",""trial"",""time""
""fullscreenenter"",""1"",""10609""
","
",,null,run_exp/static/images/task_images/gems/8.jpg,null,,,,,,,6,,,6,,,,,8,0.791357045,0.75,,,,,,,
decision,182,679742,0.0-58.0-2.0,"""event"",""trial"",""time""
""fullscreenenter"",""1"",""10609""
","
","
","""event"",""trial"",""time""
""fullscreenenter"",""1"",""10609""
","
",,2382.3,run_exp/static/images/task_images/land.jpg,76,,,,,,,6,,,6,,,,,,,,221622,1,10,TRUE,,,
travel,183,687368,0.0-59.0-0.0,"""event"",""trial"",""time""
""fullscreenenter"",""1"",""10609""
","
","
","""event"",""trial"",""time""
""fullscreenenter"",""1"",""10609""
","
",,,,,,,,,,,,"[{""stimulus"":""run_exp/static/images/task_images/rocket-01.jpg"",""time"":0.20000004768371582},{""stimulus"":""run_exp/static/images/task_images/rocket-02.jpg"",""time"":862.2000000476837},{""stimulus"":""run_exp/static/images/task_images/rocket-03.jpg"",""time"":1701.6000001430511},{""stimulus"":""run_exp/static/images/task_images/rocket-04.jpg"",""time"":2541.7999999523163},{""stimulus"":""run_exp/static/images/task_images/rocket-05.jpg"",""time"":3402.4000000953674},{""stimulus"":""run_exp/static/images/task_images/rocket-06.jpg"",""time"":4242},{""stimulus"":""run_exp/static/images/task_images/rocket-07.jpg"",""time"":5083.5},{""stimulus"":""run_exp/static/images/task_images/rocket-08.jpg"",""time"":5930},{""stimulus"":""run_exp/static/images/task_images/rocket-09.jpg"",""time"":6780.799999952316}]",[],6,,,,,,,,,,,,,,
alien_welcome,184,692387,0.0-59.0-1.0,"""event"",""trial"",""time""
""fullscreenenter"",""1"",""10609""
","
","
","""event"",""trial"",""time""
""fullscreenenter"",""1"",""10609""
","
",,null,run_exp/static/images/task_images/aliens/old_aliens/planet/alien_planet-21.jpg,null,,,,,,,,,,,,,21,"33,24,36,14,20,79,21,23,44,59,29,67,62,7,4,60,65,71,18,61,6,22,16,5,27,28,55,8,52,26,46,9,17,51,66",,,,,,,,,,
land,185,692892,0.0-59.0-2.0,"""event"",""trial"",""time""
""fullscreenenter"",""1"",""10609""
","
","
","""event"",""trial"",""time""
""fullscreenenter"",""1"",""10609""
","
",,null,run_exp/static/images/task_images/land.jpg,null,,,,,,,106,,,7,,,,,,,,,,,,,,
dig,186,694898,0.0-59.0-3.0,"""event"",""trial"",""time""
""fullscreenenter"",""1"",""10609""
","
","
","""event"",""trial"",""time""
""fullscreenenter"",""1"",""10609""
","
",,,,,,,,,,,,"[{""stimulus"":""run_exp/static/images/task_images/dig.jpg"",""time"":0.2999999523162842},{""stimulus"":""run_exp/static/images/task_images/land.jpg"",""time"":679.4000000953674},{""stimulus"":""run_exp/static/images/task_images/dig.jpg"",""time"":1345}]",[],7,,,,,,,,,,,,,,
harvest,187,695917,0.0-59.0-4.0,"""event"",""trial"",""time""
""fullscreenenter"",""1"",""10609""
","
","
","""event"",""trial"",""time""
""fullscreenenter"",""1"",""10609""
","
",,null,run_exp/static/images/task_images/gems/106.jpg,null,,,,,,,81,,,7,,,,,106,0.761535101,0.764150943,,,,,,,
decision,188,696073,0.0-59.0-5.0,"""event"",""trial"",""time""
""fullscreenenter"",""1"",""10609""
","
","
","""event"",""trial"",""time""
""fullscreenenter"",""1"",""10609""
","
",,154.1000001,run_exp/static/images/task_images/land.jpg,65,,,,,,,81,,,7,,,,,,,,237953,1,0,FALSE,,,
dig,189,698927,0.0-60.0-0.0,"""event"",""trial"",""time""
""fullscreenenter"",""1"",""10609""
","
","
","""event"",""trial"",""time""
""fullscreenenter"",""1"",""10609""
","
",,,,,,,,,,,,"[{""stimulus"":""run_exp/static/images/task_images/dig.jpg"",""time"":0.2999999523162842},{""stimulus"":""run_exp/static/images/task_images/land.jpg"",""time"":961.4000000953674},{""stimulus"":""run_exp/static/images/task_images/dig.jpg"",""time"":1910.7999999523163}]",[],7,,,,,,,,,,,,,,
harvest,190,699941,0.0-60.0-1.0,"""event"",""trial"",""time""
""fullscreenenter"",""1"",""10609""
","
","
","""event"",""trial"",""time""
""fullscreenenter"",""1"",""10609""
","
",,null,run_exp/static/images/task_images/gems/81.jpg,null,,,,,,,68,,,7,,,,,81,0.835022598,0.839506173,,,,,,,
decision,191,700819,0.0-60.0-2.0,"""event"",""trial"",""time""
""fullscreenenter"",""1"",""10609""
","
","
","""event"",""trial"",""time""
""fullscreenenter"",""1"",""10609""
","
",,876.0999999,run_exp/static/images/task_images/land.jpg,65,,,,,,,68,,,7,,,,,,,,242699,1,1,FALSE,,,
dig,192,702947,0.0-61.0-0.0,"""event"",""trial"",""time""
""fullscreenenter"",""1"",""10609""
","
","
","""event"",""trial"",""time""
""fullscreenenter"",""1"",""10609""
","
",,,,,,,,,,,,"[{""stimulus"":""run_exp/static/images/task_images/dig.jpg"",""time"":0.20000004768371582},{""stimulus"":""run_exp/static/images/task_images/land.jpg"",""time"":714.2000000476837},{""stimulus"":""run_exp/static/images/task_images/dig.jpg"",""time"":1424.4000000953674}]",[],7,,,,,,,,,,,,,,
harvest,193,703968,0.0-61.0-1.0,"""event"",""trial"",""time""
""fullscreenenter"",""1"",""10609""
","
","
","""event"",""trial"",""time""
""fullscreenenter"",""1"",""10609""
","
",,null,run_exp/static/images/task_images/gems/68.jpg,null,,,,,,,61,,,7,,,,,68,0.89909919,0.897058824,,,,,,,
decision,194,705539,0.0-61.0-2.0,"""event"",""trial"",""time""
""fullscreenenter"",""1"",""10609""
","
","
","""event"",""trial"",""time""
""fullscreenenter"",""1"",""10609""
","
",,1569.2,run_exp/static/images/task_images/land.jpg,65,,,,,,,61,,,7,,,,,,,,247419,1,2,FALSE,,,
dig,195,706978,0.0-62.0-0.0,"""event"",""trial"",""time""
""fullscreenenter"",""1"",""10609""
","
","
","""event"",""trial"",""time""
""fullscreenenter"",""1"",""10609""
","
",,,,,,,,,,,,"[{""stimulus"":""run_exp/static/images/task_images/dig.jpg"",""time"":0.19999980926513672},{""stimulus"":""run_exp/static/images/task_images/land.jpg"",""time"":494.5},{""stimulus"":""run_exp/static/images/task_images/dig.jpg"",""time"":954.5999999046326}]",[],7,,,,,,,,,,,,,,
harvest,196,707988,0.0-62.0-1.0,"""event"",""trial"",""time""
""fullscreenenter"",""1"",""10609""
","
","
","""event"",""trial"",""time""
""fullscreenenter"",""1"",""10609""
","
",,null,run_exp/static/images/task_images/gems/61.jpg,null,,,,,,,44,,,7,,,,,61,0.722179639,0.721311475,,,,,,,
decision,197,711008,0.0-62.0-2.0,"""event"",""trial"",""time""
""fullscreenenter"",""1"",""10609""
","
","
","""event"",""trial"",""time""
""fullscreenenter"",""1"",""10609""
","
",,null,run_exp/static/images/task_images/land.jpg,null,,,,,,,44,,,7,,,,,,,,252888,1,3,FALSE,,,
time_out,198,713017,0.0-63.0-0.0,"""event"",""trial"",""time""
""fullscreenenter"",""1"",""10609""
","
","
","""event"",""trial"",""time""
""fullscreenenter"",""1"",""10609""
","
",,null,run_exp/static/images/task_images/time_out.jpg,null,,,,,,,44,,,,,,,,,,,,,,,,,
decision,199,715820,0.0-63.0-1.0,"""event"",""trial"",""time""
""fullscreenenter"",""1"",""10609""
","
","
","""event"",""trial"",""time""
""fullscreenenter"",""1"",""10609""
","
",,2801.2,run_exp/static/images/task_images/land.jpg,65,,,,,,,44,,,7,,,,,,,,257700,1,3,FALSE,,,
dig,200,716023,0.0-64.0-0.0,"""event"",""trial"",""time""
""fullscreenenter"",""1"",""10609""
","
","
","""event"",""trial"",""time""
""fullscreenenter"",""1"",""10609""
","
",,,,,,,,,,,,"[{""stimulus"":""run_exp/static/images/task_images/dig.jpg"",""time"":0.20000004768371582},{""stimulus"":""run_exp/static/images/task_images/land.jpg"",""time"":83.60000014305115},{""stimulus"":""run_exp/static/images/task_images/dig.jpg"",""time"":143.5}]",[],7,,,,,,,,,,,,,,
harvest,201,717027,0.0-64.0-1.0,"""event"",""trial"",""time""
""fullscreenenter"",""1"",""10609""
","
","
","""event"",""trial"",""time""
""fullscreenenter"",""1"",""10609""
","
",,null,run_exp/static/images/task_images/gems/44.jpg,null,,,,,,,37,,,7,,,,,44,0.841918176,0.840909091,,,,,,,
decision,202,720037,0.0-64.0-2.0,"""event"",""trial"",""time""
""fullscreenenter"",""1"",""10609""
","
","
","""event"",""trial"",""time""
""fullscreenenter"",""1"",""10609""
","
",,null,run_exp/static/images/task_images/land.jpg,null,,,,,,,37,,,7,,,,,,,,261917,1,4,FALSE,,,
time_out,203,722054,0.0-65.0-0.0,"""event"",""trial"",""time""
""fullscreenenter"",""1"",""10609""
","
","
","""event"",""trial"",""time""
""fullscreenenter"",""1"",""10609""
","
",,null,run_exp/static/images/task_images/time_out.jpg,null,,,,,,,37,,,,,,,,,,,,,,,,,
decision,204,722541,0.0-65.0-1.0,"""event"",""trial"",""time""
""fullscreenenter"",""1"",""10609""
","
","
","""event"",""trial"",""time""
""fullscreenenter"",""1"",""10609""
","
",,485.2,run_exp/static/images/task_images/land.jpg,65,,,,,,,37,,,7,,,,,,,,264421,1,4,FALSE,,,
dig,205,725067,0.0-66.0-0.0,"""event"",""trial"",""time""
""fullscreenenter"",""1"",""10609""
","
","
","""event"",""trial"",""time""
""fullscreenenter"",""1"",""10609""
","
",,,,,,,,,,,,"[{""stimulus"":""run_exp/static/images/task_images/dig.jpg"",""time"":0.19999980926513672},{""stimulus"":""run_exp/static/images/task_images/land.jpg"",""time"":842.8999998569489},{""stimulus"":""run_exp/static/images/task_images/dig.jpg"",""time"":1683.2999999523163}]",[],7,,,,,,,,,,,,,,
harvest,206,726088,0.0-66.0-1.0,"""event"",""trial"",""time""
""fullscreenenter"",""1"",""10609""
","
","
","""event"",""trial"",""time""
""fullscreenenter"",""1"",""10609""
","
",,null,run_exp/static/images/task_images/gems/37.jpg,null,,,,,,,28,,,7,,,,,37,0.750300092,0.756756757,,,,,,,
decision,207,726924,0.0-66.0-2.0,"""event"",""trial"",""time""
""fullscreenenter"",""1"",""10609""
","
","
","""event"",""trial"",""time""
""fullscreenenter"",""1"",""10609""
","
",,835.3,run_exp/static/images/task_images/land.jpg,65,,,,,,,28,,,7,,,,,,,,268804,1,5,FALSE,,,
dig,208,729097,0.0-67.0-0.0,"""event"",""trial"",""time""
""fullscreenenter"",""1"",""10609""
","
","
","""event"",""trial"",""time""
""fullscreenenter"",""1"",""10609""
","
",,,,,,,,,,,,"[{""stimulus"":""run_exp/static/images/task_images/dig.jpg"",""time"":0.2999999523162842},{""stimulus"":""run_exp/static/images/task_images/land.jpg"",""time"":739.3999998569489},{""stimulus"":""run_exp/static/images/task_images/dig.jpg"",""time"":1446.5999999046326}]",[],7,,,,,,,,,,,,,,
harvest,209,730107,0.0-67.0-1.0,"""event"",""trial"",""time""
""fullscreenenter"",""1"",""10609""
","
","
","""event"",""trial"",""time""
""fullscreenenter"",""1"",""10609""
","
",,null,run_exp/static/images/task_images/gems/28.jpg,null,,,,,,,22,,,7,,,,,28,0.794146244,0.785714286,,,,,,,
decision,210,730720,0.0-67.0-2.0,"""event"",""trial"",""time""
""fullscreenenter"",""1"",""10609""
","
","
","""event"",""trial"",""time""
""fullscreenenter"",""1"",""10609""
","
",,610.9000001,run_exp/static/images/task_images/land.jpg,65,,,,,,,22,,,7,,,,,,,,272600,1,6,FALSE,,,
dig,211,733117,0.0-68.0-0.0,"""event"",""trial"",""time""
""fullscreenenter"",""1"",""10609""
","
","
","""event"",""trial"",""time""
""fullscreenenter"",""1"",""10609""
","
",,,,,,,,,,,,"[{""stimulus"":""run_exp/static/images/task_images/dig.jpg"",""time"":0.2999999523162842},{""stimulus"":""run_exp/static/images/task_images/land.jpg"",""time"":813.7000000476837},{""stimulus"":""run_exp/static/images/task_images/dig.jpg"",""time"":1613.3999998569489}]",[],7,,,,,,,,,,,,,,
harvest,212,734128,0.0-68.0-1.0,"""event"",""trial"",""time""
""fullscreenenter"",""1"",""10609""
","
","
","""event"",""trial"",""time""
""fullscreenenter"",""1"",""10609""
","
",,null,run_exp/static/images/task_images/gems/22.jpg,null,,,,,,,17,,,7,,,,,22,0.770540102,0.772727273,,,,,,,
decision,213,735112,0.0-68.0-2.0,"""event"",""trial"",""time""
""fullscreenenter"",""1"",""10609""
","
","
","""event"",""trial"",""time""
""fullscreenenter"",""1"",""10609""
","
",,982,run_exp/static/images/task_images/land.jpg,65,,,,,,,17,,,7,,,,,,,,276992,1,7,FALSE,,,
dig,214,737138,0.0-69.0-0.0,"""event"",""trial"",""time""
""fullscreenenter"",""1"",""10609""
","
","
","""event"",""trial"",""time""
""fullscreenenter"",""1"",""10609""
","
",,,,,,,,,,,,"[{""stimulus"":""run_exp/static/images/task_images/dig.jpg"",""time"":0.09999990463256836},{""stimulus"":""run_exp/static/images/task_images/land.jpg"",""time"":685.0999999046326},{""stimulus"":""run_exp/static/images/task_images/dig.jpg"",""time"":1361.5999999046326}]",[],7,,,,,,,,,,,,,,
harvest,215,738152,0.0-69.0-1.0,"""event"",""trial"",""time""
""fullscreenenter"",""1"",""10609""
","
","
","""event"",""trial"",""time""
""fullscreenenter"",""1"",""10609""
","
",,null,run_exp/static/images/task_images/gems/17.jpg,null,,,,,,,13,,,7,,,,,17,0.761323446,0.764705882,,,,,,,
decision,216,738988,0.0-69.0-2.0,"""event"",""trial"",""time""
""fullscreenenter"",""1"",""10609""
","
","
","""event"",""trial"",""time""
""fullscreenenter"",""1"",""10609""
","
",,835.2,run_exp/static/images/task_images/land.jpg,65,,,,,,,13,,,7,,,,,,,,280869,1,8,FALSE,,,
dig,217,741167,0.0-70.0-0.0,"""event"",""trial"",""time""
""fullscreenenter"",""1"",""10609""
","
","
","""event"",""trial"",""time""
""fullscreenenter"",""1"",""10609""
","
",,,,,,,,,,,,"[{""stimulus"":""run_exp/static/images/task_images/dig.jpg"",""time"":0.39999985694885254},{""stimulus"":""run_exp/static/images/task_images/land.jpg"",""time"":723.2000000476837},{""stimulus"":""run_exp/static/images/task_images/dig.jpg"",""time"":1452.8999998569489}]",[],7,,,,,,,,,,,,,,
harvest,218,742188,0.0-70.0-1.0,"""event"",""trial"",""time""
""fullscreenenter"",""1"",""10609""
","
","
","""event"",""trial"",""time""
""fullscreenenter"",""1"",""10609""
","
",,null,run_exp/static/images/task_images/gems/13.jpg,null,,,,,,,11,,,7,,,,,13,0.808764532,0.846153846,,,,,,,
decision,219,744529,0.0-70.0-2.0,"""event"",""trial"",""time""
""fullscreenenter"",""1"",""10609""
","
","
","""event"",""trial"",""time""
""fullscreenenter"",""1"",""10609""
","
",,2340.1,run_exp/static/images/task_images/land.jpg,65,,,,,,,11,,,7,,,,,,,,286409,1,9,FALSE,,,
dig,220,745198,0.0-71.0-0.0,"""event"",""trial"",""time""
""fullscreenenter"",""1"",""10609""
","
","
","""event"",""trial"",""time""
""fullscreenenter"",""1"",""10609""
","
",,,,,,,,,,,,"[{""stimulus"":""run_exp/static/images/task_images/dig.jpg"",""time"":0},{""stimulus"":""run_exp/static/images/task_images/land.jpg"",""time"":230.09999990463257},{""stimulus"":""run_exp/static/images/task_images/dig.jpg"",""time"":445.39999985694885}]",[],7,,,,,,,,,,,,,,
harvest,221,746206,0.0-71.0-1.0,"""event"",""trial"",""time""
""fullscreenenter"",""1"",""10609""
","
","
","""event"",""trial"",""time""
""fullscreenenter"",""1"",""10609""
","
",,null,run_exp/static/images/task_images/gems/11.jpg,null,,,,,,,9,,,7,,,,,11,0.825508155,0.818181818,,,,,,,
decision,222,749227,0.0-71.0-2.0,"""event"",""trial"",""time""
""fullscreenenter"",""1"",""10609""
","
","
","""event"",""trial"",""time""
""fullscreenenter"",""1"",""10609""
","
",,null,run_exp/static/images/task_images/land.jpg,null,,,,,,,9,,,7,,,,,,,,291107,1,10,FALSE,,,
time_out,223,751247,0.0-72.0-0.0,"""event"",""trial"",""time""
""fullscreenenter"",""1"",""10609""
","
","
","""event"",""trial"",""time""
""fullscreenenter"",""1"",""10609""
","
",,null,run_exp/static/images/task_images/time_out.jpg,null,,,,,,,9,,,,,,,,,,,,,,,,,
decision,224,751879,0.0-72.0-1.0,"""event"",""trial"",""time""
""fullscreenenter"",""1"",""10609""
","
","
","""event"",""trial"",""time""
""fullscreenenter"",""1"",""10609""
","
",,631.3,run_exp/static/images/task_images/land.jpg,65,,,,,,,9,,,7,,,,,,,,293759,1,10,FALSE,,,
dig,225,754263,0.0-73.0-0.0,"""event"",""trial"",""time""
""fullscreenenter"",""1"",""10609""
","
","
","""event"",""trial"",""time""
""fullscreenenter"",""1"",""10609""
","
",,,,,,,,,,,,"[{""stimulus"":""run_exp/static/images/task_images/dig.jpg"",""time"":0.09999990463256836},{""stimulus"":""run_exp/static/images/task_images/land.jpg"",""time"":806.3999998569489},{""stimulus"":""run_exp/static/images/task_images/dig.jpg"",""time"":1581.7999999523163}]",[],7,,,,,,,,,,,,,,
harvest,226,755278,0.0-73.0-1.0,"""event"",""trial"",""time""
""fullscreenenter"",""1"",""10609""
","
","
","""event"",""trial"",""time""
""fullscreenenter"",""1"",""10609""
","
",,null,run_exp/static/images/task_images/gems/9.jpg,null,,,,,,,7,,,7,,,,,9,0.799277778,0.777777778,,,,,,,
decision,227,756645,0.0-73.0-2.0,"""event"",""trial"",""time""
""fullscreenenter"",""1"",""10609""
","
","
","""event"",""trial"",""time""
""fullscreenenter"",""1"",""10609""
","
",,1365,run_exp/static/images/task_images/land.jpg,76,,,,,,,7,,,7,,,,,,,,298525,1,11,TRUE,,,
travel,228,765297,0.0-74.0-0.0,"""event"",""trial"",""time""
""fullscreenenter"",""1"",""10609""
","
","
","""event"",""trial"",""time""
""fullscreenenter"",""1"",""10609""
","
",,,,,,,,,,,,"[{""stimulus"":""run_exp/static/images/task_images/rocket-01.jpg"",""time"":0.20000004768371582},{""stimulus"":""run_exp/static/images/task_images/rocket-02.jpg"",""time"":968.9000000953674},{""stimulus"":""run_exp/static/images/task_images/rocket-03.jpg"",""time"":1928.5999999046326},{""stimulus"":""run_exp/static/images/task_images/rocket-04.jpg"",""time"":2889},{""stimulus"":""run_exp/static/images/task_images/rocket-05.jpg"",""time"":3839.0999999046326},{""stimulus"":""run_exp/static/images/task_images/rocket-06.jpg"",""time"":4798.900000095367},{""stimulus"":""run_exp/static/images/task_images/rocket-07.jpg"",""time"":5758.599999904633},{""stimulus"":""run_exp/static/images/task_images/rocket-08.jpg"",""time"":6722.799999952316},{""stimulus"":""run_exp/static/images/task_images/rocket-09.jpg"",""time"":7680.200000047684}]",[],7,,,,,,,,,,,,,,
alien_welcome,229,770308,0.0-74.0-1.0,"""event"",""trial"",""time""
""fullscreenenter"",""1"",""10609""
","
","
","""event"",""trial"",""time""
""fullscreenenter"",""1"",""10609""
","
",,null,run_exp/static/images/task_images/aliens/old_aliens/planet/alien_planet-23.jpg,null,,,,,,,,,,,,,23,"33,24,36,14,20,79,21,23,44,59,29,67,62,7,4,60,65,71,18,61,6,22,16,5,27,28,55,8,52,26,46,9,17,51,66",,,,,,,,,,
land,230,770828,0.0-74.0-2.0,"""event"",""trial"",""time""
""fullscreenenter"",""1"",""10609""
","
","
","""event"",""trial"",""time""
""fullscreenenter"",""1"",""10609""
","
",,null,run_exp/static/images/task_images/land.jpg,null,,,,,,,106,,,8,,,,,,,,,,,,,,
dig,231,772847,0.0-74.0-3.0,"""event"",""trial"",""time""
""fullscreenenter"",""1"",""10609""
","
","
","""event"",""trial"",""time""
""fullscreenenter"",""1"",""10609""
","
",,,,,,,,,,,,"[{""stimulus"":""run_exp/static/images/task_images/dig.jpg"",""time"":0.2999999523162842},{""stimulus"":""run_exp/static/images/task_images/land.jpg"",""time"":678.5},{""stimulus"":""run_exp/static/images/task_images/dig.jpg"",""time"":1338.5}]",[],8,,,,,,,,,,,,,,
harvest,232,773867,0.0-74.0-4.0,"""event"",""trial"",""time""
""fullscreenenter"",""1"",""10609""
","
","
","""event"",""trial"",""time""
""fullscreenenter"",""1"",""10609""
","
",,null,run_exp/static/images/task_images/gems/106.jpg,null,,,,,,,79,,,8,,,,,106,0.747687995,0.745283019,,,,,,,
decision,233,775165,0.0-74.0-5.0,"""event"",""trial"",""time""
""fullscreenenter"",""1"",""10609""
","
","
","""event"",""trial"",""time""
""fullscreenenter"",""1"",""10609""
","
",,1296.3,run_exp/static/images/task_images/land.jpg,65,,,,,,,79,,,8,,,,,,,,317045,1,0,TRUE,,,
end_of_block_continue,234,784009,0.0-75.0-0.0,"""event"",""trial"",""time""
""fullscreenenter"",""1"",""10609""
","
","
","""event"",""trial"",""time""
""fullscreenenter"",""1"",""10609""
","
",,null,run_exp/static/audio/clip_32_block_end.m4a,,,,,,,null,,,,,,,,,,,,,,,,,,
alien_welcome,235,789028,0.0-76.0-0.0,"""event"",""trial"",""time""
""fullscreenenter"",""1"",""10609""
","
","
","""event"",""trial"",""time""
""fullscreenenter"",""1"",""10609""
","
",,null,run_exp/static/images/task_images/aliens/old_aliens/planet/alien_planet-44.jpg,null,,,,,,,,,,,,,44,"33,24,36,14,20,79,21,23,44,59,29,67,62,7,4,60,65,71,18,61,6,22,16,5,27,28,55,8,52,26,46,9,17,51,66",,,,,,,,,,
land,236,789548,0.0-76.0-1.0,"""event"",""trial"",""time""
""fullscreenenter"",""1"",""10609""
","
","
","""event"",""trial"",""time""
""fullscreenenter"",""1"",""10609""
","
",,null,run_exp/static/images/task_images/land.jpg,null,,,,,,,88,,,9,,,,,,,,,,,,,,
dig,237,791557,0.0-76.0-2.0,"""event"",""trial"",""time""
""fullscreenenter"",""1"",""10609""
","
","
","""event"",""trial"",""time""
""fullscreenenter"",""1"",""10609""
","
",,,,,,,,,,,,"[{""stimulus"":""run_exp/static/images/task_images/dig.jpg"",""time"":0.40000009536743164},{""stimulus"":""run_exp/static/images/task_images/land.jpg"",""time"":688.2000000476837},{""stimulus"":""run_exp/static/images/task_images/dig.jpg"",""time"":1348.2999999523163}]",[],9,,,,,,,,,,,,,,
harvest,238,792578,0.0-76.0-3.0,"""event"",""trial"",""time""
""fullscreenenter"",""1"",""10609""
","
","
","""event"",""trial"",""time""
""fullscreenenter"",""1"",""10609""
","
",,null,run_exp/static/images/task_images/gems/88.jpg,null,,,,,,,12,,,9,,,,,88,0.131220949,0.136363636,,,,,,,
decision,239,795588,0.0-76.0-4.0,"""event"",""trial"",""time""
""fullscreenenter"",""1"",""10609""
","
","
","""event"",""trial"",""time""
""fullscreenenter"",""1"",""10609""
","
",,null,run_exp/static/images/task_images/land.jpg,null,,,,,,,12,,,9,,,,,,,,11573,2,0,FALSE,,,
time_out,240,797608,0.0-77.0-0.0,"""event"",""trial"",""time""
""fullscreenenter"",""1"",""10609""
","
","
","""event"",""trial"",""time""
""fullscreenenter"",""1"",""10609""
","
",,null,run_exp/static/images/task_images/time_out.jpg,null,,,,,,,12,,,,,,,,,,,,,,,,,
decision,241,800618,0.0-77.0-1.0,"""event"",""trial"",""time""
""fullscreenenter"",""1"",""10609""
","
","
","""event"",""trial"",""time""
""fullscreenenter"",""1"",""10609""
","
",,null,run_exp/static/images/task_images/land.jpg,null,,,,,,,12,,,9,,,,,,,,16603,2,0,FALSE,,,
time_out,242,802632,0.0-78.0-0.0,"""event"",""trial"",""time""
""fullscreenenter"",""1"",""10609""
","
","
","""event"",""trial"",""time""
""fullscreenenter"",""1"",""10609""
","
",,null,run_exp/static/images/task_images/time_out.jpg,null,,,,,,,12,,,,,,,,,,,,,,,,,
decision,243,804655,0.0-78.0-1.0,"""event"",""trial"",""time""
""fullscreenenter"",""1"",""10609""
","
","
","""event"",""trial"",""time""
""fullscreenenter"",""1"",""10609""
","
",,2021.8,run_exp/static/images/task_images/land.jpg,65,,,,,,,12,,,9,,,,,,,,20640,2,0,FALSE,,,
dig,244,805650,0.0-79.0-0.0,"""event"",""trial"",""time""
""fullscreenenter"",""1"",""10609""
","
","
","""event"",""trial"",""time""
""fullscreenenter"",""1"",""10609""
","
",,,,,,,,,,,,"[{""stimulus"":""run_exp/static/images/task_images/dig.jpg"",""time"":0.2999999523162842},{""stimulus"":""run_exp/static/images/task_images/land.jpg"",""time"":339.2999999523163},{""stimulus"":""run_exp/static/images/task_images/dig.jpg"",""time"":669.1999998092651}]",[],9,,,,,,,,,,,,,,
harvest,245,806665,0.0-79.0-1.0,"""event"",""trial"",""time""
""fullscreenenter"",""1"",""10609""
","
","
","""event"",""trial"",""time""
""fullscreenenter"",""1"",""10609""
","
",,null,run_exp/static/images/task_images/gems/12.jpg,null,,,,,,,4,,,9,,,,,12,0.299748528,0.333333333,,,,,,,
decision,246,807468,0.0-79.0-2.0,"""event"",""trial"",""time""
""fullscreenenter"",""1"",""10609""
","
","
","""event"",""trial"",""time""
""fullscreenenter"",""1"",""10609""
","
",,801.3,run_exp/static/images/task_images/land.jpg,76,,,,,,,4,,,9,,,,,,,,23453,2,1,TRUE,,,
travel,247,816680,0.0-80.0-0.0,"""event"",""trial"",""time""
""fullscreenenter"",""1"",""10609""
","
","
","""event"",""trial"",""time""
""fullscreenenter"",""1"",""10609""
","
",,,,,,,,,,,,"[{""stimulus"":""run_exp/static/images/task_images/rocket-01.jpg"",""time"":0.20000004768371582},{""stimulus"":""run_exp/static/images/task_images/rocket-02.jpg"",""time"":1037.4000000953674},{""stimulus"":""run_exp/static/images/task_images/rocket-03.jpg"",""time"":2057.7999999523163},{""stimulus"":""run_exp/static/images/task_images/rocket-04.jpg"",""time"":3087.9000000953674},{""stimulus"":""run_exp/static/images/task_images/rocket-05.jpg"",""time"":4107.5},{""stimulus"":""run_exp/static/images/task_images/rocket-06.jpg"",""time"":5127.700000047684},{""stimulus"":""run_exp/static/images/task_images/rocket-07.jpg"",""time"":6147.200000047684},{""stimulus"":""run_exp/static/images/task_images/rocket-08.jpg"",""time"":7160},{""stimulus"":""run_exp/static/images/task_images/rocket-09.jpg"",""time"":8187.100000143051}]",[],9,,,,,,,,,,,,,,
alien_welcome,248,821690,0.0-80.0-1.0,"""event"",""trial"",""time""
""fullscreenenter"",""1"",""10609""
","
","
","""event"",""trial"",""time""
""fullscreenenter"",""1"",""10609""
","
",,null,run_exp/static/images/task_images/aliens/old_aliens/planet/alien_planet-59.jpg,null,,,,,,,,,,,,,59,"33,24,36,14,20,79,21,23,44,59,29,67,62,7,4,60,65,71,18,61,6,22,16,5,27,28,55,8,52,26,46,9,17,51,66",,,,,,,,,,
land,249,822192,0.0-80.0-2.0,"""event"",""trial"",""time""
""fullscreenenter"",""1"",""10609""
","
","
","""event"",""trial"",""time""
""fullscreenenter"",""1"",""10609""
","
",,null,run_exp/static/images/task_images/land.jpg,null,,,,,,,102,,,10,,,,,,,,,,,,,,
dig,250,824209,0.0-80.0-3.0,"""event"",""trial"",""time""
""fullscreenenter"",""1"",""10609""
","
","
","""event"",""trial"",""time""
""fullscreenenter"",""1"",""10609""
","
",,,,,,,,,,,,"[{""stimulus"":""run_exp/static/images/task_images/dig.jpg"",""time"":0.2999999523162842},{""stimulus"":""run_exp/static/images/task_images/land.jpg"",""time"":686.2999999523163},{""stimulus"":""run_exp/static/images/task_images/dig.jpg"",""time"":1346.1999998092651}]",[],10,,,,,,,,,,,,,,
