trial_type,trial_index,time_elapsed,internal_node_id,interactions,blur_events,focus_events,fullscreenenter_events,fullscreenexit_events,success,rt,stimulus,key_press,prompt,subject_id,participant_id,age,gender,button_pressed,next_reward,animation_sequence,responses,planet,curr_prac_trial,n_prac_rounds,alien,aliens,reward_received,decay_rate_actual,decay_rate_exp,time_in_block,block_num,prt,last_trial_on_planet,button_html,bonus,num_failures
pavlovia,0,3,0.0-0.0,"""event"",""trial"",""time""
""fullscreenenter"",""1"",""4527""
","
","
","""event"",""trial"",""time""
""fullscreenenter"",""1"",""4527""
","
",,,,,,,,,,,,,,,,,,,,,,,,,,,,
fullscreen,1,5504,0.0-1.0,"""event"",""trial"",""time""
""fullscreenenter"",""1"",""4527""
","
","
","""event"",""trial"",""time""
""fullscreenenter"",""1"",""4527""
","
",TRUE,,,,,,,,,,,,,,,,,,,,,,,,,,,
instruc_welcome,2,15428,0.0-2.0,"""event"",""trial"",""time""
""fullscreenenter"",""1"",""4527""
","
","
","""event"",""trial"",""time""
""fullscreenenter"",""1"",""4527""
","
",,null,run_exp/static/audio/clip_1_welcome.m4a,null,"<p>Howdy! In this experiment, you’ll be an explorer traveling through space to collect space treasure.</p><p>Your mission is to collect as much treasure as possible.</p><br><br><p><img src='run_exp/static/images/task_images/opening_img-01.jpg' height='300' width='auto'></p>",9334,64,13.3,Female,,,,,,,,,,,,,,,,,,,
audio-keyboard-response,3,32008,0.0-3.0,"""event"",""trial"",""time""
""fullscreenenter"",""1"",""4527""
","
","
","""event"",""trial"",""time""
""fullscreenenter"",""1"",""4527""
","
",,null,run_exp/static/audio/clip_2_move.m4a,null,,,,,,,,,,,,,,,,,,,,,,,,
welcome_dec,4,36734,0.0-4.0,"""event"",""trial"",""time""
""fullscreenenter"",""1"",""4527""
","
","
","""event"",""trial"",""time""
""fullscreenenter"",""1"",""4527""
","
",,4723.9,"<p>Howdy! In this experiment, you’ll be an explorer traveling through space to collect space treasure.</p><p>Your mission is to collect as much treasure as possible.</p><br><br><p><img src='run_exp/static/images/task_images/opening_img-01.jpg' height='300' width='auto'></p>",,,,,,,1,,,,,,,,,,,,,,,,,,
html-keyboard-response,5,37950,0.0-5.0,"""event"",""trial"",""time""
""fullscreenenter"",""1"",""4527""
","
","
","""event"",""trial"",""time""
""fullscreenenter"",""1"",""4527""
","
",,1213.2,"<p>Howdy! In this experiment, you’ll be an explorer traveling through space to collect space treasure.</p><p>Your mission is to collect as much treasure as possible.</p><br><br><p><img src='run_exp/static/images/task_images/opening_img-01.jpg' height='300' width='auto'></p><button class=""jspsych-html-btn-unchosen""><img src=""run_exp/static/images/task_images/planet-01.jpg"" height=""50""></button><button class=""jspsych-html-btn-chosen""><img src=""run_exp/static/images/task_images/planet-02.jpg"" height=""50""></button><p><b>[press the space bar to lock in your answer]<b><br></p>",32,,,,,,,,,,,,,,,,,,,,,,,,
instruc_goal,6,48007,0.0-6.0-0.0,"""event"",""trial"",""time""
""fullscreenenter"",""1"",""4527""
","
","
","""event"",""trial"",""time""
""fullscreenenter"",""1"",""4527""
","
",,null,run_exp/static/audio/clip_3_goal.m4a,null,"<p> As a space explorer, you’ll visit different planets to dig for space treasure, these pink gems.</p> <p> The more treasure you dig up, the more bonus money you’ll win! </p><br><br><p><img src='run_exp/static/images/task_images/pink_gem.jpg' height='300' width='auto'></p>",,,,,,,,,,,,,,,,,,,,,,,
instruc_goal,7,50132,0.0-6.0-1.0,"""event"",""trial"",""time""
""fullscreenenter"",""1"",""4527""
","
","
","""event"",""trial"",""time""
""fullscreenenter"",""1"",""4527""
","
",,2122.7,"<p> As a space explorer, you’ll visit different planets to dig for space treasure, these pink gems.</p> <p> The more treasure you dig up, the more bonus money you’ll win! </p><br><br><p><img src='run_exp/static/images/task_images/pink_gem.jpg' height='300' width='auto'></p>",,,,,,,1,,,,,,,,,,,,,,,,,,
html-keyboard-response,8,50614,0.0-6.0-2.0,"""event"",""trial"",""time""
""fullscreenenter"",""1"",""4527""
","
","
","""event"",""trial"",""time""
""fullscreenenter"",""1"",""4527""
","
",,480.6,"<p> As a space explorer, you’ll visit different planets to dig for space treasure, these pink gems.</p> <p> The more treasure you dig up, the more bonus money you’ll win! </p><br><br><p><img src='run_exp/static/images/task_images/pink_gem.jpg' height='300' width='auto'></p><button class=""jspsych-html-btn-unchosen""><img src=""run_exp/static/images/task_images/planet-01.jpg"" height=""50""></button><button class=""jspsych-html-btn-chosen""><img src=""run_exp/static/images/task_images/planet-02.jpg"" height=""50""></button><p><b>[press the space bar to lock in your answer]<b><br></p>",32,,,,,,,,,,,,,,,,,,,,,,,,
instruc_dig,9,66606,0.0-7.0-0.0,"""event"",""trial"",""time""
""fullscreenenter"",""1"",""4527""
","
","
","""event"",""trial"",""time""
""fullscreenenter"",""1"",""4527""
","
",,null,run_exp/static/audio/clip_4_dig.m4a,null,,,,,,,100,,,,,,,,,,,,,,,,,
instruc_dig_try,10,67851,0.0-7.0-1.0,"""event"",""trial"",""time""
""fullscreenenter"",""1"",""4527""
","
","
","""event"",""trial"",""time""
""fullscreenenter"",""1"",""4527""
","
",,1243.7,"<p> When you’ve arrived at a new planet, you will dig once. </p> <p>Then, you get to decide if you want to stay on the planet and dig again or travel to a new planet and dig there.</p> <p> To stay and dig, press the letter <strong>‘A’</strong> on your keyboard. Try pressing it now! </p><p><img src='run_exp/static/images/task_images/land.jpg'  height='700' width='auto'></p>",65,"<p> When you’ve arrived at a new planet, you will dig once. </p> <p>Then, you get to decide if you want to stay on the planet and dig again or travel to a new planet and dig there.</p> <p> To stay and dig, press the letter <strong>‘A’</strong> on your keyboard. Try pressing it now! </p><p><img src='run_exp/static/images/task_images/land.jpg'  height='700' width='auto'></p>",,,,,,100,,,,,,,,,,,,,,,,,
dig_prac,11,69874,0.0-7.0-2.0,"""event"",""trial"",""time""
""fullscreenenter"",""1"",""4527""
","
","
","""event"",""trial"",""time""
""fullscreenenter"",""1"",""4527""
","
",,,,,,,,,,,,"[{""stimulus"":""run_exp/static/images/task_images/dig.jpg"",""time"":0.30000001192092896},{""stimulus"":""run_exp/static/images/task_images/land.jpg"",""time"":678.4000000059605},{""stimulus"":""run_exp/static/images/task_images/dig.jpg"",""time"":1345.699999988079}]",[],,,,,,,,,,,,,,,
instruc_travel,12,106105,0.0-7.0-3.0,"""event"",""trial"",""time""
""fullscreenenter"",""1"",""4527""
","
","
","""event"",""trial"",""time""
""fullscreenenter"",""1"",""4527""
","
",,null,run_exp/static/audio/clip_5_travel.m4a,null,"<p>Every time you dig up gems, there are less gems on the planet, so the more you dig on a planet the fewer gems you’ll get with each dig.</p><p>When gems are running low, you may want to travel to a new planet. </p> <p>  Planets are very far apart in this galaxy, so it will take some time to travel between them. </p> <br><p>There are lots and lots of planets for you to visit, so you won’t be able to return to any planets you’ve seen before. </p><br><p>To leave this planet and travel to a new one, press the letter <strong>‘L’</strong> on your keyboard. Try pressing it now! </p><p><img src='run_exp/static/images/task_images/rocket-01.jpg'  height='600' width='auto'></p>",,,,,,,,,,,,,,,,,,,,,,,
instruc_travel_try,13,108537,0.0-7.0-4.0,"""event"",""trial"",""time""
""fullscreenenter"",""1"",""4527""
","
","
","""event"",""trial"",""time""
""fullscreenenter"",""1"",""4527""
","
",,2430.7,"<p>Every time you dig up gems, there are less gems on the planet, so the more you dig on a planet the fewer gems you’ll get with each dig.</p><p>When gems are running low, you may want to travel to a new planet. </p> <p>  Planets are very far apart in this galaxy, so it will take some time to travel between them. </p> <br><p>There are lots and lots of planets for you to visit, so you won’t be able to return to any planets you’ve seen before. </p><br><p>To leave this planet and travel to a new one, press the letter <strong>‘L’</strong> on your keyboard. Try pressing it now! </p><p><img src='run_exp/static/images/task_images/rocket-01.jpg'  height='600' width='auto'></p>",76,"<p>Every time you dig up gems, there are less gems on the planet, so the more you dig on a planet the fewer gems you’ll get with each dig.</p><p>When gems are running low, you may want to travel to a new planet. </p> <p>  Planets are very far apart in this galaxy, so it will take some time to travel between them. </p> <br><p>There are lots and lots of planets for you to visit, so you won’t be able to return to any planets you’ve seen before. </p><br><p>To leave this planet and travel to a new one, press the letter <strong>‘L’</strong> on your keyboard. Try pressing it now! </p><p><img src='run_exp/static/images/task_images/rocket-01.jpg'  height='600' width='auto'></p>",,,,,,,,,,,,,,,,,,,,,,,
travel_prac,14,118547,0.0-7.0-5.0,"""event"",""trial"",""time""
""fullscreenenter"",""1"",""4527""
","
","
","""event"",""trial"",""time""
""fullscreenenter"",""1"",""4527""
","
",,,,,,,,,,,,"[{""stimulus"":""run_exp/static/images/task_images/rocket-01.jpg"",""time"":0.09999999403953552},{""stimulus"":""run_exp/static/images/task_images/rocket-02.jpg"",""time"":1116},{""stimulus"":""run_exp/static/images/task_images/rocket-03.jpg"",""time"":2234.800000011921},{""stimulus"":""run_exp/static/images/task_images/rocket-04.jpg"",""time"":3337.5999999940395},{""stimulus"":""run_exp/static/images/task_images/rocket-05.jpg"",""time"":4457.700000017881},{""stimulus"":""run_exp/static/images/task_images/rocket-06.jpg"",""time"":5561.5999999940395},{""stimulus"":""run_exp/static/images/task_images/rocket-07.jpg"",""time"":6681.700000017881},{""stimulus"":""run_exp/static/images/task_images/rocket-08.jpg"",""time"":7785.5999999940395},{""stimulus"":""run_exp/static/images/task_images/rocket-09.jpg"",""time"":8905.5}]",[],0,,,,,,,,,,,,,,
instruc_alien_greet,15,145742,0.0-7.0-6.0,"""event"",""trial"",""time""
""fullscreenenter"",""1"",""4527""
","
","
","""event"",""trial"",""time""
""fullscreenenter"",""1"",""4527""
","
",,null,run_exp/static/audio/clip_6_alien.m4a,null,"<p>When you arrive at a new planet, the alien who owns the treasure mine on that planet will greet you!</p><p>The better an alien takes care of their mine the easier it is to dig for gems. Some aliens take better care of their mine than others. So, you won’t get exactly the same amount of gems on each planet.</p><p>What the alien looks like does not tell you anything about how many gems there are on the planet.</p><br><p><img src=""run_exp/static/images/task_images/aliens/instructions_aliens/planet/alien_planet-1.jpg""  height=""600"" width=""auto""></p>",,,,,,,,,,,,,,,,,,,,,,,
instruc_alien_greet,16,147779,0.0-7.0-7.0,"""event"",""trial"",""time""
""fullscreenenter"",""1"",""4527""
","
","
","""event"",""trial"",""time""
""fullscreenenter"",""1"",""4527""
","
",,2035,"<p>When you arrive at a new planet, the alien who owns the treasure mine on that planet will greet you!</p><p>The better an alien takes care of their mine the easier it is to dig for gems. Some aliens take better care of their mine than others. So, you won’t get exactly the same amount of gems on each planet.</p><p>What the alien looks like does not tell you anything about how many gems there are on the planet.</p><br><p><img src=""run_exp/static/images/task_images/aliens/instructions_aliens/planet/alien_planet-1.jpg""  height=""600"" width=""auto""></p>",,,,,,,1,,,,,,,,,,,,,,,,,,
html-keyboard-response,17,148017,0.0-7.0-8.0,"""event"",""trial"",""time""
""fullscreenenter"",""1"",""4527""
","
","
","""event"",""trial"",""time""
""fullscreenenter"",""1"",""4527""
","
",,236.3,"<p>When you arrive at a new planet, the alien who owns the treasure mine on that planet will greet you!</p><p>The better an alien takes care of their mine the easier it is to dig for gems. Some aliens take better care of their mine than others. So, you won’t get exactly the same amount of gems on each planet.</p><p>What the alien looks like does not tell you anything about how many gems there are on the planet.</p><br><p><img src=""run_exp/static/images/task_images/aliens/instructions_aliens/planet/alien_planet-1.jpg""  height=""600"" width=""auto""></p><button class=""jspsych-html-btn-unchosen""><img src=""run_exp/static/images/task_images/planet-01.jpg"" height=""50""></button><button class=""jspsych-html-btn-chosen""><img src=""run_exp/static/images/task_images/planet-02.jpg"" height=""50""></button><p><b>[press the space bar to lock in your answer]<b><br></p>",32,,,,,,,,,,,,,,,,,,,,,,,,
time_out,18,159094,0.0-8.0-0.0,"""event"",""trial"",""time""
""fullscreenenter"",""1"",""4527""
","
","
","""event"",""trial"",""time""
""fullscreenenter"",""1"",""4527""
","
",,null,run_exp/static/audio/clip_7_timeout.m4a,null,"<p>If you don't make your choice fast enough, you’ll have to wait a few seconds before you can make another one.</p><p>You can’t dig for more gems or travel to new planets. You just have to sit and wait.</p><br><p><img src='run_exp/static/images/task_images/time_out.jpg'  height='600' width='auto'></p>",,,,,,,,,,,,,,,,,,,,,,,
time_out,19,160436,0.0-8.0-1.0,"""event"",""trial"",""time""
""fullscreenenter"",""1"",""4527""
","
","
","""event"",""trial"",""time""
""fullscreenenter"",""1"",""4527""
","
",,1339.9,"<p>If you don't make your choice fast enough, you’ll have to wait a few seconds before you can make another one.</p><p>You can’t dig for more gems or travel to new planets. You just have to sit and wait.</p><br><p><img src='run_exp/static/images/task_images/time_out.jpg'  height='600' width='auto'></p>",,,,,,,1,,,,,,,,,,,,,,,,,,
html-keyboard-response,20,160838,0.0-8.0-2.0,"""event"",""trial"",""time""
""fullscreenenter"",""1"",""4527""
","
","
","""event"",""trial"",""time""
""fullscreenenter"",""1"",""4527""
","
",,400.8,"<p>If you don't make your choice fast enough, you’ll have to wait a few seconds before you can make another one.</p><p>You can’t dig for more gems or travel to new planets. You just have to sit and wait.</p><br><p><img src='run_exp/static/images/task_images/time_out.jpg'  height='600' width='auto'></p><button class=""jspsych-html-btn-unchosen""><img src=""run_exp/static/images/task_images/planet-01.jpg"" height=""50""></button><button class=""jspsych-html-btn-chosen""><img src=""run_exp/static/images/task_images/planet-02.jpg"" height=""50""></button><p><b>[press the space bar to lock in your answer]<b><br></p>",32,,,,,,,,,,,,,,,,,,,,,,,,
instruc_break,21,176533,0.0-9.0-0.0,"""event"",""trial"",""time""
""fullscreenenter"",""1"",""4527""
","
","
","""event"",""trial"",""time""
""fullscreenenter"",""1"",""4527""
","
",,null,run_exp/static/audio/clip_8_break.m4a,null,"<p> After digging and traveling for a while, you’ll be able to take a break at home base. </p><p>The game will last 20 minutes no matter what.</p><p>You will visit home base every 5 minutes, so, you will visit home base three times during the game.</p><br><p><img src='run_exp/static/images/task_images/home_base.jpg' height='600' width='auto'></p>",,,,,,,,,,,,,,,,,,,,,,,
instruc_break,22,177782,0.0-9.0-1.0,"""event"",""trial"",""time""
""fullscreenenter"",""1"",""4527""
","
","
","""event"",""trial"",""time""
""fullscreenenter"",""1"",""4527""
","
",,1247.2,"<p> After digging and traveling for a while, you’ll be able to take a break at home base. </p><p>The game will last 20 minutes no matter what.</p><p>You will visit home base every 5 minutes, so, you will visit home base three times during the game.</p><br><p><img src='run_exp/static/images/task_images/home_base.jpg' height='600' width='auto'></p>",,,,,,,1,,,,,,,,,,,,,,,,,,
html-keyboard-response,23,178260,0.0-9.0-2.0,"""event"",""trial"",""time""
""fullscreenenter"",""1"",""4527""
","
","
","""event"",""trial"",""time""
""fullscreenenter"",""1"",""4527""
","
",,476.8,"<p> After digging and traveling for a while, you’ll be able to take a break at home base. </p><p>The game will last 20 minutes no matter what.</p><p>You will visit home base every 5 minutes, so, you will visit home base three times during the game.</p><br><p><img src='run_exp/static/images/task_images/home_base.jpg' height='600' width='auto'></p><button class=""jspsych-html-btn-unchosen""><img src=""run_exp/static/images/task_images/planet-01.jpg"" height=""50""></button><button class=""jspsych-html-btn-chosen""><img src=""run_exp/static/images/task_images/planet-02.jpg"" height=""50""></button><p><b>[press the space bar to lock in your answer]<b><br></p>",32,,,,,,,,,,,,,,,,,,,,,,,,
instruc_prac_game,24,188376,0.0-10.0-0.0,"""event"",""trial"",""time""
""fullscreenenter"",""1"",""4527""
","
","
","""event"",""trial"",""time""
""fullscreenenter"",""1"",""4527""
","
",,null,run_exp/static/audio/clip_9_practice.m4a,null,"<p> Are you ready to play a practice game? </p> <p>In this practice game, you'll be digging up barrels of gems. But, in the real game, you'll be digging up the gems themselves. </p>",,,,,,,,,,,,,,,,,,,,,,,
html-button-response,25,189757,0.0-10.0-1.0,"""event"",""trial"",""time""
""fullscreenenter"",""1"",""4527""
","
","
","""event"",""trial"",""time""
""fullscreenenter"",""1"",""4527""
","
",,1380.6,"<p> Are you ready to play a practice game? </p> <p>In this practice game, you'll be digging up barrels of gems. But, in the real game, you'll be digging up the gems themselves. </p>",,,,,,,0,,,,,,,,,,,,,,,,,,
alien_welcome_prac,26,194778,0.0-11.0-0.0,"""event"",""trial"",""time""
""fullscreenenter"",""1"",""4527""
","
","
","""event"",""trial"",""time""
""fullscreenenter"",""1"",""4527""
","
",,null,run_exp/static/images/task_images/aliens/practice_aliens/planet/alien_planet-5.jpg,null,,,,,,,,,,,,,,,,,,,,,,,,
land_prac,27,195279,0.0-11.0-1.0,"""event"",""trial"",""time""
""fullscreenenter"",""1"",""4527""
","
","
","""event"",""trial"",""time""
""fullscreenenter"",""1"",""4527""
","
",,null,run_exp/static/images/task_images/land.jpg,null,,,,,,,95,,,0,,,,,,,,,,,,,,
dig_prac,28,197286,0.0-11.0-2.0,"""event"",""trial"",""time""
""fullscreenenter"",""1"",""4527""
","
","
","""event"",""trial"",""time""
""fullscreenenter"",""1"",""4527""
","
",,,,,,,,,,,,"[{""stimulus"":""run_exp/static/images/task_images/dig.jpg"",""time"":0.30000001192092896},{""stimulus"":""run_exp/static/images/task_images/land.jpg"",""time"":676.9000000059605},{""stimulus"":""run_exp/static/images/task_images/dig.jpg"",""time"":1348.199999988079}]",[],,,,,,,,,,,,,,,
harvest_prac,29,198293,0.0-11.0-3.0,"""event"",""trial"",""time""
""fullscreenenter"",""1"",""4527""
","
","
","""event"",""trial"",""time""
""fullscreenenter"",""1"",""4527""
","
",,null,run_exp/static/images/task_images/barrel_text.jpg,null,,,,,,,,,,,,,,,,,,,,,,,,
decision_prac,30,201306,0.0-11.0-4.0,"""event"",""trial"",""time""
""fullscreenenter"",""1"",""4527""
","
","
","""event"",""trial"",""time""
""fullscreenenter"",""1"",""4527""
","
",,null,run_exp/static/images/task_images/land.jpg,null,,,,,,,,,,,1,,,,,,,,,,,,,
time_out,31,203317,0.0-12.0-0.0,"""event"",""trial"",""time""
""fullscreenenter"",""1"",""4527""
","
","
","""event"",""trial"",""time""
""fullscreenenter"",""1"",""4527""
","
",,null,run_exp/static/images/task_images/time_out.jpg,null,,,,,,,,,,,,,,,,,,,,,,,,
decision_prac,32,204644,0.0-12.0-1.0,"""event"",""trial"",""time""
""fullscreenenter"",""1"",""4527""
","
","
","""event"",""trial"",""time""
""fullscreenenter"",""1"",""4527""
","
",,1325.3,run_exp/static/images/task_images/land.jpg,65,,,,,,,,,,,2,,,,,,,,,,,,,
dig_prac,33,206666,0.0-13.0-0.0,"""event"",""trial"",""time""
""fullscreenenter"",""1"",""4527""
","
","
","""event"",""trial"",""time""
""fullscreenenter"",""1"",""4527""
","
",,,,,,,,,,,,"[{""stimulus"":""run_exp/static/images/task_images/dig.jpg"",""time"":0},{""stimulus"":""run_exp/static/images/task_images/land.jpg"",""time"":675.6999999880791},{""stimulus"":""run_exp/static/images/task_images/dig.jpg"",""time"":1348.2999999821186}]",[],,,,,,,,,,,,,,,
harvest_prac,34,207669,0.0-13.0-1.0,"""event"",""trial"",""time""
""fullscreenenter"",""1"",""4527""
","
","
","""event"",""trial"",""time""
""fullscreenenter"",""1"",""4527""
","
",,null,run_exp/static/images/task_images/barrel_text.jpg,null,,,,,,,,,,,,,,,,,,,,,,,,
decision_prac,35,208194,0.0-13.0-2.0,"""event"",""trial"",""time""
""fullscreenenter"",""1"",""4527""
","
","
","""event"",""trial"",""time""
""fullscreenenter"",""1"",""4527""
","
",,524.5,run_exp/static/images/task_images/land.jpg,76,,,,,,,,,,,3,,,,,,,,,,,,,
travel,36,217672,0.0-14.0-0.0,"""event"",""trial"",""time""
""fullscreenenter"",""1"",""4527""
","
","
","""event"",""trial"",""time""
""fullscreenenter"",""1"",""4527""
","
",,,,,,,,,,,,"[{""stimulus"":""run_exp/static/images/task_images/rocket-01.jpg"",""time"":0.20000001788139343},{""stimulus"":""run_exp/static/images/task_images/rocket-02.jpg"",""time"":1062.4000000059605},{""stimulus"":""run_exp/static/images/task_images/rocket-03.jpg"",""time"":2117.2000000178814},{""stimulus"":""run_exp/static/images/task_images/rocket-04.jpg"",""time"":3169.600000023842},{""stimulus"":""run_exp/static/images/task_images/rocket-05.jpg"",""time"":4213},{""stimulus"":""run_exp/static/images/task_images/rocket-06.jpg"",""time"":5270.5},{""stimulus"":""run_exp/static/images/task_images/rocket-07.jpg"",""time"":6324.800000011921},{""stimulus"":""run_exp/static/images/task_images/rocket-08.jpg"",""time"":7382.5},{""stimulus"":""run_exp/static/images/task_images/rocket-09.jpg"",""time"":8422.5}]",[],0,,,,,,,,,,,,,,
alien_welcome_prac,37,222682,0.0-14.0-1.0,"""event"",""trial"",""time""
""fullscreenenter"",""1"",""4527""
","
","
","""event"",""trial"",""time""
""fullscreenenter"",""1"",""4527""
","
",,null,run_exp/static/images/task_images/aliens/practice_aliens/planet/alien_planet-4.jpg,null,,,,,,,,,,,,,,,,,,,,,,,,
land_prac,38,223190,0.0-14.0-2.0,"""event"",""trial"",""time""
""fullscreenenter"",""1"",""4527""
","
","
","""event"",""trial"",""time""
""fullscreenenter"",""1"",""4527""
","
",,null,run_exp/static/images/task_images/land.jpg,null,,,,,,,98,,,0,,,,,,,,,,,,,,
dig_prac,39,225211,0.0-14.0-3.0,"""event"",""trial"",""time""
""fullscreenenter"",""1"",""4527""
","
","
","""event"",""trial"",""time""
""fullscreenenter"",""1"",""4527""
","
",,,,,,,,,,,,"[{""stimulus"":""run_exp/static/images/task_images/dig.jpg"",""time"":0.19999998807907104},{""stimulus"":""run_exp/static/images/task_images/land.jpg"",""time"":674.7999999821186},{""stimulus"":""run_exp/static/images/task_images/dig.jpg"",""time"":1346.199999988079}]",[],,,,,,,,,,,,,,,
harvest_prac,40,226215,0.0-14.0-4.0,"""event"",""trial"",""time""
""fullscreenenter"",""1"",""4527""
","
","
","""event"",""trial"",""time""
""fullscreenenter"",""1"",""4527""
","
",,null,run_exp/static/images/task_images/barrel_text.jpg,null,,,,,,,,,,,,,,,,,,,,,,,,
decision_prac,41,226250,0.0-14.0-5.0,"""event"",""trial"",""time""
""fullscreenenter"",""1"",""4527""
","
","
","""event"",""trial"",""time""
""fullscreenenter"",""1"",""4527""
","
",,34.19999999,run_exp/static/images/task_images/land.jpg,65,,,,,,,,,,,4,,,,,,,,,,,,,
dig_prac,42,228267,0.0-15.0-0.0,"""event"",""trial"",""time""
""fullscreenenter"",""1"",""4527""
","
","
","""event"",""trial"",""time""
""fullscreenenter"",""1"",""4527""
","
",,,,,,,,,,,,"[{""stimulus"":""run_exp/static/images/task_images/dig.jpg"",""time"":0.20000001788139343},{""stimulus"":""run_exp/static/images/task_images/land.jpg"",""time"":686.3000000119209},{""stimulus"":""run_exp/static/images/task_images/dig.jpg"",""time"":1338.6000000238419}]",[],,,,,,,,,,,,,,,
harvest_prac,43,229269,0.0-15.0-1.0,"""event"",""trial"",""time""
""fullscreenenter"",""1"",""4527""
","
","
","""event"",""trial"",""time""
""fullscreenenter"",""1"",""4527""
","
",,null,run_exp/static/images/task_images/barrel_text.jpg,null,,,,,,,,,,,,,,,,,,,,,,,,
decision_prac,44,229751,0.0-15.0-2.0,"""event"",""trial"",""time""
""fullscreenenter"",""1"",""4527""
","
","
","""event"",""trial"",""time""
""fullscreenenter"",""1"",""4527""
","
",,480.5,run_exp/static/images/task_images/land.jpg,76,,,,,,,,,,,,1,,,,,,,,,,,,
quiz_instruc,45,232753,0.0-16.0-0.0,"""event"",""trial"",""time""
""fullscreenenter"",""1"",""4527""
","
","
","""event"",""trial"",""time""
""fullscreenenter"",""1"",""4527""
","
",,3000.1,run_exp/static/audio/clip_10_quiz.m4a,,,,,,,0,,,,,,,,,,,,,,,,,,
instruc_repeat,46,275523,0.0-16.0-1.0,"""event"",""trial"",""time""
""fullscreenenter"",""1"",""4527""
","
","
","""event"",""trial"",""time""
""fullscreenenter"",""1"",""4527""
","
",,null,"<p> Are you ready to play a practice game? </p> <p>In this practice game, you'll be digging up barrels of gems. But, in the real game, you'll be digging up the gems themselves. </p>",null,"<p>In this game, your goal is to collect as many gems as you can. That’s how you will win bonus money. </p> <p>The entire game will last 20 minutes no matter how many gems you collect or how many planets you visit. </p><p>To stay on a planet and dig again, press the letter A on your keyboard. To leave for a new planet, press the letter L.</p><p>The more you dig on a planet, the fewer gems you’ll get with each dig which is why you might consider leaving for a new planet. </p><p>When you arrive at a new planet, you’ll be greeted by an alien. What the alien looks like does not tell you anything about how much treasure is on the planet. </p>",,,,,,,,,,,,,,,,,,,,,,,
instruc_repeat_continue,47,278199,0.0-16.0-2.0,"""event"",""trial"",""time""
""fullscreenenter"",""1"",""4527""
","
","
","""event"",""trial"",""time""
""fullscreenenter"",""1"",""4527""
","
",,2674.6,"<p> Are you ready to play a practice game? </p> <p>In this practice game, you'll be digging up barrels of gems. But, in the real game, you'll be digging up the gems themselves. </p>",,,,,,,0,,,,,,,,,,,,,,,,,,
quiz_q_1_ask,48,280641,0.0-16.0-3.0,"""event"",""trial"",""time""
""fullscreenenter"",""1"",""4527""
","
","
","""event"",""trial"",""time""
""fullscreenenter"",""1"",""4527""
","
",,2441,run_exp/static/audio/clip_11_q1_ask.m4a,,,,,,,2,,,,,,,,,,,,,,,,,,
quiz_q_1_fb_correct,49,284509,0.0-17.0-0.0,"""event"",""trial"",""time""
""fullscreenenter"",""1"",""4527""
","
","
","""event"",""trial"",""time""
""fullscreenenter"",""1"",""4527""
","
",,null,run_exp/static/audio/clip_12_q1_correct.m4a,null,<p>That’s correct. You win extra money by collecting more gems.</p>,,,,,,,,,,,,,,,,,,,,,,,
quiz_q_2_ask,50,286183,0.0-17.0-1.0,"""event"",""trial"",""time""
""fullscreenenter"",""1"",""4527""
","
","
","""event"",""trial"",""time""
""fullscreenenter"",""1"",""4527""
","
",,1672.1,run_exp/static/audio/clip_14_q2_ask.m4a,,,,,,,1,,,,,,,,,,,,,,,,,,
quiz_q_2_fb_correct,51,290152,0.0-18.0-0.0,"""event"",""trial"",""time""
""fullscreenenter"",""1"",""4527""
","
","
","""event"",""trial"",""time""
""fullscreenenter"",""1"",""4527""
","
",,null,run_exp/static/audio/clip_15_q2_correct.m4a,null,<p>That’s correct. The experiment is 20 minutes no matter what.</p>,,,,,,,,,,,,,,,,,,,,,,,
quiz_q_3_ask,52,292432,0.0-18.0-1.0,"""event"",""trial"",""time""
""fullscreenenter"",""1"",""4527""
","
","
","""event"",""trial"",""time""
""fullscreenenter"",""1"",""4527""
","
",,2278.5,run_exp/static/audio/clip_17_q3_ask.m4a,,,,,,,1,,,,,,,,,,,,,,,,,,
quiz_q_3_fb_correct,53,296398,0.0-19.0-0.0,"""event"",""trial"",""time""
""fullscreenenter"",""1"",""4527""
","
","
","""event"",""trial"",""time""
""fullscreenenter"",""1"",""4527""
","
",,null,run_exp/static/audio/clip_18_q3_correct.m4a,null,<p> That’s correct. You press the letter L to travel to a new planet.</p>,,,,,,,,,,,,,,,,,,,,,,,
quiz_q_4_ask,54,298894,0.0-19.0-1.0,"""event"",""trial"",""time""
""fullscreenenter"",""1"",""4527""
","
","
","""event"",""trial"",""time""
""fullscreenenter"",""1"",""4527""
","
",,2494.6,run_exp/static/audio/clip_20_q4_ask.m4a,,,,,,,0,,,,,,,,,,,,,,,,,,
quiz_q_4_fb_correct,55,304200,0.0-20.0-0.0,"""event"",""trial"",""time""
""fullscreenenter"",""1"",""4527""
","
","
","""event"",""trial"",""time""
""fullscreenenter"",""1"",""4527""
","
",,null,run_exp/static/audio/clip_21_q4_correct.m4a,null,<p> That’s correct. The more you dig on a planet the fewer gems you’ll get with each dig. </p>,,,,,,,,,,,,,,,,,,,,,,,
quiz_q_5_ask,56,306424,0.0-20.0-1.0,"""event"",""trial"",""time""
""fullscreenenter"",""1"",""4527""
","
","
","""event"",""trial"",""time""
""fullscreenenter"",""1"",""4527""
","
",,2223.1,run_exp/static/audio/clip_23_q5_ask.m4a,,,,,,,1,,,,,,,,,,,,,,,,,,
quiz_q_5_fb_correct,57,311422,0.0-21.0-0.0,"""event"",""trial"",""time""
""fullscreenenter"",""1"",""4527""
","
","
","""event"",""trial"",""time""
""fullscreenenter"",""1"",""4527""
","
",,null,run_exp/static/audio/clip_24_q5_correct.m4a,null,<p> That’s correct. The alien tells you nothing about how much treasure is on the planet.</p>,,,,,,,,,,,,,,,,,,,,,,,
quiz_correct,58,314881,0.0-22.0-0.0,"""event"",""trial"",""time""
""fullscreenenter"",""1"",""4527""
","
","
","""event"",""trial"",""time""
""fullscreenenter"",""1"",""4527""
","
",,null,run_exp/static/audio/clip_26_correct_quiz.m4a,null,,,,,,,,,,,,,,,,,,,,,,,,
quiz_correct_continue,59,316101,0.0-22.0-1.0,"""event"",""trial"",""time""
""fullscreenenter"",""1"",""4527""
","
","
","""event"",""trial"",""time""
""fullscreenenter"",""1"",""4527""
","
",,1218.7,<p>Good job! You're now ready to move on to the real game!</p>,,,,,,,0,,,,,,,,,,,,,,,,,,
audio-keyboard-response,60,326236,0.0-22.0-2.0,"""event"",""trial"",""time""
""fullscreenenter"",""1"",""4527""
","
","
","""event"",""trial"",""time""
""fullscreenenter"",""1"",""4527""
","
",,null,run_exp/static/audio/clip_28_real_game.m4a,null,,,,,,,,,,,,,,,,,,,,,,,,
instruc_begin_exp_contine,61,327347,0.0-22.0-3.0,"""event"",""trial"",""time""
""fullscreenenter"",""1"",""4527""
","
","
","""event"",""trial"",""time""
""fullscreenenter"",""1"",""4527""
","
",,1109.5,"<p>Now that you know how  to dig for space treasure and travel to new planets,you can start exploring! </p><p>Do you want to go over the instructions again or get started with the real game?</p>",,,,,,,1,,,,,,1,,,,,,,,,,,,
alien_welcome,62,332362,0.0-23.0-0.0,"""event"",""trial"",""time""
""fullscreenenter"",""1"",""4527""
","
","
","""event"",""trial"",""time""
""fullscreenenter"",""1"",""4527""
","
",,null,run_exp/static/images/task_images/aliens/old_aliens/planet/alien_planet-21.jpg,null,,,,,,,,,,,,,21,"21,19,14,6,3,33,73,52,36,77,23,41,49,43,60,56,40,51,37,71,16,45,13,42,25,67,61,7,65,76,39,50,32,27,29,62,10,54,26,44,72,59,22",,,,,,,,,,
land,63,332873,0.0-23.0-1.0,"""event"",""trial"",""time""
""fullscreenenter"",""1"",""4527""
","
","
","""event"",""trial"",""time""
""fullscreenenter"",""1"",""4527""
","
",,null,run_exp/static/images/task_images/land.jpg,null,,,,,,,102,,,1,,,,,,,,,,,,,,
dig,64,334890,0.0-23.0-2.0,"""event"",""trial"",""time""
""fullscreenenter"",""1"",""4527""
","
","
","""event"",""trial"",""time""
""fullscreenenter"",""1"",""4527""
","
",,,,,,,,,,,,"[{""stimulus"":""run_exp/static/images/task_images/dig.jpg"",""time"":0.19999998807907104},{""stimulus"":""run_exp/static/images/task_images/land.jpg"",""time"":675.6999999880791},{""stimulus"":""run_exp/static/images/task_images/dig.jpg"",""time"":1343.699999988079}]",[],1,,,,,,,,,,,,,,
harvest,65,335902,0.0-23.0-3.0,"""event"",""trial"",""time""
""fullscreenenter"",""1"",""4527""
","
","
","""event"",""trial"",""time""
""fullscreenenter"",""1"",""4527""
","
",,null,run_exp/static/images/task_images/gems/102.jpg,null,,,,,,,23,,,1,,,,,102,0.222992232,0.225490196,,,,,,,
decision,66,336473,0.0-23.0-4.0,"""event"",""trial"",""time""
""fullscreenenter"",""1"",""4527""
","
","
","""event"",""trial"",""time""
""fullscreenenter"",""1"",""4527""
","
",,569.4,run_exp/static/images/task_images/land.jpg,65,,,,,,,23,,,1,,,,,,,,9124,1,0,FALSE,,,
dig,67,338926,0.0-24.0-0.0,"""event"",""trial"",""time""
""fullscreenenter"",""1"",""4527""
","
","
","""event"",""trial"",""time""
""fullscreenenter"",""1"",""4527""
","
",,,,,,,,,,,,"[{""stimulus"":""run_exp/static/images/task_images/dig.jpg"",""time"":0.09999999403953552},{""stimulus"":""run_exp/static/images/task_images/land.jpg"",""time"":813.6999999880791},{""stimulus"":""run_exp/static/images/task_images/dig.jpg"",""time"":1630.5}]",[],1,,,,,,,,,,,,,,
harvest,68,339932,0.0-24.0-1.0,"""event"",""trial"",""time""
""fullscreenenter"",""1"",""4527""
","
","
","""event"",""trial"",""time""
""fullscreenenter"",""1"",""4527""
","
",,null,run_exp/static/images/task_images/gems/23.jpg,null,,,,,,,5,,,1,,,,,23,0.198203427,0.217391304,,,,,,,
decision,69,341394,0.0-24.0-2.0,"""event"",""trial"",""time""
""fullscreenenter"",""1"",""4527""
","
","
","""event"",""trial"",""time""
""fullscreenenter"",""1"",""4527""
","
",,1460.5,run_exp/static/images/task_images/land.jpg,76,,,,,,,5,,,1,,,,,,,,14045,1,1,TRUE,,,
travel,70,349945,0.0-25.0-0.0,"""event"",""trial"",""time""
""fullscreenenter"",""1"",""4527""
","
","
","""event"",""trial"",""time""
""fullscreenenter"",""1"",""4527""
","
",,,,,,,,,,,,"[{""stimulus"":""run_exp/static/images/task_images/rocket-01.jpg"",""time"":0.09999999403953552},{""stimulus"":""run_exp/static/images/task_images/rocket-02.jpg"",""time"":969.8999999761581},{""stimulus"":""run_exp/static/images/task_images/rocket-03.jpg"",""time"":1909.7999999821186},{""stimulus"":""run_exp/static/images/task_images/rocket-04.jpg"",""time"":2857.2999999821186},{""stimulus"":""run_exp/static/images/task_images/rocket-05.jpg"",""time"":3799.7999999821186},{""stimulus"":""run_exp/static/images/task_images/rocket-06.jpg"",""time"":4761.899999976158},{""stimulus"":""run_exp/static/images/task_images/rocket-07.jpg"",""time"":5701},{""stimulus"":""run_exp/static/images/task_images/rocket-08.jpg"",""time"":6644.699999988079},{""stimulus"":""run_exp/static/images/task_images/rocket-09.jpg"",""time"":7588.799999982119}]",[],1,,,,,,,,,,,,,,
alien_welcome,71,354956,0.0-25.0-1.0,"""event"",""trial"",""time""
""fullscreenenter"",""1"",""4527""
","
","
","""event"",""trial"",""time""
""fullscreenenter"",""1"",""4527""
","
",,null,run_exp/static/images/task_images/aliens/old_aliens/planet/alien_planet-19.jpg,null,,,,,,,,,,,,,19,"21,19,14,6,3,33,73,52,36,77,23,41,49,43,60,56,40,51,37,71,16,45,13,42,25,67,61,7,65,76,39,50,32,27,29,62,10,54,26,44,72,59,22",,,,,,,,,,
land,72,355466,0.0-25.0-2.0,"""event"",""trial"",""time""
""fullscreenenter"",""1"",""4527""
","
","
","""event"",""trial"",""time""
""fullscreenenter"",""1"",""4527""
","
",,null,run_exp/static/images/task_images/land.jpg,null,,,,,,,96,,,2,,,,,,,,,,,,,,
dig,73,357486,0.0-25.0-3.0,"""event"",""trial"",""time""
""fullscreenenter"",""1"",""4527""
","
","
","""event"",""trial"",""time""
""fullscreenenter"",""1"",""4527""
","
",,,,,,,,,,,,"[{""stimulus"":""run_exp/static/images/task_images/dig.jpg"",""time"":0.19999998807907104},{""stimulus"":""run_exp/static/images/task_images/land.jpg"",""time"":670.8999999761581},{""stimulus"":""run_exp/static/images/task_images/dig.jpg"",""time"":1342.8999999761581}]",[],2,,,,,,,,,,,,,,
harvest,74,358489,0.0-25.0-4.0,"""event"",""trial"",""time""
""fullscreenenter"",""1"",""4527""
","
","
","""event"",""trial"",""time""
""fullscreenenter"",""1"",""4527""
","
",,null,run_exp/static/images/task_images/gems/96.jpg,null,,,,,,,18,,,2,,,,,96,0.182998961,0.1875,,,,,,,
decision,75,358503,0.0-25.0-5.0,"""event"",""trial"",""time""
""fullscreenenter"",""1"",""4527""
","
","
","""event"",""trial"",""time""
""fullscreenenter"",""1"",""4527""
","
",,12.59999999,run_exp/static/images/task_images/land.jpg,65,,,,,,,18,,,2,,,,,,,,31154,1,0,FALSE,,,
dig,76,361503,0.0-26.0-0.0,"""event"",""trial"",""time""
""fullscreenenter"",""1"",""4527""
","
","
","""event"",""trial"",""time""
""fullscreenenter"",""1"",""4527""
","
",,,,,,,,,,,,"[{""stimulus"":""run_exp/static/images/task_images/dig.jpg"",""time"":0.19999998807907104},{""stimulus"":""run_exp/static/images/task_images/land.jpg"",""time"":1008.5999999940395},{""stimulus"":""run_exp/static/images/task_images/dig.jpg"",""time"":2001.699999988079}]",[],2,,,,,,,,,,,,,,
harvest,77,362507,0.0-26.0-1.0,"""event"",""trial"",""time""
""fullscreenenter"",""1"",""4527""
","
","
","""event"",""trial"",""time""
""fullscreenenter"",""1"",""4527""
","
",,null,run_exp/static/images/task_images/gems/18.jpg,null,,,,,,,4,,,2,,,,,18,0.239341247,0.222222222,,,,,,,
decision,78,362608,0.0-26.0-2.0,"""event"",""trial"",""time""
""fullscreenenter"",""1"",""4527""
","
","
","""event"",""trial"",""time""
""fullscreenenter"",""1"",""4527""
","
",,99.90000001,run_exp/static/images/task_images/land.jpg,76,,,,,,,4,,,2,,,,,,,,35259,1,1,TRUE,,,
travel,79,372522,0.0-27.0-0.0,"""event"",""trial"",""time""
""fullscreenenter"",""1"",""4527""
","
","
","""event"",""trial"",""time""
""fullscreenenter"",""1"",""4527""
","
",,,,,,,,,,,,"[{""stimulus"":""run_exp/static/images/task_images/rocket-01.jpg"",""time"":0.20000001788139343},{""stimulus"":""run_exp/static/images/task_images/rocket-02.jpg"",""time"":1114.5999999940395},{""stimulus"":""run_exp/static/images/task_images/rocket-03.jpg"",""time"":2219.2000000178814},{""stimulus"":""run_exp/static/images/task_images/rocket-04.jpg"",""time"":3309.0999999940395},{""stimulus"":""run_exp/static/images/task_images/rocket-05.jpg"",""time"":4409.200000017881},{""stimulus"":""run_exp/static/images/task_images/rocket-06.jpg"",""time"":5516.5},{""stimulus"":""run_exp/static/images/task_images/rocket-07.jpg"",""time"":6615.800000011921},{""stimulus"":""run_exp/static/images/task_images/rocket-08.jpg"",""time"":7705.5999999940395},{""stimulus"":""run_exp/static/images/task_images/rocket-09.jpg"",""time"":8812.200000017881}]",[],2,,,,,,,,,,,,,,
alien_welcome,80,377530,0.0-27.0-1.0,"""event"",""trial"",""time""
""fullscreenenter"",""1"",""4527""
","
","
","""event"",""trial"",""time""
""fullscreenenter"",""1"",""4527""
","
",,null,run_exp/static/images/task_images/aliens/old_aliens/planet/alien_planet-14.jpg,null,,,,,,,,,,,,,14,"21,19,14,6,3,33,73,52,36,77,23,41,49,43,60,56,40,51,37,71,16,45,13,42,25,67,61,7,65,76,39,50,32,27,29,62,10,54,26,44,72,59,22",,,,,,,,,,
land,81,378047,0.0-27.0-2.0,"""event"",""trial"",""time""
""fullscreenenter"",""1"",""4527""
","
","
","""event"",""trial"",""time""
""fullscreenenter"",""1"",""4527""
","
",,null,run_exp/static/images/task_images/land.jpg,null,,,,,,,100,,,3,,,,,,,,,,,,,,
dig,82,380059,0.0-27.0-3.0,"""event"",""trial"",""time""
""fullscreenenter"",""1"",""4527""
","
","
","""event"",""trial"",""time""
""fullscreenenter"",""1"",""4527""
","
",,,,,,,,,,,,"[{""stimulus"":""run_exp/static/images/task_images/dig.jpg"",""time"":0.20000001788139343},{""stimulus"":""run_exp/static/images/task_images/land.jpg"",""time"":683},{""stimulus"":""run_exp/static/images/task_images/dig.jpg"",""time"":1341}]",[],3,,,,,,,,,,,,,,
harvest,83,381070,0.0-27.0-4.0,"""event"",""trial"",""time""
""fullscreenenter"",""1"",""4527""
","
","
","""event"",""trial"",""time""
""fullscreenenter"",""1"",""4527""
","
",,null,run_exp/static/images/task_images/gems/100.jpg,null,,,,,,,44,,,3,,,,,100,0.437124731,0.44,,,,,,,
decision,84,381131,0.0-27.0-5.0,"""event"",""trial"",""time""
""fullscreenenter"",""1"",""4527""
","
","
","""event"",""trial"",""time""
""fullscreenenter"",""1"",""4527""
","
",,61,run_exp/static/images/task_images/land.jpg,65,,,,,,,44,,,3,,,,,,,,53782,1,0,FALSE,,,
dig,85,384077,0.0-28.0-0.0,"""event"",""trial"",""time""
""fullscreenenter"",""1"",""4527""
","
","
","""event"",""trial"",""time""
""fullscreenenter"",""1"",""4527""
","
",,,,,,,,,,,,"[{""stimulus"":""run_exp/static/images/task_images/dig.jpg"",""time"":0.09999999403953552},{""stimulus"":""run_exp/static/images/task_images/land.jpg"",""time"":994.2999999821186},{""stimulus"":""run_exp/static/images/task_images/dig.jpg"",""time"":1966.2999999821186}]",[],3,,,,,,,,,,,,,,
harvest,86,385085,0.0-28.0-1.0,"""event"",""trial"",""time""
""fullscreenenter"",""1"",""4527""
","
","
","""event"",""trial"",""time""
""fullscreenenter"",""1"",""4527""
","
",,null,run_exp/static/images/task_images/gems/44.jpg,null,,,,,,,23,,,3,,,,,44,0.530839418,0.522727273,,,,,,,
decision,87,385088,0.0-28.0-2.0,"""event"",""trial"",""time""
""fullscreenenter"",""1"",""4527""
","
","
","""event"",""trial"",""time""
""fullscreenenter"",""1"",""4527""
","
",,1.700000018,run_exp/static/images/task_images/land.jpg,65,,,,,,,23,,,3,,,,,,,,57739,1,1,FALSE,,,
dig,88,388091,0.0-29.0-0.0,"""event"",""trial"",""time""
""fullscreenenter"",""1"",""4527""
","
","
","""event"",""trial"",""time""
""fullscreenenter"",""1"",""4527""
","
",,,,,,,,,,,,"[{""stimulus"":""run_exp/static/images/task_images/dig.jpg"",""time"":0.19999998807907104},{""stimulus"":""run_exp/static/images/task_images/land.jpg"",""time"":1016.7999999821186},{""stimulus"":""run_exp/static/images/task_images/dig.jpg"",""time"":2012}]",[],3,,,,,,,,,,,,,,
harvest,89,389098,0.0-29.0-1.0,"""event"",""trial"",""time""
""fullscreenenter"",""1"",""4527""
","
","
","""event"",""trial"",""time""
""fullscreenenter"",""1"",""4527""
","
",,null,run_exp/static/images/task_images/gems/23.jpg,null,,,,,,,12,,,3,,,,,23,0.520402244,0.52173913,,,,,,,
decision,90,389845,0.0-29.0-2.0,"""event"",""trial"",""time""
""fullscreenenter"",""1"",""4527""
","
","
","""event"",""trial"",""time""
""fullscreenenter"",""1"",""4527""
","
",,745.5,run_exp/static/images/task_images/land.jpg,76,,,,,,,12,,,3,,,,,,,,62496,1,2,TRUE,,,
travel,91,399119,0.0-30.0-0.0,"""event"",""trial"",""time""
""fullscreenenter"",""1"",""4527""
","
","
","""event"",""trial"",""time""
""fullscreenenter"",""1"",""4527""
","
",,,,,,,,,,,,"[{""stimulus"":""run_exp/static/images/task_images/rocket-01.jpg"",""time"":0.10000002384185791},{""stimulus"":""run_exp/static/images/task_images/rocket-02.jpg"",""time"":1044.2000000178814},{""stimulus"":""run_exp/static/images/task_images/rocket-03.jpg"",""time"":2067.2000000178814},{""stimulus"":""run_exp/static/images/task_images/rocket-04.jpg"",""time"":3094.800000011921},{""stimulus"":""run_exp/static/images/task_images/rocket-05.jpg"",""time"":4116.5},{""stimulus"":""run_exp/static/images/task_images/rocket-06.jpg"",""time"":5145.700000017881},{""stimulus"":""run_exp/static/images/task_images/rocket-07.jpg"",""time"":6184.700000017881},{""stimulus"":""run_exp/static/images/task_images/rocket-08.jpg"",""time"":7204.5},{""stimulus"":""run_exp/static/images/task_images/rocket-09.jpg"",""time"":8231.90000000596}]",[],3,,,,,,,,,,,,,,
alien_welcome,92,404128,0.0-30.0-1.0,"""event"",""trial"",""time""
""fullscreenenter"",""1"",""4527""
","
","
","""event"",""trial"",""time""
""fullscreenenter"",""1"",""4527""
","
",,null,run_exp/static/images/task_images/aliens/old_aliens/planet/alien_planet-6.jpg,null,,,,,,,,,,,,,6,"21,19,14,6,3,33,73,52,36,77,23,41,49,43,60,56,40,51,37,71,16,45,13,42,25,67,61,7,65,76,39,50,32,27,29,62,10,54,26,44,72,59,22",,,,,,,,,,
land,93,404640,0.0-30.0-2.0,"""event"",""trial"",""time""
""fullscreenenter"",""1"",""4527""
","
","
","""event"",""trial"",""time""
""fullscreenenter"",""1"",""4527""
","
",,null,run_exp/static/images/task_images/land.jpg,null,,,,,,,105,,,4,,,,,,,,,,,,,,
dig,94,406652,0.0-30.0-3.0,"""event"",""trial"",""time""
""fullscreenenter"",""1"",""4527""
","
","
","""event"",""trial"",""time""
""fullscreenenter"",""1"",""4527""
","
",,,,,,,,,,,,"[{""stimulus"":""run_exp/static/images/task_images/dig.jpg"",""time"":0.29999998211860657},{""stimulus"":""run_exp/static/images/task_images/land.jpg"",""time"":684.5},{""stimulus"":""run_exp/static/images/task_images/dig.jpg"",""time"":1342.8999999761581}]",[],4,,,,,,,,,,,,,,
harvest,95,407659,0.0-30.0-4.0,"""event"",""trial"",""time""
""fullscreenenter"",""1"",""4527""
","
","
","""event"",""trial"",""time""
""fullscreenenter"",""1"",""4527""
","
",,null,run_exp/static/images/task_images/gems/105.jpg,null,,,,,,,51,,,4,,,,,105,0.489951004,0.485714286,,,,,,,
decision,96,408543,0.0-30.0-5.0,"""event"",""trial"",""time""
""fullscreenenter"",""1"",""4527""
","
","
","""event"",""trial"",""time""
""fullscreenenter"",""1"",""4527""
","
",,882,run_exp/static/images/task_images/land.jpg,65,,,,,,,51,,,4,,,,,,,,81194,1,0,FALSE,,,
dig,97,410667,0.0-31.0-0.0,"""event"",""trial"",""time""
""fullscreenenter"",""1"",""4527""
","
","
","""event"",""trial"",""time""
""fullscreenenter"",""1"",""4527""
","
",,,,,,,,,,,,"[{""stimulus"":""run_exp/static/images/task_images/dig.jpg"",""time"":0.09999999403953552},{""stimulus"":""run_exp/static/images/task_images/land.jpg"",""time"":717.9000000059605},{""stimulus"":""run_exp/static/images/task_images/dig.jpg"",""time"":1421.2999999821186}]",[],4,,,,,,,,,,,,,,
harvest,98,411680,0.0-31.0-1.0,"""event"",""trial"",""time""
""fullscreenenter"",""1"",""4527""
","
","
","""event"",""trial"",""time""
""fullscreenenter"",""1"",""4527""
","
",,null,run_exp/static/images/task_images/gems/51.jpg,null,,,,,,,27,,,4,,,,,51,0.533028945,0.529411765,,,,,,,
decision,99,412653,0.0-31.0-2.0,"""event"",""trial"",""time""
""fullscreenenter"",""1"",""4527""
","
","
","""event"",""trial"",""time""
""fullscreenenter"",""1"",""4527""
","
",,972.1,run_exp/static/images/task_images/land.jpg,65,,,,,,,27,,,4,,,,,,,,85304,1,1,FALSE,,,
dig,100,414684,0.0-32.0-0.0,"""event"",""trial"",""time""
""fullscreenenter"",""1"",""4527""
","
","
","""event"",""trial"",""time""
""fullscreenenter"",""1"",""4527""
","
",,,,,,,,,,,,"[{""stimulus"":""run_exp/static/images/task_images/dig.jpg"",""time"":0.09999999403953552},{""stimulus"":""run_exp/static/images/task_images/land.jpg"",""time"":689},{""stimulus"":""run_exp/static/images/task_images/dig.jpg"",""time"":1357.3999999761581}]",[],4,,,,,,,,,,,,,,
harvest,101,415692,0.0-32.0-1.0,"""event"",""trial"",""time""
""fullscreenenter"",""1"",""4527""
","
","
","""event"",""trial"",""time""
""fullscreenenter"",""1"",""4527""
","
",,null,run_exp/static/images/task_images/gems/27.jpg,null,,,,,,,13,,,4,,,,,27,0.46963824,0.481481481,,,,,,,
decision,102,417655,0.0-32.0-2.0,"""event"",""trial"",""time""
""fullscreenenter"",""1"",""4527""
","
","
","""event"",""trial"",""time""
""fullscreenenter"",""1"",""4527""
","
",,1961.7,run_exp/static/images/task_images/land.jpg,65,,,,,,,13,,,4,,,,,,,,90306,1,2,FALSE,,,
dig,103,418701,0.0-33.0-0.0,"""event"",""trial"",""time""
""fullscreenenter"",""1"",""4527""
","
","
","""event"",""trial"",""time""
""fullscreenenter"",""1"",""4527""
","
",,,,,,,,,,,,"[{""stimulus"":""run_exp/static/images/task_images/dig.jpg"",""time"":0.20000001788139343},{""stimulus"":""run_exp/static/images/task_images/land.jpg"",""time"":355},{""stimulus"":""run_exp/static/images/task_images/dig.jpg"",""time"":711}]",[],4,,,,,,,,,,,,,,
harvest,104,419708,0.0-33.0-1.0,"""event"",""trial"",""time""
""fullscreenenter"",""1"",""4527""
","
","
","""event"",""trial"",""time""
""fullscreenenter"",""1"",""4527""
","
",,null,run_exp/static/images/task_images/gems/13.jpg,null,,,,,,,7,,,4,,,,,13,0.520037529,0.538461538,,,,,,,
decision,105,420855,0.0-33.0-2.0,"""event"",""trial"",""time""
""fullscreenenter"",""1"",""4527""
","
","
","""event"",""trial"",""time""
""fullscreenenter"",""1"",""4527""
","
",,1146,run_exp/static/images/task_images/land.jpg,76,,,,,,,7,,,4,,,,,,,,93506,1,3,TRUE,,,
travel,106,429709,0.0-34.0-0.0,"""event"",""trial"",""time""
""fullscreenenter"",""1"",""4527""
","
","
","""event"",""trial"",""time""
""fullscreenenter"",""1"",""4527""
","
",,,,,,,,,,,,"[{""stimulus"":""run_exp/static/images/task_images/rocket-01.jpg"",""time"":0.09999999403953552},{""stimulus"":""run_exp/static/images/task_images/rocket-02.jpg"",""time"":995.2000000178814},{""stimulus"":""run_exp/static/images/task_images/rocket-03.jpg"",""time"":1974.300000011921},{""stimulus"":""run_exp/static/images/task_images/rocket-04.jpg"",""time"":2965},{""stimulus"":""run_exp/static/images/task_images/rocket-05.jpg"",""time"":3943.0999999940395},{""stimulus"":""run_exp/static/images/task_images/rocket-06.jpg"",""time"":4930.800000011921},{""stimulus"":""run_exp/static/images/task_images/rocket-07.jpg"",""time"":5909.0999999940395},{""stimulus"":""run_exp/static/images/task_images/rocket-08.jpg"",""time"":6882.5},{""stimulus"":""run_exp/static/images/task_images/rocket-09.jpg"",""time"":7874.5}]",[],4,,,,,,,,,,,,,,
alien_welcome,107,434719,0.0-34.0-1.0,"""event"",""trial"",""time""
""fullscreenenter"",""1"",""4527""
","
","
","""event"",""trial"",""time""
""fullscreenenter"",""1"",""4527""
","
",,null,run_exp/static/images/task_images/aliens/old_aliens/planet/alien_planet-3.jpg,null,,,,,,,,,,,,,3,"21,19,14,6,3,33,73,52,36,77,23,41,49,43,60,56,40,51,37,71,16,45,13,42,25,67,61,7,65,76,39,50,32,27,29,62,10,54,26,44,72,59,22",,,,,,,,,,
land,108,435233,0.0-34.0-2.0,"""event"",""trial"",""time""
""fullscreenenter"",""1"",""4527""
","
","
","""event"",""trial"",""time""
""fullscreenenter"",""1"",""4527""
","
",,null,run_exp/static/images/task_images/land.jpg,null,,,,,,,108,,,5,,,,,,,,,,,,,,
dig,109,437244,0.0-34.0-3.0,"""event"",""trial"",""time""
""fullscreenenter"",""1"",""4527""
","
","
","""event"",""trial"",""time""
""fullscreenenter"",""1"",""4527""
","
",,,,,,,,,,,,"[{""stimulus"":""run_exp/static/images/task_images/dig.jpg"",""time"":0.20000001788139343},{""stimulus"":""run_exp/static/images/task_images/land.jpg"",""time"":687.0999999940395},{""stimulus"":""run_exp/static/images/task_images/dig.jpg"",""time"":1339.0999999940395}]",[],5,,,,,,,,,,,,,,
harvest,110,438253,0.0-34.0-4.0,"""event"",""trial"",""time""
""fullscreenenter"",""1"",""4527""
","
","
","""event"",""trial"",""time""
""fullscreenenter"",""1"",""4527""
","
",,null,run_exp/static/images/task_images/gems/108.jpg,null,,,,,,,63,,,5,,,,,108,0.580890889,0.583333333,,,,,,,
decision,111,438812,0.0-34.0-5.0,"""event"",""trial"",""time""
""fullscreenenter"",""1"",""4527""
","
","
","""event"",""trial"",""time""
""fullscreenenter"",""1"",""4527""
","
",,558.2,run_exp/static/images/task_images/land.jpg,65,,,,,,,63,,,5,,,,,,,,111463,1,0,FALSE,,,
dig,112,441263,0.0-35.0-0.0,"""event"",""trial"",""time""
""fullscreenenter"",""1"",""4527""
","
","
","""event"",""trial"",""time""
""fullscreenenter"",""1"",""4527""
","
",,,,,,,,,,,,"[{""stimulus"":""run_exp/static/images/task_images/dig.jpg"",""time"":0.19999998807907104},{""stimulus"":""run_exp/static/images/task_images/land.jpg"",""time"":818.1999999880791},{""stimulus"":""run_exp/static/images/task_images/dig.jpg"",""time"":1634.199999988079}]",[],5,,,,,,,,,,,,,,
harvest,113,442268,0.0-35.0-1.0,"""event"",""trial"",""time""
""fullscreenenter"",""1"",""4527""
","
","
","""event"",""trial"",""time""
""fullscreenenter"",""1"",""4527""
","
",,null,run_exp/static/images/task_images/gems/63.jpg,null,,,,,,,34,,,5,,,,,63,0.538382498,0.53968254,,,,,,,
decision,114,442749,0.0-35.0-2.0,"""event"",""trial"",""time""
""fullscreenenter"",""1"",""4527""
","
","
","""event"",""trial"",""time""
""fullscreenenter"",""1"",""4527""
","
",,479.6,run_exp/static/images/task_images/land.jpg,65,,,,,,,34,,,5,,,,,,,,115400,1,1,FALSE,,,
dig,115,445276,0.0-36.0-0.0,"""event"",""trial"",""time""
""fullscreenenter"",""1"",""4527""
","
","
","""event"",""trial"",""time""
""fullscreenenter"",""1"",""4527""
","
",,,,,,,,,,,,"[{""stimulus"":""run_exp/static/images/task_images/dig.jpg"",""time"":0.10000002384185791},{""stimulus"":""run_exp/static/images/task_images/land.jpg"",""time"":845.9000000059605},{""stimulus"":""run_exp/static/images/task_images/dig.jpg"",""time"":1697.7000000178814}]",[],5,,,,,,,,,,,,,,
harvest,116,446285,0.0-36.0-1.0,"""event"",""trial"",""time""
""fullscreenenter"",""1"",""4527""
","
","
","""event"",""trial"",""time""
""fullscreenenter"",""1"",""4527""
","
",,null,run_exp/static/images/task_images/gems/34.jpg,null,,,,,,,17,,,5,,,,,34,0.504919811,0.5,,,,,,,
decision,117,446741,0.0-36.0-2.0,"""event"",""trial"",""time""
""fullscreenenter"",""1"",""4527""
","
","
","""event"",""trial"",""time""
""fullscreenenter"",""1"",""4527""
","
",,454.6,run_exp/static/images/task_images/land.jpg,76,,,,,,,17,,,5,,,,,,,,119392,1,2,TRUE,,,
travel,118,456366,0.0-37.0-0.0,"""event"",""trial"",""time""
""fullscreenenter"",""1"",""4527""
","
","
","""event"",""trial"",""time""
""fullscreenenter"",""1"",""4527""
","
",,,,,,,,,,,,"[{""stimulus"":""run_exp/static/images/task_images/rocket-01.jpg"",""time"":0.20000001788139343},{""stimulus"":""run_exp/static/images/task_images/rocket-02.jpg"",""time"":1066.0999999940395},{""stimulus"":""run_exp/static/images/task_images/rocket-03.jpg"",""time"":2133.800000011921},{""stimulus"":""run_exp/static/images/task_images/rocket-04.jpg"",""time"":3189.0999999940395},{""stimulus"":""run_exp/static/images/task_images/rocket-05.jpg"",""time"":4245},{""stimulus"":""run_exp/static/images/task_images/rocket-06.jpg"",""time"":5302.5},{""stimulus"":""run_exp/static/images/task_images/rocket-07.jpg"",""time"":6374},{""stimulus"":""run_exp/static/images/task_images/rocket-08.jpg"",""time"":7434.200000017881},{""stimulus"":""run_exp/static/images/task_images/rocket-09.jpg"",""time"":8484.90000000596}]",[],5,,,,,,,,,,,,,,
alien_welcome,119,461374,0.0-37.0-1.0,"""event"",""trial"",""time""
""fullscreenenter"",""1"",""4527""
","
","
","""event"",""trial"",""time""
""fullscreenenter"",""1"",""4527""
","
",,null,run_exp/static/images/task_images/aliens/old_aliens/planet/alien_planet-33.jpg,null,,,,,,,,,,,,,33,"21,19,14,6,3,33,73,52,36,77,23,41,49,43,60,56,40,51,37,71,16,45,13,42,25,67,61,7,65,76,39,50,32,27,29,62,10,54,26,44,72,59,22",,,,,,,,,,
land,120,461886,0.0-37.0-2.0,"""event"",""trial"",""time""
""fullscreenenter"",""1"",""4527""
","
","
","""event"",""trial"",""time""
""fullscreenenter"",""1"",""4527""
","
",,null,run_exp/static/images/task_images/land.jpg,null,,,,,,,104,,,6,,,,,,,,,,,,,,
dig,121,463902,0.0-37.0-3.0,"""event"",""trial"",""time""
""fullscreenenter"",""1"",""4527""
","
","
","""event"",""trial"",""time""
""fullscreenenter"",""1"",""4527""
","
",,,,,,,,,,,,"[{""stimulus"":""run_exp/static/images/task_images/dig.jpg"",""time"":0.30000001192092896},{""stimulus"":""run_exp/static/images/task_images/land.jpg"",""time"":671.1000000238419},{""stimulus"":""run_exp/static/images/task_images/dig.jpg"",""time"":1344.800000011921}]",[],6,,,,,,,,,,,,,,
harvest,122,464910,0.0-37.0-4.0,"""event"",""trial"",""time""
""fullscreenenter"",""1"",""4527""
","
","
","""event"",""trial"",""time""
""fullscreenenter"",""1"",""4527""
","
",,null,run_exp/static/images/task_images/gems/104.jpg,null,,,,,,,81,,,6,,,,,104,0.774650619,0.778846154,,,,,,,
decision,123,465191,0.0-37.0-5.0,"""event"",""trial"",""time""
""fullscreenenter"",""1"",""4527""
","
","
","""event"",""trial"",""time""
""fullscreenenter"",""1"",""4527""
","
",,279.9,run_exp/static/images/task_images/land.jpg,65,,,,,,,81,,,6,,,,,,,,137842,1,0,FALSE,,,
dig,124,467918,0.0-38.0-0.0,"""event"",""trial"",""time""
""fullscreenenter"",""1"",""4527""
","
","
","""event"",""trial"",""time""
""fullscreenenter"",""1"",""4527""
","
",,,,,,,,,,,,"[{""stimulus"":""run_exp/static/images/task_images/dig.jpg"",""time"":0.30000001192092896},{""stimulus"":""run_exp/static/images/task_images/land.jpg"",""time"":915.4000000059605},{""stimulus"":""run_exp/static/images/task_images/dig.jpg"",""time"":1827.300000011921}]",[],6,,,,,,,,,,,,,,
harvest,125,468926,0.0-38.0-1.0,"""event"",""trial"",""time""
""fullscreenenter"",""1"",""4527""
","
","
","""event"",""trial"",""time""
""fullscreenenter"",""1"",""4527""
","
",,null,run_exp/static/images/task_images/gems/81.jpg,null,,,,,,,75,,,6,,,,,81,0.925504792,0.925925926,,,,,,,
decision,126,469066,0.0-38.0-2.0,"""event"",""trial"",""time""
""fullscreenenter"",""1"",""4527""
","
","
","""event"",""trial"",""time""
""fullscreenenter"",""1"",""4527""
","
",,139.1,run_exp/static/images/task_images/land.jpg,65,,,,,,,75,,,6,,,,,,,,141717,1,1,FALSE,,,
dig,127,471933,0.0-39.0-0.0,"""event"",""trial"",""time""
""fullscreenenter"",""1"",""4527""
","
","
","""event"",""trial"",""time""
""fullscreenenter"",""1"",""4527""
","
",,,,,,,,,,,,"[{""stimulus"":""run_exp/static/images/task_images/dig.jpg"",""time"":0.09999999403953552},{""stimulus"":""run_exp/static/images/task_images/land.jpg"",""time"":960.9000000059605},{""stimulus"":""run_exp/static/images/task_images/dig.jpg"",""time"":1925.699999988079}]",[],6,,,,,,,,,,,,,,
harvest,128,472946,0.0-39.0-1.0,"""event"",""trial"",""time""
""fullscreenenter"",""1"",""4527""
","
","
","""event"",""trial"",""time""
""fullscreenenter"",""1"",""4527""
","
",,null,run_exp/static/images/task_images/gems/75.jpg,null,,,,,,,65,,,6,,,,,75,0.862277334,0.866666667,,,,,,,
decision,129,472997,0.0-39.0-2.0,"""event"",""trial"",""time""
""fullscreenenter"",""1"",""4527""
","
","
","""event"",""trial"",""time""
""fullscreenenter"",""1"",""4527""
","
",,49.90000001,run_exp/static/images/task_images/land.jpg,65,,,,,,,65,,,6,,,,,,,,145648,1,2,FALSE,,,
dig,130,475970,0.0-40.0-0.0,"""event"",""trial"",""time""
""fullscreenenter"",""1"",""4527""
","
","
","""event"",""trial"",""time""
""fullscreenenter"",""1"",""4527""
","
",,,,,,,,,,,,"[{""stimulus"":""run_exp/static/images/task_images/dig.jpg"",""time"":0.19999998807907104},{""stimulus"":""run_exp/static/images/task_images/land.jpg"",""time"":999.0999999940395},{""stimulus"":""run_exp/static/images/task_images/dig.jpg"",""time"":1975.4000000059605}]",[],6,,,,,,,,,,,,,,
harvest,131,476974,0.0-40.0-1.0,"""event"",""trial"",""time""
""fullscreenenter"",""1"",""4527""
","
","
","""event"",""trial"",""time""
""fullscreenenter"",""1"",""4527""
","
",,null,run_exp/static/images/task_images/gems/65.jpg,null,,,,,,,52,,,6,,,,,65,0.798171983,0.8,,,,,,,
decision,132,479291,0.0-40.0-2.0,"""event"",""trial"",""time""
""fullscreenenter"",""1"",""4527""
","
","
","""event"",""trial"",""time""
""fullscreenenter"",""1"",""4527""
","
",,2315.8,run_exp/static/images/task_images/land.jpg,65,,,,,,,52,,,6,,,,,,,,151942,1,3,FALSE,,,
dig,133,479986,0.0-41.0-0.0,"""event"",""trial"",""time""
""fullscreenenter"",""1"",""4527""
","
","
","""event"",""trial"",""time""
""fullscreenenter"",""1"",""4527""
","
",,,,,,,,,,,,"[{""stimulus"":""run_exp/static/images/task_images/dig.jpg"",""time"":0.20000001788139343},{""stimulus"":""run_exp/static/images/task_images/land.jpg"",""time"":240.80000001192093},{""stimulus"":""run_exp/static/images/task_images/dig.jpg"",""time"":465.59999999403954}]",[],6,,,,,,,,,,,,,,
harvest,134,480994,0.0-41.0-1.0,"""event"",""trial"",""time""
""fullscreenenter"",""1"",""4527""
","
","
","""event"",""trial"",""time""
""fullscreenenter"",""1"",""4527""
","
",,null,run_exp/static/images/task_images/gems/52.jpg,null,,,,,,,42,,,6,,,,,52,0.799217033,0.807692308,,,,,,,
decision,135,481442,0.0-41.0-2.0,"""event"",""trial"",""time""
""fullscreenenter"",""1"",""4527""
","
","
","""event"",""trial"",""time""
""fullscreenenter"",""1"",""4527""
","
",,446.8,run_exp/static/images/task_images/land.jpg,65,,,,,,,42,,,6,,,,,,,,154093,1,4,FALSE,,,
dig,136,484018,0.0-42.0-0.0,"""event"",""trial"",""time""
""fullscreenenter"",""1"",""4527""
","
","
","""event"",""trial"",""time""
""fullscreenenter"",""1"",""4527""
","
",,,,,,,,,,,,"[{""stimulus"":""run_exp/static/images/task_images/dig.jpg"",""time"":0.09999999403953552},{""stimulus"":""run_exp/static/images/task_images/land.jpg"",""time"":861.8999999761581},{""stimulus"":""run_exp/static/images/task_images/dig.jpg"",""time"":1709.8999999761581}]",[],6,,,,,,,,,,,,,,
harvest,137,485023,0.0-42.0-1.0,"""event"",""trial"",""time""
""fullscreenenter"",""1"",""4527""
","
","
","""event"",""trial"",""time""
""fullscreenenter"",""1"",""4527""
","
",,null,run_exp/static/images/task_images/gems/42.jpg,null,,,,,,,32,,,6,,,,,42,0.765296676,0.761904762,,,,,,,
decision,138,485144,0.0-42.0-2.0,"""event"",""trial"",""time""
""fullscreenenter"",""1"",""4527""
","
","
","""event"",""trial"",""time""
""fullscreenenter"",""1"",""4527""
","
",,120.5,run_exp/static/images/task_images/land.jpg,65,,,,,,,32,,,6,,,,,,,,157795,1,5,FALSE,,,
dig,139,488029,0.0-43.0-0.0,"""event"",""trial"",""time""
""fullscreenenter"",""1"",""4527""
","
","
","""event"",""trial"",""time""
""fullscreenenter"",""1"",""4527""
","
",,,,,,,,,,,,"[{""stimulus"":""run_exp/static/images/task_images/dig.jpg"",""time"":0.10000002384185791},{""stimulus"":""run_exp/static/images/task_images/land.jpg"",""time"":968.1000000238419},{""stimulus"":""run_exp/static/images/task_images/dig.jpg"",""time"":1924.9000000059605}]",[],6,,,,,,,,,,,,,,
harvest,140,489041,0.0-43.0-1.0,"""event"",""trial"",""time""
""fullscreenenter"",""1"",""4527""
","
","
","""event"",""trial"",""time""
""fullscreenenter"",""1"",""4527""
","
",,null,run_exp/static/images/task_images/gems/32.jpg,null,,,,,,,28,,,6,,,,,32,0.881497927,0.875,,,,,,,
decision,141,489245,0.0-43.0-2.0,"""event"",""trial"",""time""
""fullscreenenter"",""1"",""4527""
","
","
","""event"",""trial"",""time""
""fullscreenenter"",""1"",""4527""
","
",,203.4,run_exp/static/images/task_images/land.jpg,65,,,,,,,28,,,6,,,,,,,,161896,1,6,FALSE,,,
dig,142,492047,0.0-44.0-0.0,"""event"",""trial"",""time""
""fullscreenenter"",""1"",""4527""
","
","
","""event"",""trial"",""time""
""fullscreenenter"",""1"",""4527""
","
",,,,,,,,,,,,"[{""stimulus"":""run_exp/static/images/task_images/dig.jpg"",""time"":0.09999999403953552},{""stimulus"":""run_exp/static/images/task_images/land.jpg"",""time"":947.1999999880791},{""stimulus"":""run_exp/static/images/task_images/dig.jpg"",""time"":1873.9000000059605}]",[],6,,,,,,,,,,,,,,
harvest,143,493059,0.0-44.0-1.0,"""event"",""trial"",""time""
""fullscreenenter"",""1"",""4527""
","
","
","""event"",""trial"",""time""
""fullscreenenter"",""1"",""4527""
","
",,null,run_exp/static/images/task_images/gems/28.jpg,null,,,,,,,24,,,6,,,,,28,0.840568765,0.857142857,,,,,,,
decision,144,493833,0.0-44.0-2.0,"""event"",""trial"",""time""
""fullscreenenter"",""1"",""4527""
","
","
","""event"",""trial"",""time""
""fullscreenenter"",""1"",""4527""
","
",,773,run_exp/static/images/task_images/land.jpg,76,,,,,,,24,,,6,,,,,,,,166484,1,7,TRUE,,,
travel,145,503070,0.0-45.0-0.0,"""event"",""trial"",""time""
""fullscreenenter"",""1"",""4527""
","
","
","""event"",""trial"",""time""
""fullscreenenter"",""1"",""4527""
","
",,,,,,,,,,,,"[{""stimulus"":""run_exp/static/images/task_images/rocket-01.jpg"",""time"":0.09999999403953552},{""stimulus"":""run_exp/static/images/task_images/rocket-02.jpg"",""time"":1027.7999999821186},{""stimulus"":""run_exp/static/images/task_images/rocket-03.jpg"",""time"":2070.7999999821186},{""stimulus"":""run_exp/static/images/task_images/rocket-04.jpg"",""time"":3092},{""stimulus"":""run_exp/static/images/task_images/rocket-05.jpg"",""time"":4119.799999982119},{""stimulus"":""run_exp/static/images/task_images/rocket-06.jpg"",""time"":5142.899999976158},{""stimulus"":""run_exp/static/images/task_images/rocket-07.jpg"",""time"":6168},{""stimulus"":""run_exp/static/images/task_images/rocket-08.jpg"",""time"":7192},{""stimulus"":""run_exp/static/images/task_images/rocket-09.jpg"",""time"":8215.09999999404}]",[],6,,,,,,,,,,,,,,
alien_welcome,146,508083,0.0-45.0-1.0,"""event"",""trial"",""time""
""fullscreenenter"",""1"",""4527""
","
","
","""event"",""trial"",""time""
""fullscreenenter"",""1"",""4527""
","
",,null,run_exp/static/images/task_images/aliens/old_aliens/planet/alien_planet-73.jpg,null,,,,,,,,,,,,,73,"21,19,14,6,3,33,73,52,36,77,23,41,49,43,60,56,40,51,37,71,16,45,13,42,25,67,61,7,65,76,39,50,32,27,29,62,10,54,26,44,72,59,22",,,,,,,,,,
land,147,508591,0.0-45.0-2.0,"""event"",""trial"",""time""
""fullscreenenter"",""1"",""4527""
","
","
","""event"",""trial"",""time""
""fullscreenenter"",""1"",""4527""
","
",,null,run_exp/static/images/task_images/land.jpg,null,,,,,,,104,,,7,,,,,,,,,,,,,,
dig,148,510608,0.0-45.0-3.0,"""event"",""trial"",""time""
""fullscreenenter"",""1"",""4527""
","
","
","""event"",""trial"",""time""
""fullscreenenter"",""1"",""4527""
","
",,,,,,,,,,,,"[{""stimulus"":""run_exp/static/images/task_images/dig.jpg"",""time"":0.19999998807907104},{""stimulus"":""run_exp/static/images/task_images/land.jpg"",""time"":671.0999999940395},{""stimulus"":""run_exp/static/images/task_images/dig.jpg"",""time"":1345.2999999821186}]",[],7,,,,,,,,,,,,,,
harvest,149,511617,0.0-45.0-4.0,"""event"",""trial"",""time""
""fullscreenenter"",""1"",""4527""
","
","
","""event"",""trial"",""time""
""fullscreenenter"",""1"",""4527""
","
",,null,run_exp/static/images/task_images/gems/104.jpg,null,,,,,,,85,,,7,,,,,104,0.813692659,0.817307692,,,,,,,
decision,150,511695,0.0-45.0-5.0,"""event"",""trial"",""time""
""fullscreenenter"",""1"",""4527""
","
","
","""event"",""trial"",""time""
""fullscreenenter"",""1"",""4527""
","
",,77.09999999,run_exp/static/images/task_images/land.jpg,65,,,,,,,85,,,7,,,,,,,,184346,1,0,FALSE,,,
dig,151,514627,0.0-46.0-0.0,"""event"",""trial"",""time""
""fullscreenenter"",""1"",""4527""
","
","
","""event"",""trial"",""time""
""fullscreenenter"",""1"",""4527""
","
",,,,,,,,,,,,"[{""stimulus"":""run_exp/static/images/task_images/dig.jpg"",""time"":0.09999999403953552},{""stimulus"":""run_exp/static/images/task_images/land.jpg"",""time"":992.2999999821186},{""stimulus"":""run_exp/static/images/task_images/dig.jpg"",""time"":1969.7999999821186}]",[],7,,,,,,,,,,,,,,
harvest,152,515634,0.0-46.0-1.0,"""event"",""trial"",""time""
""fullscreenenter"",""1"",""4527""
","
","
","""event"",""trial"",""time""
""fullscreenenter"",""1"",""4527""
","
",,null,run_exp/static/images/task_images/gems/85.jpg,null,,,,,,,62,,,7,,,,,85,0.733884738,0.729411765,,,,,,,
decision,153,516182,0.0-46.0-2.0,"""event"",""trial"",""time""
""fullscreenenter"",""1"",""4527""
","
","
","""event"",""trial"",""time""
""fullscreenenter"",""1"",""4527""
","
",,546.6,run_exp/static/images/task_images/land.jpg,65,,,,,,,62,,,7,,,,,,,,188833,1,1,FALSE,,,
dig,154,518639,0.0-47.0-0.0,"""event"",""trial"",""time""
""fullscreenenter"",""1"",""4527""
","
","
","""event"",""trial"",""time""
""fullscreenenter"",""1"",""4527""
","
",,,,,,,,,,,,"[{""stimulus"":""run_exp/static/images/task_images/dig.jpg"",""time"":0.09999999403953552},{""stimulus"":""run_exp/static/images/task_images/land.jpg"",""time"":826.1999999880791},{""stimulus"":""run_exp/static/images/task_images/dig.jpg"",""time"":1641.199999988079}]",[],7,,,,,,,,,,,,,,
harvest,155,519651,0.0-47.0-1.0,"""event"",""trial"",""time""
""fullscreenenter"",""1"",""4527""
","
","
","""event"",""trial"",""time""
""fullscreenenter"",""1"",""4527""
","
",,null,run_exp/static/images/task_images/gems/62.jpg,null,,,,,,,50,,,7,,,,,62,0.810693497,0.806451613,,,,,,,
decision,156,519838,0.0-47.0-2.0,"""event"",""trial"",""time""
""fullscreenenter"",""1"",""4527""
","
","
","""event"",""trial"",""time""
""fullscreenenter"",""1"",""4527""
","
",,185.1,run_exp/static/images/task_images/land.jpg,65,,,,,,,50,,,7,,,,,,,,192489,1,2,FALSE,,,
dig,157,522656,0.0-48.0-0.0,"""event"",""trial"",""time""
""fullscreenenter"",""1"",""4527""
","
","
","""event"",""trial"",""time""
""fullscreenenter"",""1"",""4527""
","
",,,,,,,,,,,,"[{""stimulus"":""run_exp/static/images/task_images/dig.jpg"",""time"":0.10000002384185791},{""stimulus"":""run_exp/static/images/task_images/land.jpg"",""time"":943.7000000178814},{""stimulus"":""run_exp/static/images/task_images/dig.jpg"",""time"":1891.9000000059605}]",[],7,,,,,,,,,,,,,,
harvest,158,523660,0.0-48.0-1.0,"""event"",""trial"",""time""
""fullscreenenter"",""1"",""4527""
","
","
","""event"",""trial"",""time""
""fullscreenenter"",""1"",""4527""
","
",,null,run_exp/static/images/task_images/gems/50.jpg,null,,,,,,,38,,,7,,,,,50,0.764473464,0.76,,,,,,,
decision,159,524652,0.0-48.0-2.0,"""event"",""trial"",""time""
""fullscreenenter"",""1"",""4527""
","
","
","""event"",""trial"",""time""
""fullscreenenter"",""1"",""4527""
","
",,990.8,run_exp/static/images/task_images/land.jpg,65,,,,,,,38,,,7,,,,,,,,197303,1,3,FALSE,,,
dig,160,526676,0.0-49.0-0.0,"""event"",""trial"",""time""
""fullscreenenter"",""1"",""4527""
","
","
","""event"",""trial"",""time""
""fullscreenenter"",""1"",""4527""
","
",,,,,,,,,,,,"[{""stimulus"":""run_exp/static/images/task_images/dig.jpg"",""time"":0.19999998807907104},{""stimulus"":""run_exp/static/images/task_images/land.jpg"",""time"":677.6999999880791},{""stimulus"":""run_exp/static/images/task_images/dig.jpg"",""time"":1345.699999988079}]",[],7,,,,,,,,,,,,,,
harvest,161,527680,0.0-49.0-1.0,"""event"",""trial"",""time""
""fullscreenenter"",""1"",""4527""
","
","
","""event"",""trial"",""time""
""fullscreenenter"",""1"",""4527""
","
",,null,run_exp/static/images/task_images/gems/38.jpg,null,,,,,,,29,,,7,,,,,38,0.754903173,0.763157895,,,,,,,
decision,162,527764,0.0-49.0-2.0,"""event"",""trial"",""time""
""fullscreenenter"",""1"",""4527""
","
","
","""event"",""trial"",""time""
""fullscreenenter"",""1"",""4527""
","
",,83,run_exp/static/images/task_images/land.jpg,65,,,,,,,29,,,7,,,,,,,,200415,1,4,FALSE,,,
dig,163,530690,0.0-50.0-0.0,"""event"",""trial"",""time""
""fullscreenenter"",""1"",""4527""
","
","
","""event"",""trial"",""time""
""fullscreenenter"",""1"",""4527""
","
",,,,,,,,,,,,"[{""stimulus"":""run_exp/static/images/task_images/dig.jpg"",""time"":0.09999999403953552},{""stimulus"":""run_exp/static/images/task_images/land.jpg"",""time"":984.4000000059605},{""stimulus"":""run_exp/static/images/task_images/dig.jpg"",""time"":1962.9000000059605}]",[],7,,,,,,,,,,,,,,
harvest,164,531692,0.0-50.0-1.0,"""event"",""trial"",""time""
""fullscreenenter"",""1"",""4527""
","
","
","""event"",""trial"",""time""
""fullscreenenter"",""1"",""4527""
","
",,null,run_exp/static/images/task_images/gems/29.jpg,null,,,,,,,23,,,7,,,,,29,0.781956437,0.793103448,,,,,,,
decision,165,532454,0.0-50.0-2.0,"""event"",""trial"",""time""
""fullscreenenter"",""1"",""4527""
","
","
","""event"",""trial"",""time""
""fullscreenenter"",""1"",""4527""
","
",,761,run_exp/static/images/task_images/land.jpg,65,,,,,,,23,,,7,,,,,,,,205105,1,5,FALSE,,,
dig,166,534708,0.0-51.0-0.0,"""event"",""trial"",""time""
""fullscreenenter"",""1"",""4527""
","
","
","""event"",""trial"",""time""
""fullscreenenter"",""1"",""4527""
","
",,,,,,,,,,,,"[{""stimulus"":""run_exp/static/images/task_images/dig.jpg"",""time"":0.09999999403953552},{""stimulus"":""run_exp/static/images/task_images/land.jpg"",""time"":763.6999999880791},{""stimulus"":""run_exp/static/images/task_images/dig.jpg"",""time"":1497.5999999940395}]",[],7,,,,,,,,,,,,,,
harvest,167,535716,0.0-51.0-1.0,"""event"",""trial"",""time""
""fullscreenenter"",""1"",""4527""
","
","
","""event"",""trial"",""time""
""fullscreenenter"",""1"",""4527""
","
",,null,run_exp/static/images/task_images/gems/23.jpg,null,,,,,,,18,,,7,,,,,23,0.777806052,0.782608696,,,,,,,
decision,168,536070,0.0-51.0-2.0,"""event"",""trial"",""time""
""fullscreenenter"",""1"",""4527""
","
","
","""event"",""trial"",""time""
""fullscreenenter"",""1"",""4527""
","
",,352.9,run_exp/static/images/task_images/land.jpg,76,,,,,,,18,,,7,,,,,,,,208721,1,6,TRUE,,,
travel,169,545728,0.0-52.0-0.0,"""event"",""trial"",""time""
""fullscreenenter"",""1"",""4527""
","
","
","""event"",""trial"",""time""
""fullscreenenter"",""1"",""4527""
","
",,,,,,,,,,,,"[{""stimulus"":""run_exp/static/images/task_images/rocket-01.jpg"",""time"":0.19999998807907104},{""stimulus"":""run_exp/static/images/task_images/rocket-02.jpg"",""time"":1083.699999988079},{""stimulus"":""run_exp/static/images/task_images/rocket-03.jpg"",""time"":2154},{""stimulus"":""run_exp/static/images/task_images/rocket-04.jpg"",""time"":3223.5999999940395},{""stimulus"":""run_exp/static/images/task_images/rocket-05.jpg"",""time"":4295.300000011921},{""stimulus"":""run_exp/static/images/task_images/rocket-06.jpg"",""time"":5366.4000000059605},{""stimulus"":""run_exp/static/images/task_images/rocket-07.jpg"",""time"":6441.0999999940395},{""stimulus"":""run_exp/static/images/task_images/rocket-08.jpg"",""time"":7515.699999988079},{""stimulus"":""run_exp/static/images/task_images/rocket-09.jpg"",""time"":8587.300000011921}]",[],7,,,,,,,,,,,,,,
alien_welcome,170,550740,0.0-52.0-1.0,"""event"",""trial"",""time""
""fullscreenenter"",""1"",""4527""
","
","
","""event"",""trial"",""time""
""fullscreenenter"",""1"",""4527""
","
",,null,run_exp/static/images/task_images/aliens/old_aliens/planet/alien_planet-52.jpg,null,,,,,,,,,,,,,52,"21,19,14,6,3,33,73,52,36,77,23,41,49,43,60,56,40,51,37,71,16,45,13,42,25,67,61,7,65,76,39,50,32,27,29,62,10,54,26,44,72,59,22",,,,,,,,,,
land,171,551248,0.0-52.0-2.0,"""event"",""trial"",""time""
""fullscreenenter"",""1"",""4527""
","
","
","""event"",""trial"",""time""
""fullscreenenter"",""1"",""4527""
","
",,null,run_exp/static/images/task_images/land.jpg,null,,,,,,,105,,,8,,,,,,,,,,,,,,
dig,172,553266,0.0-52.0-3.0,"""event"",""trial"",""time""
""fullscreenenter"",""1"",""4527""
","
","
","""event"",""trial"",""time""
""fullscreenenter"",""1"",""4527""
","
",,,,,,,,,,,,"[{""stimulus"":""run_exp/static/images/task_images/dig.jpg"",""time"":0.29999998211860657},{""stimulus"":""run_exp/static/images/task_images/land.jpg"",""time"":674.8999999761581},{""stimulus"":""run_exp/static/images/task_images/dig.jpg"",""time"":1342.199999988079}]",[],8,,,,,,,,,,,,,,
harvest,173,554273,0.0-52.0-4.0,"""event"",""trial"",""time""
""fullscreenenter"",""1"",""4527""
","
","
","""event"",""trial"",""time""
""fullscreenenter"",""1"",""4527""
","
",,null,run_exp/static/images/task_images/gems/105.jpg,null,,,,,,,88,,,8,,,,,105,0.834411875,0.838095238,,,,,,,
decision,174,554902,0.0-52.0-5.0,"""event"",""trial"",""time""
""fullscreenenter"",""1"",""4527""
","
","
","""event"",""trial"",""time""
""fullscreenenter"",""1"",""4527""
","
",,627.4,run_exp/static/images/task_images/land.jpg,65,,,,,,,88,,,8,,,,,,,,227553,1,0,FALSE,,,
dig,175,557281,0.0-53.0-0.0,"""event"",""trial"",""time""
""fullscreenenter"",""1"",""4527""
","
","
","""event"",""trial"",""time""
""fullscreenenter"",""1"",""4527""
","
",,,,,,,,,,,,"[{""stimulus"":""run_exp/static/images/task_images/dig.jpg"",""time"":0.19999998807907104},{""stimulus"":""run_exp/static/images/task_images/land.jpg"",""time"":796.1999999880791},{""stimulus"":""run_exp/static/images/task_images/dig.jpg"",""time"":1594.300000011921}]",[],8,,,,,,,,,,,,,,
harvest,176,558291,0.0-53.0-1.0,"""event"",""trial"",""time""
""fullscreenenter"",""1"",""4527""
","
","
","""event"",""trial"",""time""
""fullscreenenter"",""1"",""4527""
","
",,null,run_exp/static/images/task_images/gems/88.jpg,null,,,,,,,72,,,8,,,,,88,0.816027866,0.818181818,,,,,,,
decision,177,558382,0.0-53.0-2.0,"""event"",""trial"",""time""
""fullscreenenter"",""1"",""4527""
","
","
","""event"",""trial"",""time""
""fullscreenenter"",""1"",""4527""
","
",,90.59999999,run_exp/static/images/task_images/land.jpg,65,,,,,,,72,,,8,,,,,,,,231033,1,1,FALSE,,,
dig,178,561296,0.0-54.0-0.0,"""event"",""trial"",""time""
""fullscreenenter"",""1"",""4527""
","
","
","""event"",""trial"",""time""
""fullscreenenter"",""1"",""4527""
","
",,,,,,,,,,,,"[{""stimulus"":""run_exp/static/images/task_images/dig.jpg"",""time"":0.19999998807907104},{""stimulus"":""run_exp/static/images/task_images/land.jpg"",""time"":979.6999999880791},{""stimulus"":""run_exp/static/images/task_images/dig.jpg"",""time"":1951.5999999940395}]",[],8,,,,,,,,,,,,,,
harvest,179,562305,0.0-54.0-1.0,"""event"",""trial"",""time""
""fullscreenenter"",""1"",""4527""
","
","
","""event"",""trial"",""time""
""fullscreenenter"",""1"",""4527""
","
",,null,run_exp/static/images/task_images/gems/72.jpg,null,,,,,,,60,,,8,,,,,72,0.834309336,0.833333333,,,,,,,
decision,180,562756,0.0-54.0-2.0,"""event"",""trial"",""time""
""fullscreenenter"",""1"",""4527""
","
","
","""event"",""trial"",""time""
""fullscreenenter"",""1"",""4527""
","
",,450.5,run_exp/static/images/task_images/land.jpg,65,,,,,,,60,,,8,,,,,,,,235408,1,2,FALSE,,,
dig,181,565317,0.0-55.0-0.0,"""event"",""trial"",""time""
""fullscreenenter"",""1"",""4527""
","
","
","""event"",""trial"",""time""
""fullscreenenter"",""1"",""4527""
","
",,,,,,,,,,,,"[{""stimulus"":""run_exp/static/images/task_images/dig.jpg"",""time"":0.19999998807907104},{""stimulus"":""run_exp/static/images/task_images/land.jpg"",""time"":857.5999999940395},{""stimulus"":""run_exp/static/images/task_images/dig.jpg"",""time"":1708.3999999761581}]",[],8,,,,,,,,,,,,,,
harvest,182,566324,0.0-55.0-1.0,"""event"",""trial"",""time""
""fullscreenenter"",""1"",""4527""
","
","
","""event"",""trial"",""time""
""fullscreenenter"",""1"",""4527""
","
",,null,run_exp/static/images/task_images/gems/60.jpg,null,,,,,,,50,,,8,,,,,60,0.836181343,0.833333333,,,,,,,
decision,183,566415,0.0-55.0-2.0,"""event"",""trial"",""time""
""fullscreenenter"",""1"",""4527""
","
","
","""event"",""trial"",""time""
""fullscreenenter"",""1"",""4527""
","
",,89.79999998,run_exp/static/images/task_images/land.jpg,65,,,,,,,50,,,8,,,,,,,,239066,1,3,FALSE,,,
dig,184,569345,0.0-56.0-0.0,"""event"",""trial"",""time""
""fullscreenenter"",""1"",""4527""
","
","
","""event"",""trial"",""time""
""fullscreenenter"",""1"",""4527""
","
",,,,,,,,,,,,"[{""stimulus"":""run_exp/static/images/task_images/dig.jpg"",""time"":0.09999999403953552},{""stimulus"":""run_exp/static/images/task_images/land.jpg"",""time"":974.3999999761581},{""stimulus"":""run_exp/static/images/task_images/dig.jpg"",""time"":1949.7999999821186}]",[],8,,,,,,,,,,,,,,
harvest,185,570356,0.0-56.0-1.0,"""event"",""trial"",""time""
""fullscreenenter"",""1"",""4527""
","
","
","""event"",""trial"",""time""
""fullscreenenter"",""1"",""4527""
","
",,null,run_exp/static/images/task_images/gems/50.jpg,null,,,,,,,41,,,8,,,,,50,0.816744417,0.82,,,,,,,
decision,186,571426,0.0-56.0-2.0,"""event"",""trial"",""time""
""fullscreenenter"",""1"",""4527""
","
","
","""event"",""trial"",""time""
""fullscreenenter"",""1"",""4527""
","
",,1069,run_exp/static/images/task_images/land.jpg,65,,,,,,,41,,,8,,,,,,,,244077,1,4,FALSE,,,
dig,187,573363,0.0-57.0-0.0,"""event"",""trial"",""time""
""fullscreenenter"",""1"",""4527""
","
","
","""event"",""trial"",""time""
""fullscreenenter"",""1"",""4527""
","
",,,,,,,,,,,,"[{""stimulus"":""run_exp/static/images/task_images/dig.jpg"",""time"":0},{""stimulus"":""run_exp/static/images/task_images/land.jpg"",""time"":655.2999999821186},{""stimulus"":""run_exp/static/images/task_images/dig.jpg"",""time"":1296.5999999940395}]",[],8,,,,,,,,,,,,,,
harvest,188,574368,0.0-57.0-1.0,"""event"",""trial"",""time""
""fullscreenenter"",""1"",""4527""
","
","
","""event"",""trial"",""time""
""fullscreenenter"",""1"",""4527""
","
",,null,run_exp/static/images/task_images/gems/41.jpg,null,,,,,,,35,,,8,,,,,41,0.860579257,0.853658537,,,,,,,
decision,189,574745,0.0-57.0-2.0,"""event"",""trial"",""time""
""fullscreenenter"",""1"",""4527""
","
","
","""event"",""trial"",""time""
""fullscreenenter"",""1"",""4527""
","
",,376.1,run_exp/static/images/task_images/land.jpg,65,,,,,,,35,,,8,,,,,,,,247396,1,5,FALSE,,,
dig,190,577376,0.0-58.0-0.0,"""event"",""trial"",""time""
""fullscreenenter"",""1"",""4527""
","
","
","""event"",""trial"",""time""
""fullscreenenter"",""1"",""4527""
","
",,,,,,,,,,,,"[{""stimulus"":""run_exp/static/images/task_images/dig.jpg"",""time"":0.09999999403953552},{""stimulus"":""run_exp/static/images/task_images/land.jpg"",""time"":887.5999999940395},{""stimulus"":""run_exp/static/images/task_images/dig.jpg"",""time"":1769.8999999761581}]",[],8,,,,,,,,,,,,,,
harvest,191,578385,0.0-58.0-1.0,"""event"",""trial"",""time""
""fullscreenenter"",""1"",""4527""
","
","
","""event"",""trial"",""time""
""fullscreenenter"",""1"",""4527""
","
",,null,run_exp/static/images/task_images/gems/35.jpg,null,,,,,,,28,,,8,,,,,35,0.796343636,0.8,,,,,,,
decision,192,578605,0.0-58.0-2.0,"""event"",""trial"",""time""
""fullscreenenter"",""1"",""4527""
","
","
","""event"",""trial"",""time""
""fullscreenenter"",""1"",""4527""
","
",,218.4,run_exp/static/images/task_images/land.jpg,65,,,,,,,28,,,8,,,,,,,,251256,1,6,FALSE,,,
dig,193,581394,0.0-59.0-0.0,"""event"",""trial"",""time""
""fullscreenenter"",""1"",""4527""
","
","
","""event"",""trial"",""time""
""fullscreenenter"",""1"",""4527""
","
",,,,,,,,,,,,"[{""stimulus"":""run_exp/static/images/task_images/dig.jpg"",""time"":0.19999998807907104},{""stimulus"":""run_exp/static/images/task_images/land.jpg"",""time"":930.3000000119209},{""stimulus"":""run_exp/static/images/task_images/dig.jpg"",""time"":1859.199999988079}]",[],8,,,,,,,,,,,,,,
harvest,194,582401,0.0-59.0-1.0,"""event"",""trial"",""time""
""fullscreenenter"",""1"",""4527""
","
","
","""event"",""trial"",""time""
""fullscreenenter"",""1"",""4527""
","
",,null,run_exp/static/images/task_images/gems/28.jpg,null,,,,,,,24,,,8,,,,,28,0.870934941,0.857142857,,,,,,,
decision,195,583144,0.0-59.0-2.0,"""event"",""trial"",""time""
""fullscreenenter"",""1"",""4527""
","
","
","""event"",""trial"",""time""
""fullscreenenter"",""1"",""4527""
","
",,742.2,run_exp/static/images/task_images/land.jpg,65,,,,,,,24,,,8,,,,,,,,255795,1,7,FALSE,,,
dig,196,585409,0.0-60.0-0.0,"""event"",""trial"",""time""
""fullscreenenter"",""1"",""4527""
","
","
","""event"",""trial"",""time""
""fullscreenenter"",""1"",""4527""
","
",,,,,,,,,,,,"[{""stimulus"":""run_exp/static/images/task_images/dig.jpg"",""time"":0.19999998807907104},{""stimulus"":""run_exp/static/images/task_images/land.jpg"",""time"":758.2999999821186},{""stimulus"":""run_exp/static/images/task_images/dig.jpg"",""time"":1509.5999999940395}]",[],8,,,,,,,,,,,,,,
harvest,197,586422,0.0-60.0-1.0,"""event"",""trial"",""time""
""fullscreenenter"",""1"",""4527""
","
","
","""event"",""trial"",""time""
""fullscreenenter"",""1"",""4527""
","
",,null,run_exp/static/images/task_images/gems/24.jpg,null,,,,,,,18,,,8,,,,,24,0.75504078,0.75,,,,,,,
decision,198,586641,0.0-60.0-2.0,"""event"",""trial"",""time""
""fullscreenenter"",""1"",""4527""
","
","
","""event"",""trial"",""time""
""fullscreenenter"",""1"",""4527""
","
",,217.9,run_exp/static/images/task_images/land.jpg,65,,,,,,,18,,,8,,,,,,,,259292,1,8,FALSE,,,
dig,199,589446,0.0-61.0-0.0,"""event"",""trial"",""time""
""fullscreenenter"",""1"",""4527""
","
","
","""event"",""trial"",""time""
""fullscreenenter"",""1"",""4527""
","
",,,,,,,,,,,,"[{""stimulus"":""run_exp/static/images/task_images/dig.jpg"",""time"":0.09999999403953552},{""stimulus"":""run_exp/static/images/task_images/land.jpg"",""time"":946.5999999940395},{""stimulus"":""run_exp/static/images/task_images/dig.jpg"",""time"":1874.7000000178814}]",[],8,,,,,,,,,,,,,,
harvest,200,590449,0.0-61.0-1.0,"""event"",""trial"",""time""
""fullscreenenter"",""1"",""4527""
","
","
","""event"",""trial"",""time""
""fullscreenenter"",""1"",""4527""
","
",,null,run_exp/static/images/task_images/gems/18.jpg,null,,,,,,,13,,,8,,,,,18,0.708696982,0.722222222,,,,,,,
decision,201,590592,0.0-61.0-2.0,"""event"",""trial"",""time""
""fullscreenenter"",""1"",""4527""
","
","
","""event"",""trial"",""time""
""fullscreenenter"",""1"",""4527""
","
",,141.9,run_exp/static/images/task_images/land.jpg,76,,,,,,,13,,,8,,,,,,,,263244,1,9,TRUE,,,
travel,202,600470,0.0-62.0-0.0,"""event"",""trial"",""time""
""fullscreenenter"",""1"",""4527""
","
","
","""event"",""trial"",""time""
""fullscreenenter"",""1"",""4527""
","
",,,,,,,,,,,,"[{""stimulus"":""run_exp/static/images/task_images/rocket-01.jpg"",""time"":0.09999999403953552},{""stimulus"":""run_exp/static/images/task_images/rocket-02.jpg"",""time"":1106.699999988079},{""stimulus"":""run_exp/static/images/task_images/rocket-03.jpg"",""time"":2206.699999988079},{""stimulus"":""run_exp/static/images/task_images/rocket-04.jpg"",""time"":3298.699999988079},{""stimulus"":""run_exp/static/images/task_images/rocket-05.jpg"",""time"":4382.699999988079},{""stimulus"":""run_exp/static/images/task_images/rocket-06.jpg"",""time"":5487},{""stimulus"":""run_exp/static/images/task_images/rocket-07.jpg"",""time"":6575.699999988079},{""stimulus"":""run_exp/static/images/task_images/rocket-08.jpg"",""time"":7678.699999988079},{""stimulus"":""run_exp/static/images/task_images/rocket-09.jpg"",""time"":8770.699999988079}]",[],8,,,,,,,,,,,,,,
alien_welcome,203,605474,0.0-62.0-1.0,"""event"",""trial"",""time""
""fullscreenenter"",""1"",""4527""
","
","
","""event"",""trial"",""time""
""fullscreenenter"",""1"",""4527""
","
",,null,run_exp/static/images/task_images/aliens/old_aliens/planet/alien_planet-36.jpg,null,,,,,,,,,,,,,36,"21,19,14,6,3,33,73,52,36,77,23,41,49,43,60,56,40,51,37,71,16,45,13,42,25,67,61,7,65,76,39,50,32,27,29,62,10,54,26,44,72,59,22",,,,,,,,,,
land,204,605986,0.0-62.0-2.0,"""event"",""trial"",""time""
""fullscreenenter"",""1"",""4527""
","
","
","""event"",""trial"",""time""
""fullscreenenter"",""1"",""4527""
","
",,null,run_exp/static/images/task_images/land.jpg,null,,,,,,,98,,,9,,,,,,,,,,,,,,
dig,205,608004,0.0-62.0-3.0,"""event"",""trial"",""time""
""fullscreenenter"",""1"",""4527""
","
","
","""event"",""trial"",""time""
""fullscreenenter"",""1"",""4527""
","
",,,,,,,,,,,,"[{""stimulus"":""run_exp/static/images/task_images/dig.jpg"",""time"":0.19999998807907104},{""stimulus"":""run_exp/static/images/task_images/land.jpg"",""time"":672.0999999940395},{""stimulus"":""run_exp/static/images/task_images/dig.jpg"",""time"":1343.4000000059605}]",[],9,,,,,,,,,,,,,,
harvest,206,609010,0.0-62.0-4.0,"""event"",""trial"",""time""
""fullscreenenter"",""1"",""4527""
","
","
","""event"",""trial"",""time""
""fullscreenenter"",""1"",""4527""
","
",,null,run_exp/static/images/task_images/gems/98.jpg,null,,,,,,,14,,,9,,,,,98,0.139760091,0.142857143,,,,,,,
decision,207,609416,0.0-62.0-5.0,"""event"",""trial"",""time""
""fullscreenenter"",""1"",""4527""
","
","
","""event"",""trial"",""time""
""fullscreenenter"",""1"",""4527""
","
",,404.5,run_exp/static/images/task_images/land.jpg,65,,,,,,,14,,,9,,,,,,,,282067,1,0,FALSE,,,
dig,208,612020,0.0-63.0-0.0,"""event"",""trial"",""time""
""fullscreenenter"",""1"",""4527""
","
","
","""event"",""trial"",""time""
""fullscreenenter"",""1"",""4527""
","
",,,,,,,,,,,,"[{""stimulus"":""run_exp/static/images/task_images/dig.jpg"",""time"":0.19999998807907104},{""stimulus"":""run_exp/static/images/task_images/land.jpg"",""time"":872.5999999940395},{""stimulus"":""run_exp/static/images/task_images/dig.jpg"",""time"":1735.300000011921}]",[],9,,,,,,,,,,,,,,
harvest,209,613026,0.0-63.0-1.0,"""event"",""trial"",""time""
""fullscreenenter"",""1"",""4527""
","
","
","""event"",""trial"",""time""
""fullscreenenter"",""1"",""4527""
","
",,null,run_exp/static/images/task_images/gems/14.jpg,null,,,,,,,3,,,9,,,,,14,0.183766443,0.214285714,,,,,,,
decision,210,613796,0.0-63.0-2.0,"""event"",""trial"",""time""
""fullscreenenter"",""1"",""4527""
","
","
","""event"",""trial"",""time""
""fullscreenenter"",""1"",""4527""
","
",,768.8,run_exp/static/images/task_images/land.jpg,76,,,,,,,3,,,9,,,,,,,,286447,1,1,TRUE,,,
travel,211,623028,0.0-64.0-0.0,"""event"",""trial"",""time""
""fullscreenenter"",""1"",""4527""
","
","
","""event"",""trial"",""time""
""fullscreenenter"",""1"",""4527""
","
",,,,,,,,,,,,"[{""stimulus"":""run_exp/static/images/task_images/rocket-01.jpg"",""time"":0.09999999403953552},{""stimulus"":""run_exp/static/images/task_images/rocket-02.jpg"",""time"":1034.5},{""stimulus"":""run_exp/static/images/task_images/rocket-03.jpg"",""time"":2063.7999999821186},{""stimulus"":""run_exp/static/images/task_images/rocket-04.jpg"",""time"":3087.4000000059605},{""stimulus"":""run_exp/static/images/task_images/rocket-05.jpg"",""time"":4110.4000000059605},{""stimulus"":""run_exp/static/images/task_images/rocket-06.jpg"",""time"":5134.5},{""stimulus"":""run_exp/static/images/task_images/rocket-07.jpg"",""time"":6159.799999982119},{""stimulus"":""run_exp/static/images/task_images/rocket-08.jpg"",""time"":7179.9000000059605},{""stimulus"":""run_exp/static/images/task_images/rocket-09.jpg"",""time"":8207.799999982119}]",[],9,,,,,,,,,,,,,,
alien_welcome,212,628034,0.0-64.0-1.0,"""event"",""trial"",""time""
""fullscreenenter"",""1"",""4527""
","
","
","""event"",""trial"",""time""
""fullscreenenter"",""1"",""4527""
","
",,null,run_exp/static/images/task_images/aliens/old_aliens/planet/alien_planet-77.jpg,null,,,,,,,,,,,,,77,"21,19,14,6,3,33,73,52,36,77,23,41,49,43,60,56,40,51,37,71,16,45,13,42,25,67,61,7,65,76,39,50,32,27,29,62,10,54,26,44,72,59,22",,,,,,,,,,
land,213,628547,0.0-64.0-2.0,"""event"",""trial"",""time""
""fullscreenenter"",""1"",""4527""
","
","
","""event"",""trial"",""time""
""fullscreenenter"",""1"",""4527""
","
",,null,run_exp/static/images/task_images/land.jpg,null,,,,,,,94,,,10,,,,,,,,,,,,,,
dig,214,630567,0.0-64.0-3.0,"""event"",""trial"",""time""
""fullscreenenter"",""1"",""4527""
","
","
","""event"",""trial"",""time""
""fullscreenenter"",""1"",""4527""
","
",,,,,,,,,,,,"[{""stimulus"":""run_exp/static/images/task_images/dig.jpg"",""time"":0.20000001788139343},{""stimulus"":""run_exp/static/images/task_images/land.jpg"",""time"":670.9000000059605},{""stimulus"":""run_exp/static/images/task_images/dig.jpg"",""time"":1343.6000000238419}]",[],10,,,,,,,,,,,,,,
harvest,215,631574,0.0-64.0-4.0,"""event"",""trial"",""time""
""fullscreenenter"",""1"",""4527""
","
","
","""event"",""trial"",""time""
""fullscreenenter"",""1"",""4527""
","
",,null,run_exp/static/images/task_images/gems/94.jpg,null,,,,,,,24,,,10,,,,,94,0.250946205,0.255319149,,,,,,,
decision,216,631634,0.0-64.0-5.0,"""event"",""trial"",""time""
""fullscreenenter"",""1"",""4527""
","
","
","""event"",""trial"",""time""
""fullscreenenter"",""1"",""4527""
","
",,59.09999999,run_exp/static/images/task_images/land.jpg,65,,,,,,,24,,,10,,,,,,,,304285,1,0,TRUE,,,
end_of_block_continue,217,640069,0.0-65.0-0.0,"""event"",""trial"",""time""
""fullscreenenter"",""1"",""4527""
","
","
","""event"",""trial"",""time""
""fullscreenenter"",""1"",""4527""
","
",,8431.4,run_exp/static/audio/clip_32_block_end.m4a,,,,,,,0,,,,,,,,,,,,,,,,,,
alien_welcome,218,645079,0.0-66.0-0.0,"""event"",""trial"",""time""
""fullscreenenter"",""1"",""4527""
","
","
","""event"",""trial"",""time""
""fullscreenenter"",""1"",""4527""
","
",,null,run_exp/static/images/task_images/aliens/old_aliens/planet/alien_planet-23.jpg,null,,,,,,,,,,,,,23,"21,19,14,6,3,33,73,52,36,77,23,41,49,43,60,56,40,51,37,71,16,45,13,42,25,67,61,7,65,76,39,50,32,27,29,62,10,54,26,44,72,59,22",,,,,,,,,,
land,219,645591,0.0-66.0-1.0,"""event"",""trial"",""time""
""fullscreenenter"",""1"",""4527""
","
","
","""event"",""trial"",""time""
""fullscreenenter"",""1"",""4527""
","
",,null,run_exp/static/images/task_images/land.jpg,null,,,,,,,95,,,11,,,,,,,,,,,,,,
dig,220,647603,0.0-66.0-2.0,"""event"",""trial"",""time""
""fullscreenenter"",""1"",""4527""
","
","
","""event"",""trial"",""time""
""fullscreenenter"",""1"",""4527""
","
",,,,,,,,,,,,"[{""stimulus"":""run_exp/static/images/task_images/dig.jpg"",""time"":0.30000001192092896},{""stimulus"":""run_exp/static/images/task_images/land.jpg"",""time"":682.6999999880791},{""stimulus"":""run_exp/static/images/task_images/dig.jpg"",""time"":1338.800000011921}]",[],11,,,,,,,,,,,,,,
harvest,221,648612,0.0-66.0-3.0,"""event"",""trial"",""time""
""fullscreenenter"",""1"",""4527""
","
","
","""event"",""trial"",""time""
""fullscreenenter"",""1"",""4527""
","
",,null,run_exp/static/images/task_images/gems/95.jpg,null,,,,,,,26,,,11,,,,,95,0.27177816,0.273684211,,,,,,,
decision,222,649028,0.0-66.0-4.0,"""event"",""trial"",""time""
""fullscreenenter"",""1"",""4527""
","
","
","""event"",""trial"",""time""
""fullscreenenter"",""1"",""4527""
","
",,414.3,run_exp/static/images/task_images/land.jpg,65,,,,,,,26,,,11,,,,,,,,8958,2,0,FALSE,,,
dig,223,651623,0.0-67.0-0.0,"""event"",""trial"",""time""
""fullscreenenter"",""1"",""4527""
","
","
","""event"",""trial"",""time""
""fullscreenenter"",""1"",""4527""
","
",,,,,,,,,,,,"[{""stimulus"":""run_exp/static/images/task_images/dig.jpg"",""time"":0.09999999403953552},{""stimulus"":""run_exp/static/images/task_images/land.jpg"",""time"":875.8000000119209},{""stimulus"":""run_exp/static/images/task_images/dig.jpg"",""time"":1725.5999999940395}]",[],11,,,,,,,,,,,,,,
harvest,224,652631,0.0-67.0-1.0,"""event"",""trial"",""time""
""fullscreenenter"",""1"",""4527""
","
","
","""event"",""trial"",""time""
""fullscreenenter"",""1"",""4527""
","
",,null,run_exp/static/images/task_images/gems/26.jpg,null,,,,,,,6,,,11,,,,,26,0.222618561,0.230769231,,,,,,,
decision,225,652984,0.0-67.0-2.0,"""event"",""trial"",""time""
""fullscreenenter"",""1"",""4527""
","
","
","""event"",""trial"",""time""
""fullscreenenter"",""1"",""4527""
","
",,352.2,run_exp/static/images/task_images/land.jpg,65,,,,,,,6,,,11,,,,,,,,12914,2,1,FALSE,,,
dig,226,655638,0.0-68.0-0.0,"""event"",""trial"",""time""
""fullscreenenter"",""1"",""4527""
","
","
","""event"",""trial"",""time""
""fullscreenenter"",""1"",""4527""
","
",,,,,,,,,,,,"[{""stimulus"":""run_exp/static/images/task_images/dig.jpg"",""time"":0.09999999403953552},{""stimulus"":""run_exp/static/images/task_images/land.jpg"",""time"":892.6999999880791},{""stimulus"":""run_exp/static/images/task_images/dig.jpg"",""time"":1772.699999988079}]",[],11,,,,,,,,,,,,,,
harvest,227,656644,0.0-68.0-1.0,"""event"",""trial"",""time""
""fullscreenenter"",""1"",""4527""
","
","
","""event"",""trial"",""time""
""fullscreenenter"",""1"",""4527""
","
",,null,run_exp/static/images/task_images/gems/6.jpg,null,,,,,,,1,,,11,,,,,6,0.237893852,0.166666667,,,,,,,
decision,228,657114,0.0-68.0-2.0,"""event"",""trial"",""time""
""fullscreenenter"",""1"",""4527""
","
","
","""event"",""trial"",""time""
""fullscreenenter"",""1"",""4527""
","
",,469.4,run_exp/static/images/task_images/land.jpg,65,,,,,,,1,,,11,,,,,,,,17044,2,2,FALSE,,,
dig,229,659652,0.0-69.0-0.0,"""event"",""trial"",""time""
""fullscreenenter"",""1"",""4527""
","
","
","""event"",""trial"",""time""
""fullscreenenter"",""1"",""4527""
","
",,,,,,,,,,,,"[{""stimulus"":""run_exp/static/images/task_images/dig.jpg"",""time"":0.19999998807907104},{""stimulus"":""run_exp/static/images/task_images/land.jpg"",""time"":857.2999999821186},{""stimulus"":""run_exp/static/images/task_images/dig.jpg"",""time"":1706.5}]",[],11,,,,,,,,,,,,,,
harvest,230,660658,0.0-69.0-1.0,"""event"",""trial"",""time""
""fullscreenenter"",""1"",""4527""
","
","
","""event"",""trial"",""time""
""fullscreenenter"",""1"",""4527""
","
",,null,run_exp/static/images/task_images/gems/1.jpg,null,,,,,,,0,,,11,,,,,1,0.140651523,0,,,,,,,
decision,231,661143,0.0-69.0-2.0,"""event"",""trial"",""time""
""fullscreenenter"",""1"",""4527""
","
","
","""event"",""trial"",""time""
""fullscreenenter"",""1"",""4527""
","
",,483.9,run_exp/static/images/task_images/land.jpg,76,,,,,,,0,,,11,,,,,,,,21073,2,3,TRUE,,,
travel,232,670677,0.0-70.0-0.0,"""event"",""trial"",""time""
""fullscreenenter"",""1"",""4527""
","
","
","""event"",""trial"",""time""
""fullscreenenter"",""1"",""4527""
","
",,,,,,,,,,,,"[{""stimulus"":""run_exp/static/images/task_images/rocket-01.jpg"",""time"":0.10000002384185791},{""stimulus"":""run_exp/static/images/task_images/rocket-02.jpg"",""time"":1073.5},{""stimulus"":""run_exp/static/images/task_images/rocket-03.jpg"",""time"":2126.2000000178814},{""stimulus"":""run_exp/static/images/task_images/rocket-04.jpg"",""time"":3178.5},{""stimulus"":""run_exp/static/images/task_images/rocket-05.jpg"",""time"":4234.4000000059605},{""stimulus"":""run_exp/static/images/task_images/rocket-06.jpg"",""time"":5294.5},{""stimulus"":""run_exp/static/images/task_images/rocket-07.jpg"",""time"":6350.300000011921},{""stimulus"":""run_exp/static/images/task_images/rocket-08.jpg"",""time"":7406.5},{""stimulus"":""run_exp/static/images/task_images/rocket-09.jpg"",""time"":8457.90000000596}]",[],11,,,,,,,,,,,,,,
alien_welcome,233,675684,0.0-70.0-1.0,"""event"",""trial"",""time""
""fullscreenenter"",""1"",""4527""
","
","
","""event"",""trial"",""time""
""fullscreenenter"",""1"",""4527""
","
",,null,run_exp/static/images/task_images/aliens/old_aliens/planet/alien_planet-41.jpg,null,,,,,,,,,,,,,41,"21,19,14,6,3,33,73,52,36,77,23,41,49,43,60,56,40,51,37,71,16,45,13,42,25,67,61,7,65,76,39,50,32,27,29,62,10,54,26,44,72,59,22",,,,,,,,,,
land,234,676200,0.0-70.0-2.0,"""event"",""trial"",""time""
""fullscreenenter"",""1"",""4527""
","
","
","""event"",""trial"",""time""
""fullscreenenter"",""1"",""4527""
","
",,null,run_exp/static/images/task_images/land.jpg,null,,,,,,,96,,,12,,,,,,,,,,,,,,
dig,235,678212,0.0-70.0-3.0,"""event"",""trial"",""time""
""fullscreenenter"",""1"",""4527""
","
","
","""event"",""trial"",""time""
""fullscreenenter"",""1"",""4527""
","
",,,,,,,,,,,,"[{""stimulus"":""run_exp/static/images/task_images/dig.jpg"",""time"":0.19999998807907104},{""stimulus"":""run_exp/static/images/task_images/land.jpg"",""time"":682.7999999821186},{""stimulus"":""run_exp/static/images/task_images/dig.jpg"",""time"":1342.8999999761581}]",[],12,,,,,,,,,,,,,,
harvest,236,679224,0.0-70.0-4.0,"""event"",""trial"",""time""
""fullscreenenter"",""1"",""4527""
","
","
","""event"",""trial"",""time""
""fullscreenenter"",""1"",""4527""
","
",,null,run_exp/static/images/task_images/gems/96.jpg,null,,,,,,,16,,,12,,,,,96,0.161862004,0.166666667,,,,,,,
decision,237,679340,0.0-70.0-5.0,"""event"",""trial"",""time""
""fullscreenenter"",""1"",""4527""
","
","
","""event"",""trial"",""time""
""fullscreenenter"",""1"",""4527""
","
",,114.8,run_exp/static/images/task_images/land.jpg,65,,,,,,,16,,,12,,,,,,,,39270,2,0,FALSE,,,
dig,238,682227,0.0-71.0-0.0,"""event"",""trial"",""time""
""fullscreenenter"",""1"",""4527""
","
","
","""event"",""trial"",""time""
""fullscreenenter"",""1"",""4527""
","
",,,,,,,,,,,,"[{""stimulus"":""run_exp/static/images/task_images/dig.jpg"",""time"":0.09999999403953552},{""stimulus"":""run_exp/static/images/task_images/land.jpg"",""time"":966},{""stimulus"":""run_exp/static/images/task_images/dig.jpg"",""time"":1926}]",[],12,,,,,,,,,,,,,,
harvest,239,683236,0.0-71.0-1.0,"""event"",""trial"",""time""
""fullscreenenter"",""1"",""4527""
","
","
","""event"",""trial"",""time""
""fullscreenenter"",""1"",""4527""
","
",,null,run_exp/static/images/task_images/gems/16.jpg,null,,,,,,,4,,,12,,,,,16,0.220607373,0.25,,,,,,,
decision,240,683438,0.0-71.0-2.0,"""event"",""trial"",""time""
""fullscreenenter"",""1"",""4527""
","
","
","""event"",""trial"",""time""
""fullscreenenter"",""1"",""4527""
","
",,201,run_exp/static/images/task_images/land.jpg,76,,,,,,,4,,,12,,,,,,,,43368,2,1,TRUE,,,
travel,241,693236,0.0-72.0-0.0,"""event"",""trial"",""time""
""fullscreenenter"",""1"",""4527""
","
","
","""event"",""trial"",""time""
""fullscreenenter"",""1"",""4527""
","
",,,,,,,,,,,,"[{""stimulus"":""run_exp/static/images/task_images/rocket-01.jpg"",""time"":0.09999999403953552},{""stimulus"":""run_exp/static/images/task_images/rocket-02.jpg"",""time"":1094.699999988079},{""stimulus"":""run_exp/static/images/task_images/rocket-03.jpg"",""time"":2181.5},{""stimulus"":""run_exp/static/images/task_images/rocket-04.jpg"",""time"":3267.899999976158},{""stimulus"":""run_exp/static/images/task_images/rocket-05.jpg"",""time"":4356.699999988079},{""stimulus"":""run_exp/static/images/task_images/rocket-06.jpg"",""time"":5442.899999976158},{""stimulus"":""run_exp/static/images/task_images/rocket-07.jpg"",""time"":6531.899999976158},{""stimulus"":""run_exp/static/images/task_images/rocket-08.jpg"",""time"":7622.899999976158},{""stimulus"":""run_exp/static/images/task_images/rocket-09.jpg"",""time"":8707.799999982119}]",[],12,,,,,,,,,,,,,,
alien_welcome,242,698246,0.0-72.0-1.0,"""event"",""trial"",""time""
""fullscreenenter"",""1"",""4527""
","
","
","""event"",""trial"",""time""
""fullscreenenter"",""1"",""4527""
","
",,null,run_exp/static/images/task_images/aliens/old_aliens/planet/alien_planet-49.jpg,null,,,,,,,,,,,,,49,"21,19,14,6,3,33,73,52,36,77,23,41,49,43,60,56,40,51,37,71,16,45,13,42,25,67,61,7,65,76,39,50,32,27,29,62,10,54,26,44,72,59,22",,,,,,,,,,
land,243,698761,0.0-72.0-2.0,"""event"",""trial"",""time""
""fullscreenenter"",""1"",""4527""
","
