trial_type,trial_index,time_elapsed,internal_node_id,interactions,blur_events,focus_events,fullscreenenter_events,fullscreenexit_events,success,rt,stimulus,key_press,prompt,subject_id,participant_id,age,gender,button_pressed,next_reward,animation_sequence,responses,planet,curr_prac_trial,n_prac_rounds,alien,aliens,reward_received,decay_rate_actual,decay_rate_exp,time_in_block,block_num,prt,last_trial_on_planet,button_html,bonus,num_failures
pavlovia,0,3,0.0-0.0,"""event"",""trial"",""time""
""fullscreenenter"",""1"",""5419""
","
","
","""event"",""trial"",""time""
""fullscreenenter"",""1"",""5419""
","
",,,,,,,,,,,,,,,,,,,,,,,,,,,,
fullscreen,1,6393,0.0-1.0,"""event"",""trial"",""time""
""fullscreenenter"",""1"",""5419""
","
","
","""event"",""trial"",""time""
""fullscreenenter"",""1"",""5419""
","
",TRUE,,,,,,,,,,,,,,,,,,,,,,,,,,,
instruc_welcome,2,16274,0.0-2.0,"""event"",""trial"",""time""
""fullscreenenter"",""1"",""5419""
","
","
","""event"",""trial"",""time""
""fullscreenenter"",""1"",""5419""
","
",,null,run_exp/static/audio/clip_1_welcome.m4a,null,"<p>Howdy! In this experiment, you’ll be an explorer traveling through space to collect space treasure.</p><p>Your mission is to collect as much treasure as possible.</p><br><br><p><img src='run_exp/static/images/task_images/opening_img-01.jpg' height='300' width='auto'></p>",9333,139,13.59,Female,,,,,,,,,,,,,,,,,,,
audio-keyboard-response,3,32849,0.0-3.0,"""event"",""trial"",""time""
""fullscreenenter"",""1"",""5419""
","
","
","""event"",""trial"",""time""
""fullscreenenter"",""1"",""5419""
","
",,null,run_exp/static/audio/clip_2_move.m4a,null,,,,,,,,,,,,,,,,,,,,,,,,
welcome_dec,4,46060,0.0-4.0,"""event"",""trial"",""time""
""fullscreenenter"",""1"",""5419""
","
","
","""event"",""trial"",""time""
""fullscreenenter"",""1"",""5419""
","
",,13197.2,"<p>Howdy! In this experiment, you’ll be an explorer traveling through space to collect space treasure.</p><p>Your mission is to collect as much treasure as possible.</p><br><br><p><img src='run_exp/static/images/task_images/opening_img-01.jpg' height='300' width='auto'></p>",,,,,,,1,,,,,,,,,,,,,,,,,,
html-keyboard-response,5,51000,0.0-5.0,"""event"",""trial"",""time""
""fullscreenenter"",""1"",""5419""
","
","
","""event"",""trial"",""time""
""fullscreenenter"",""1"",""5419""
","
",,4936.2,"<p>Howdy! In this experiment, you’ll be an explorer traveling through space to collect space treasure.</p><p>Your mission is to collect as much treasure as possible.</p><br><br><p><img src='run_exp/static/images/task_images/opening_img-01.jpg' height='300' width='auto'></p><button class=""jspsych-html-btn-unchosen""><img src=""run_exp/static/images/task_images/planet-01.jpg"" height=""50""></button><button class=""jspsych-html-btn-chosen""><img src=""run_exp/static/images/task_images/planet-02.jpg"" height=""50""></button><p><b>[press the space bar to lock in your answer]<b><br></p>",32,,,,,,,,,,,,,,,,,,,,,,,,
instruc_goal,6,61159,0.0-6.0-0.0,"""event"",""trial"",""time""
""fullscreenenter"",""1"",""5419""
","
","
","""event"",""trial"",""time""
""fullscreenenter"",""1"",""5419""
","
",,null,run_exp/static/audio/clip_3_goal.m4a,null,"<p> As a space explorer, you’ll visit different planets to dig for space treasure, these pink gems.</p> <p> The more treasure you dig up, the more bonus money you’ll win! </p><br><br><p><img src='run_exp/static/images/task_images/pink_gem.jpg' height='300' width='auto'></p>",,,,,,,,,,,,,,,,,,,,,,,
instruc_goal,7,70934,0.0-6.0-1.0,"""event"",""trial"",""time""
""fullscreenenter"",""1"",""5419""
","
","
","""event"",""trial"",""time""
""fullscreenenter"",""1"",""5419""
","
",,9771.7,"<p> As a space explorer, you’ll visit different planets to dig for space treasure, these pink gems.</p> <p> The more treasure you dig up, the more bonus money you’ll win! </p><br><br><p><img src='run_exp/static/images/task_images/pink_gem.jpg' height='300' width='auto'></p>",,,,,,,1,,,,,,,,,,,,,,,,,,
html-keyboard-response,8,74034,0.0-6.0-2.0,"""event"",""trial"",""time""
""fullscreenenter"",""1"",""5419""
","
","
","""event"",""trial"",""time""
""fullscreenenter"",""1"",""5419""
","
",,3097.2,"<p> As a space explorer, you’ll visit different planets to dig for space treasure, these pink gems.</p> <p> The more treasure you dig up, the more bonus money you’ll win! </p><br><br><p><img src='run_exp/static/images/task_images/pink_gem.jpg' height='300' width='auto'></p><button class=""jspsych-html-btn-unchosen""><img src=""run_exp/static/images/task_images/planet-01.jpg"" height=""50""></button><button class=""jspsych-html-btn-chosen""><img src=""run_exp/static/images/task_images/planet-02.jpg"" height=""50""></button><p><b>[press the space bar to lock in your answer]<b><br></p>",32,,,,,,,,,,,,,,,,,,,,,,,,
instruc_dig,9,90143,0.0-7.0-0.0,"""event"",""trial"",""time""
""fullscreenenter"",""1"",""5419""
","
","
","""event"",""trial"",""time""
""fullscreenenter"",""1"",""5419""
","
",,null,run_exp/static/audio/clip_4_dig.m4a,null,,,,,,,100,,,,,,,,,,,,,,,,,
instruc_dig_try,10,91359,0.0-7.0-1.0,"""event"",""trial"",""time""
""fullscreenenter"",""1"",""5419""
","
","
","""event"",""trial"",""time""
""fullscreenenter"",""1"",""5419""
","
",,1213.5,"<p> When you’ve arrived at a new planet, you will dig once. </p> <p>Then, you get to decide if you want to stay on the planet and dig again or travel to a new planet and dig there.</p> <p> To stay and dig, press the letter <strong>‘A’</strong> on your keyboard. Try pressing it now! </p><p><img src='run_exp/static/images/task_images/land.jpg'  height='700' width='auto'></p>",65,"<p> When you’ve arrived at a new planet, you will dig once. </p> <p>Then, you get to decide if you want to stay on the planet and dig again or travel to a new planet and dig there.</p> <p> To stay and dig, press the letter <strong>‘A’</strong> on your keyboard. Try pressing it now! </p><p><img src='run_exp/static/images/task_images/land.jpg'  height='700' width='auto'></p>",,,,,,100,,,,,,,,,,,,,,,,,
dig_prac,11,93377,0.0-7.0-2.0,"""event"",""trial"",""time""
""fullscreenenter"",""1"",""5419""
","
","
","""event"",""trial"",""time""
""fullscreenenter"",""1"",""5419""
","
",,,,,,,,,,,,"[{""stimulus"":""run_exp/static/images/task_images/dig.jpg"",""time"":0.2999999523162842},{""stimulus"":""run_exp/static/images/task_images/land.jpg"",""time"":677.6999999284744},{""stimulus"":""run_exp/static/images/task_images/dig.jpg"",""time"":1340.5}]",[],,,,,,,,,,,,,,,
instruc_travel,12,129609,0.0-7.0-3.0,"""event"",""trial"",""time""
""fullscreenenter"",""1"",""5419""
","
","
","""event"",""trial"",""time""
""fullscreenenter"",""1"",""5419""
","
",,null,run_exp/static/audio/clip_5_travel.m4a,null,"<p>Every time you dig up gems, there are less gems on the planet, so the more you dig on a planet the fewer gems you’ll get with each dig.</p><p>When gems are running low, you may want to travel to a new planet. </p> <p>  Planets are very far apart in this galaxy, so it will take some time to travel between them. </p> <br><p>There are lots and lots of planets for you to visit, so you won’t be able to return to any planets you’ve seen before. </p><br><p>To leave this planet and travel to a new one, press the letter <strong>‘L’</strong> on your keyboard. Try pressing it now! </p><p><img src='run_exp/static/images/task_images/rocket-01.jpg'  height='600' width='auto'></p>",,,,,,,,,,,,,,,,,,,,,,,
instruc_travel_try,13,132068,0.0-7.0-4.0,"""event"",""trial"",""time""
""fullscreenenter"",""1"",""5419""
","
","
","""event"",""trial"",""time""
""fullscreenenter"",""1"",""5419""
","
",,2456.9,"<p>Every time you dig up gems, there are less gems on the planet, so the more you dig on a planet the fewer gems you’ll get with each dig.</p><p>When gems are running low, you may want to travel to a new planet. </p> <p>  Planets are very far apart in this galaxy, so it will take some time to travel between them. </p> <br><p>There are lots and lots of planets for you to visit, so you won’t be able to return to any planets you’ve seen before. </p><br><p>To leave this planet and travel to a new one, press the letter <strong>‘L’</strong> on your keyboard. Try pressing it now! </p><p><img src='run_exp/static/images/task_images/rocket-01.jpg'  height='600' width='auto'></p>",76,"<p>Every time you dig up gems, there are less gems on the planet, so the more you dig on a planet the fewer gems you’ll get with each dig.</p><p>When gems are running low, you may want to travel to a new planet. </p> <p>  Planets are very far apart in this galaxy, so it will take some time to travel between them. </p> <br><p>There are lots and lots of planets for you to visit, so you won’t be able to return to any planets you’ve seen before. </p><br><p>To leave this planet and travel to a new one, press the letter <strong>‘L’</strong> on your keyboard. Try pressing it now! </p><p><img src='run_exp/static/images/task_images/rocket-01.jpg'  height='600' width='auto'></p>",,,,,,,,,,,,,,,,,,,,,,,
travel_prac,14,142076,0.0-7.0-5.0,"""event"",""trial"",""time""
""fullscreenenter"",""1"",""5419""
","
","
","""event"",""trial"",""time""
""fullscreenenter"",""1"",""5419""
","
",,,,,,,,,,,,"[{""stimulus"":""run_exp/static/images/task_images/rocket-01.jpg"",""time"":0.10000002384185791},{""stimulus"":""run_exp/static/images/task_images/rocket-02.jpg"",""time"":1120.2000000476837},{""stimulus"":""run_exp/static/images/task_images/rocket-03.jpg"",""time"":2232.100000023842},{""stimulus"":""run_exp/static/images/task_images/rocket-04.jpg"",""time"":3337.399999976158},{""stimulus"":""run_exp/static/images/task_images/rocket-05.jpg"",""time"":4447.600000023842},{""stimulus"":""run_exp/static/images/task_images/rocket-06.jpg"",""time"":5560.100000023842},{""stimulus"":""run_exp/static/images/task_images/rocket-07.jpg"",""time"":6676},{""stimulus"":""run_exp/static/images/task_images/rocket-08.jpg"",""time"":7787.600000023842},{""stimulus"":""run_exp/static/images/task_images/rocket-09.jpg"",""time"":8899.5}]",[],0,,,,,,,,,,,,,,
instruc_alien_greet,15,169267,0.0-7.0-6.0,"""event"",""trial"",""time""
""fullscreenenter"",""1"",""5419""
","
","
","""event"",""trial"",""time""
""fullscreenenter"",""1"",""5419""
","
",,null,run_exp/static/audio/clip_6_alien.m4a,null,"<p>When you arrive at a new planet, the alien who owns the treasure mine on that planet will greet you!</p><p>The better an alien takes care of their mine the easier it is to dig for gems. Some aliens take better care of their mine than others. So, you won’t get exactly the same amount of gems on each planet.</p><p>What the alien looks like does not tell you anything about how many gems there are on the planet.</p><br><p><img src=""run_exp/static/images/task_images/aliens/instructions_aliens/planet/alien_planet-1.jpg""  height=""600"" width=""auto""></p>",,,,,,,,,,,,,,,,,,,,,,,
instruc_alien_greet,16,205263,0.0-7.0-7.0,"""event"",""trial"",""time""
""fullscreenenter"",""1"",""5419""
","
","
","""event"",""trial"",""time""
""fullscreenenter"",""1"",""5419""
","
",,35992.5,"<p>When you arrive at a new planet, the alien who owns the treasure mine on that planet will greet you!</p><p>The better an alien takes care of their mine the easier it is to dig for gems. Some aliens take better care of their mine than others. So, you won’t get exactly the same amount of gems on each planet.</p><p>What the alien looks like does not tell you anything about how many gems there are on the planet.</p><br><p><img src=""run_exp/static/images/task_images/aliens/instructions_aliens/planet/alien_planet-1.jpg""  height=""600"" width=""auto""></p>",,,,,,,1,,,,,,,,,,,,,,,,,,
html-keyboard-response,17,206273,0.0-7.0-8.0,"""event"",""trial"",""time""
""fullscreenenter"",""1"",""5419""
","
","
","""event"",""trial"",""time""
""fullscreenenter"",""1"",""5419""
","
",,1008.2,"<p>When you arrive at a new planet, the alien who owns the treasure mine on that planet will greet you!</p><p>The better an alien takes care of their mine the easier it is to dig for gems. Some aliens take better care of their mine than others. So, you won’t get exactly the same amount of gems on each planet.</p><p>What the alien looks like does not tell you anything about how many gems there are on the planet.</p><br><p><img src=""run_exp/static/images/task_images/aliens/instructions_aliens/planet/alien_planet-1.jpg""  height=""600"" width=""auto""></p><button class=""jspsych-html-btn-unchosen""><img src=""run_exp/static/images/task_images/planet-01.jpg"" height=""50""></button><button class=""jspsych-html-btn-chosen""><img src=""run_exp/static/images/task_images/planet-02.jpg"" height=""50""></button><p><b>[press the space bar to lock in your answer]<b><br></p>",32,,,,,,,,,,,,,,,,,,,,,,,,
time_out,18,217468,0.0-8.0-0.0,"""event"",""trial"",""time""
""fullscreenenter"",""1"",""5419""
","
","
","""event"",""trial"",""time""
""fullscreenenter"",""1"",""5419""
","
",,null,run_exp/static/audio/clip_7_timeout.m4a,null,"<p>If you don't make your choice fast enough, you’ll have to wait a few seconds before you can make another one.</p><p>You can’t dig for more gems or travel to new planets. You just have to sit and wait.</p><br><p><img src='run_exp/static/images/task_images/time_out.jpg'  height='600' width='auto'></p>",,,,,,,,,,,,,,,,,,,,,,,
time_out,19,219718,0.0-8.0-1.0,"""event"",""trial"",""time""
""fullscreenenter"",""1"",""5419""
","
","
","""event"",""trial"",""time""
""fullscreenenter"",""1"",""5419""
","
",,2247.4,"<p>If you don't make your choice fast enough, you’ll have to wait a few seconds before you can make another one.</p><p>You can’t dig for more gems or travel to new planets. You just have to sit and wait.</p><br><p><img src='run_exp/static/images/task_images/time_out.jpg'  height='600' width='auto'></p>",,,,,,,1,,,,,,,,,,,,,,,,,,
html-keyboard-response,20,220515,0.0-8.0-2.0,"""event"",""trial"",""time""
""fullscreenenter"",""1"",""5419""
","
","
","""event"",""trial"",""time""
""fullscreenenter"",""1"",""5419""
","
",,794.8000001,"<p>If you don't make your choice fast enough, you’ll have to wait a few seconds before you can make another one.</p><p>You can’t dig for more gems or travel to new planets. You just have to sit and wait.</p><br><p><img src='run_exp/static/images/task_images/time_out.jpg'  height='600' width='auto'></p><button class=""jspsych-html-btn-unchosen""><img src=""run_exp/static/images/task_images/planet-01.jpg"" height=""50""></button><button class=""jspsych-html-btn-chosen""><img src=""run_exp/static/images/task_images/planet-02.jpg"" height=""50""></button><p><b>[press the space bar to lock in your answer]<b><br></p>",32,,,,,,,,,,,,,,,,,,,,,,,,
instruc_break,21,236177,0.0-9.0-0.0,"""event"",""trial"",""time""
""fullscreenenter"",""1"",""5419""
","
","
","""event"",""trial"",""time""
""fullscreenenter"",""1"",""5419""
","
",,null,run_exp/static/audio/clip_8_break.m4a,null,"<p> After digging and traveling for a while, you’ll be able to take a break at home base. </p><p>The game will last 20 minutes no matter what.</p><p>You will visit home base every 5 minutes, so, you will visit home base three times during the game.</p><br><p><img src='run_exp/static/images/task_images/home_base.jpg' height='600' width='auto'></p>",,,,,,,,,,,,,,,,,,,,,,,
instruc_break,22,268823,0.0-9.0-1.0,"""event"",""trial"",""time""
""fullscreenenter"",""1"",""5419""
","
","
","""event"",""trial"",""time""
""fullscreenenter"",""1"",""5419""
","
",,32643.7,"<p> After digging and traveling for a while, you’ll be able to take a break at home base. </p><p>The game will last 20 minutes no matter what.</p><p>You will visit home base every 5 minutes, so, you will visit home base three times during the game.</p><br><p><img src='run_exp/static/images/task_images/home_base.jpg' height='600' width='auto'></p>",,,,,,,1,,,,,,,,,,,,,,,,,,
html-keyboard-response,23,270249,0.0-9.0-2.0,"""event"",""trial"",""time""
""fullscreenenter"",""1"",""5419""
","
","
","""event"",""trial"",""time""
""fullscreenenter"",""1"",""5419""
","
",,1423.7,"<p> After digging and traveling for a while, you’ll be able to take a break at home base. </p><p>The game will last 20 minutes no matter what.</p><p>You will visit home base every 5 minutes, so, you will visit home base three times during the game.</p><br><p><img src='run_exp/static/images/task_images/home_base.jpg' height='600' width='auto'></p><button class=""jspsych-html-btn-unchosen""><img src=""run_exp/static/images/task_images/planet-01.jpg"" height=""50""></button><button class=""jspsych-html-btn-chosen""><img src=""run_exp/static/images/task_images/planet-02.jpg"" height=""50""></button><p><b>[press the space bar to lock in your answer]<b><br></p>",32,,,,,,,,,,,,,,,,,,,,,,,,
instruc_prac_game,24,280473,0.0-10.0-0.0,"""event"",""trial"",""time""
""fullscreenenter"",""1"",""5419""
","
","
","""event"",""trial"",""time""
""fullscreenenter"",""1"",""5419""
","
",,null,run_exp/static/audio/clip_9_practice.m4a,null,"<p> Are you ready to play a practice game? </p> <p>In this practice game, you'll be digging up barrels of gems. But, in the real game, you'll be digging up the gems themselves. </p>",,,,,,,,,,,,,,,,,,,,,,,
html-button-response,25,283596,0.0-10.0-1.0,"""event"",""trial"",""time""
""fullscreenenter"",""1"",""5419""
","
","
","""event"",""trial"",""time""
""fullscreenenter"",""1"",""5419""
","
",,3121.4,"<p> Are you ready to play a practice game? </p> <p>In this practice game, you'll be digging up barrels of gems. But, in the real game, you'll be digging up the gems themselves. </p>",,,,,,,0,,,,,,,,,,,,,,,,,,
alien_welcome_prac,26,288605,0.0-11.0-0.0,"""event"",""trial"",""time""
""fullscreenenter"",""1"",""5419""
","
","
","""event"",""trial"",""time""
""fullscreenenter"",""1"",""5419""
","
",,null,run_exp/static/images/task_images/aliens/practice_aliens/planet/alien_planet-5.jpg,null,,,,,,,,,,,,,,,,,,,,,,,,
land_prac,27,289115,0.0-11.0-1.0,"""event"",""trial"",""time""
""fullscreenenter"",""1"",""5419""
","
","
","""event"",""trial"",""time""
""fullscreenenter"",""1"",""5419""
","
",,null,run_exp/static/images/task_images/land.jpg,null,,,,,,,107,,,0,,,,,,,,,,,,,,
dig_prac,28,291125,0.0-11.0-2.0,"""event"",""trial"",""time""
""fullscreenenter"",""1"",""5419""
","
","
","""event"",""trial"",""time""
""fullscreenenter"",""1"",""5419""
","
",,,,,,,,,,,,"[{""stimulus"":""run_exp/static/images/task_images/dig.jpg"",""time"":0.5},{""stimulus"":""run_exp/static/images/task_images/land.jpg"",""time"":670.2000000476837},{""stimulus"":""run_exp/static/images/task_images/dig.jpg"",""time"":1344.7000000476837}]",[],,,,,,,,,,,,,,,
harvest_prac,29,292134,0.0-11.0-3.0,"""event"",""trial"",""time""
""fullscreenenter"",""1"",""5419""
","
","
","""event"",""trial"",""time""
""fullscreenenter"",""1"",""5419""
","
",,null,run_exp/static/images/task_images/barrel_text.jpg,null,,,,,,,,,,,,,,,,,,,,,,,,
decision_prac,30,292971,0.0-11.0-4.0,"""event"",""trial"",""time""
""fullscreenenter"",""1"",""5419""
","
","
","""event"",""trial"",""time""
""fullscreenenter"",""1"",""5419""
","
",,834,run_exp/static/images/task_images/land.jpg,65,,,,,,,,,,,1,,,,,,,,,,,,,
dig_prac,31,294979,0.0-12.0-0.0,"""event"",""trial"",""time""
""fullscreenenter"",""1"",""5419""
","
","
","""event"",""trial"",""time""
""fullscreenenter"",""1"",""5419""
","
",,,,,,,,,,,,"[{""stimulus"":""run_exp/static/images/task_images/dig.jpg"",""time"":0.20000004768371582},{""stimulus"":""run_exp/static/images/task_images/land.jpg"",""time"":670.9000000953674},{""stimulus"":""run_exp/static/images/task_images/dig.jpg"",""time"":1340.7000000476837}]",[],,,,,,,,,,,,,,,
harvest_prac,32,295982,0.0-12.0-1.0,"""event"",""trial"",""time""
""fullscreenenter"",""1"",""5419""
","
","
","""event"",""trial"",""time""
""fullscreenenter"",""1"",""5419""
","
",,null,run_exp/static/images/task_images/barrel_text.jpg,null,,,,,,,,,,,,,,,,,,,,,,,,
decision_prac,33,296470,0.0-12.0-2.0,"""event"",""trial"",""time""
""fullscreenenter"",""1"",""5419""
","
","
","""event"",""trial"",""time""
""fullscreenenter"",""1"",""5419""
","
",,485.5,run_exp/static/images/task_images/land.jpg,65,,,,,,,,,,,2,,,,,,,,,,,,,
dig_prac,34,298484,0.0-13.0-0.0,"""event"",""trial"",""time""
""fullscreenenter"",""1"",""5419""
","
","
","""event"",""trial"",""time""
""fullscreenenter"",""1"",""5419""
","
",,,,,,,,,,,,"[{""stimulus"":""run_exp/static/images/task_images/dig.jpg"",""time"":0.09999990463256836},{""stimulus"":""run_exp/static/images/task_images/land.jpg"",""time"":677.7999999523163},{""stimulus"":""run_exp/static/images/task_images/dig.jpg"",""time"":1337.1999999284744}]",[],,,,,,,,,,,,,,,
harvest_prac,35,299494,0.0-13.0-1.0,"""event"",""trial"",""time""
""fullscreenenter"",""1"",""5419""
","
","
","""event"",""trial"",""time""
""fullscreenenter"",""1"",""5419""
","
",,null,run_exp/static/images/task_images/barrel_text.jpg,null,,,,,,,,,,,,,,,,,,,,,,,,
decision_prac,36,299638,0.0-13.0-2.0,"""event"",""trial"",""time""
""fullscreenenter"",""1"",""5419""
","
","
","""event"",""trial"",""time""
""fullscreenenter"",""1"",""5419""
","
",,142,run_exp/static/images/task_images/land.jpg,65,,,,,,,,,,,3,,,,,,,,,,,,,
dig_prac,37,301654,0.0-14.0-0.0,"""event"",""trial"",""time""
""fullscreenenter"",""1"",""5419""
","
","
","""event"",""trial"",""time""
""fullscreenenter"",""1"",""5419""
","
",,,,,,,,,,,,"[{""stimulus"":""run_exp/static/images/task_images/dig.jpg"",""time"":0.20000004768371582},{""stimulus"":""run_exp/static/images/task_images/land.jpg"",""time"":673.7000000476837},{""stimulus"":""run_exp/static/images/task_images/dig.jpg"",""time"":1338.1000000238419}]",[],,,,,,,,,,,,,,,
harvest_prac,38,302658,0.0-14.0-1.0,"""event"",""trial"",""time""
""fullscreenenter"",""1"",""5419""
","
","
","""event"",""trial"",""time""
""fullscreenenter"",""1"",""5419""
","
",,null,run_exp/static/images/task_images/barrel_text.jpg,null,,,,,,,,,,,,,,,,,,,,,,,,
decision_prac,39,302989,0.0-14.0-2.0,"""event"",""trial"",""time""
""fullscreenenter"",""1"",""5419""
","
","
","""event"",""trial"",""time""
""fullscreenenter"",""1"",""5419""
","
",,328.5,run_exp/static/images/task_images/land.jpg,65,,,,,,,,,,,4,,,,,,,,,,,,,
dig_prac,40,305004,0.0-15.0-0.0,"""event"",""trial"",""time""
""fullscreenenter"",""1"",""5419""
","
","
","""event"",""trial"",""time""
""fullscreenenter"",""1"",""5419""
","
",,,,,,,,,,,,"[{""stimulus"":""run_exp/static/images/task_images/dig.jpg"",""time"":0.30000007152557373},{""stimulus"":""run_exp/static/images/task_images/land.jpg"",""time"":676.4000000953674},{""stimulus"":""run_exp/static/images/task_images/dig.jpg"",""time"":1339.1000000238419}]",[],,,,,,,,,,,,,,,
harvest_prac,41,306014,0.0-15.0-1.0,"""event"",""trial"",""time""
""fullscreenenter"",""1"",""5419""
","
","
","""event"",""trial"",""time""
""fullscreenenter"",""1"",""5419""
","
",,null,run_exp/static/images/task_images/barrel_text.jpg,null,,,,,,,,,,,,,,,,,,,,,,,,
decision_prac,42,306386,0.0-15.0-2.0,"""event"",""trial"",""time""
""fullscreenenter"",""1"",""5419""
","
","
","""event"",""trial"",""time""
""fullscreenenter"",""1"",""5419""
","
",,369.5999999,run_exp/static/images/task_images/land.jpg,65,,,,,,,,,,,,1,,,,,,,,,,,,
quiz_instruc,43,314656,0.0-16.0-0.0,"""event"",""trial"",""time""
""fullscreenenter"",""1"",""5419""
","
","
","""event"",""trial"",""time""
""fullscreenenter"",""1"",""5419""
","
",,8266.5,run_exp/static/audio/clip_10_quiz.m4a,,,,,,,0,,,,,,,,,,,,,,,,,,
instruc_repeat,44,357400,0.0-16.0-1.0,"""event"",""trial"",""time""
""fullscreenenter"",""1"",""5419""
","
","
","""event"",""trial"",""time""
""fullscreenenter"",""1"",""5419""
","
",,null,"<p> Are you ready to play a practice game? </p> <p>In this practice game, you'll be digging up barrels of gems. But, in the real game, you'll be digging up the gems themselves. </p>",null,"<p>In this game, your goal is to collect as many gems as you can. That’s how you will win bonus money. </p> <p>The entire game will last 20 minutes no matter how many gems you collect or how many planets you visit. </p><p>To stay on a planet and dig again, press the letter A on your keyboard. To leave for a new planet, press the letter L.</p><p>The more you dig on a planet, the fewer gems you’ll get with each dig which is why you might consider leaving for a new planet. </p><p>When you arrive at a new planet, you’ll be greeted by an alien. What the alien looks like does not tell you anything about how much treasure is on the planet. </p>",,,,,,,,,,,,,,,,,,,,,,,
instruc_repeat_continue,45,360187,0.0-16.0-2.0,"""event"",""trial"",""time""
""fullscreenenter"",""1"",""5419""
","
","
","""event"",""trial"",""time""
""fullscreenenter"",""1"",""5419""
","
",,2785.8,"<p> Are you ready to play a practice game? </p> <p>In this practice game, you'll be digging up barrels of gems. But, in the real game, you'll be digging up the gems themselves. </p>",,,,,,,0,,,,,,,,,,,,,,,,,,
quiz_q_1_ask,46,364649,0.0-16.0-3.0,"""event"",""trial"",""time""
""fullscreenenter"",""1"",""5419""
","
","
","""event"",""trial"",""time""
""fullscreenenter"",""1"",""5419""
","
",,4460.4,run_exp/static/audio/clip_11_q1_ask.m4a,,,,,,,2,,,,,,,,,,,,,,,,,,
quiz_q_1_fb_correct,47,368493,0.0-17.0-0.0,"""event"",""trial"",""time""
""fullscreenenter"",""1"",""5419""
","
","
","""event"",""trial"",""time""
""fullscreenenter"",""1"",""5419""
","
",,null,run_exp/static/audio/clip_12_q1_correct.m4a,null,<p>That’s correct. You win extra money by collecting more gems.</p>,,,,,,,,,,,,,,,,,,,,,,,
quiz_q_2_ask,48,378154,0.0-17.0-1.0,"""event"",""trial"",""time""
""fullscreenenter"",""1"",""5419""
","
","
","""event"",""trial"",""time""
""fullscreenenter"",""1"",""5419""
","
",,9657.7,run_exp/static/audio/clip_14_q2_ask.m4a,,,,,,,1,,,,,,,,,,,,,,,,,,
quiz_q_2_fb_correct,49,382146,0.0-18.0-0.0,"""event"",""trial"",""time""
""fullscreenenter"",""1"",""5419""
","
","
","""event"",""trial"",""time""
""fullscreenenter"",""1"",""5419""
","
",,null,run_exp/static/audio/clip_15_q2_correct.m4a,null,<p>That’s correct. The experiment is 20 minutes no matter what.</p>,,,,,,,,,,,,,,,,,,,,,,,
quiz_q_3_ask,50,396433,0.0-18.0-1.0,"""event"",""trial"",""time""
""fullscreenenter"",""1"",""5419""
","
","
","""event"",""trial"",""time""
""fullscreenenter"",""1"",""5419""
","
",,14285.6,run_exp/static/audio/clip_17_q3_ask.m4a,,,,,,,1,,,,,,,,,,,,,,,,,,
quiz_q_3_fb_correct,51,400386,0.0-19.0-0.0,"""event"",""trial"",""time""
""fullscreenenter"",""1"",""5419""
","
","
","""event"",""trial"",""time""
""fullscreenenter"",""1"",""5419""
","
",,null,run_exp/static/audio/clip_18_q3_correct.m4a,null,<p> That’s correct. You press the letter L to travel to a new planet.</p>,,,,,,,,,,,,,,,,,,,,,,,
quiz_q_4_ask,52,403395,0.0-19.0-1.0,"""event"",""trial"",""time""
""fullscreenenter"",""1"",""5419""
","
","
","""event"",""trial"",""time""
""fullscreenenter"",""1"",""5419""
","
",,3007.4,run_exp/static/audio/clip_20_q4_ask.m4a,,,,,,,0,,,,,,,,,,,,,,,,,,
quiz_q_4_fb_correct,53,408706,0.0-20.0-0.0,"""event"",""trial"",""time""
""fullscreenenter"",""1"",""5419""
","
","
","""event"",""trial"",""time""
""fullscreenenter"",""1"",""5419""
","
",,null,run_exp/static/audio/clip_21_q4_correct.m4a,null,<p> That’s correct. The more you dig on a planet the fewer gems you’ll get with each dig. </p>,,,,,,,,,,,,,,,,,,,,,,,
quiz_q_5_ask,54,410827,0.0-20.0-1.0,"""event"",""trial"",""time""
""fullscreenenter"",""1"",""5419""
","
","
","""event"",""trial"",""time""
""fullscreenenter"",""1"",""5419""
","
",,2118,run_exp/static/audio/clip_23_q5_ask.m4a,,,,,,,1,,,,,,,,,,,,,,,,,,
quiz_q_5_fb_correct,55,415810,0.0-21.0-0.0,"""event"",""trial"",""time""
""fullscreenenter"",""1"",""5419""
","
","
","""event"",""trial"",""time""
""fullscreenenter"",""1"",""5419""
","
",,null,run_exp/static/audio/clip_24_q5_correct.m4a,null,<p> That’s correct. The alien tells you nothing about how much treasure is on the planet.</p>,,,,,,,,,,,,,,,,,,,,,,,
quiz_correct,56,419244,0.0-22.0-0.0,"""event"",""trial"",""time""
""fullscreenenter"",""1"",""5419""
","
","
","""event"",""trial"",""time""
""fullscreenenter"",""1"",""5419""
","
",,null,run_exp/static/audio/clip_26_correct_quiz.m4a,null,,,,,,,,,,,,,,,,,,,,,,,,
quiz_correct_continue,57,420513,0.0-22.0-1.0,"""event"",""trial"",""time""
""fullscreenenter"",""1"",""5419""
","
","
","""event"",""trial"",""time""
""fullscreenenter"",""1"",""5419""
","
",,1266.4,<p>Good job! You're now ready to move on to the real game!</p>,,,,,,,0,,,,,,,,,,,,,,,,,,
audio-keyboard-response,58,430615,0.0-22.0-2.0,"""event"",""trial"",""time""
""fullscreenenter"",""1"",""5419""
","
","
","""event"",""trial"",""time""
""fullscreenenter"",""1"",""5419""
","
",,null,run_exp/static/audio/clip_28_real_game.m4a,null,,,,,,,,,,,,,,,,,,,,,,,,
instruc_begin_exp_contine,59,431987,0.0-22.0-3.0,"""event"",""trial"",""time""
""fullscreenenter"",""1"",""5419""
","
","
","""event"",""trial"",""time""
""fullscreenenter"",""1"",""5419""
","
",,1370.6,"<p>Now that you know how  to dig for space treasure and travel to new planets,you can start exploring! </p><p>Do you want to go over the instructions again or get started with the real game?</p>",,,,,,,1,,,,,,1,,,,,,,,,,,,
alien_welcome,60,436996,0.0-23.0-0.0,"""event"",""trial"",""time""
""fullscreenenter"",""1"",""5419""
","
","
","""event"",""trial"",""time""
""fullscreenenter"",""1"",""5419""
","
",,null,run_exp/static/images/task_images/aliens/old_aliens/planet/alien_planet-27.jpg,null,,,,,,,,,,,,,27,"27,73,4,26,66,56,19,58,71,20,44,48,76,79,77,15,39,29,14,46,40,55,7,74,64,61,33,36,11,65,43,70,54,5,62,41",,,,,,,,,,
land,61,437509,0.0-23.0-1.0,"""event"",""trial"",""time""
""fullscreenenter"",""1"",""5419""
","
","
","""event"",""trial"",""time""
""fullscreenenter"",""1"",""5419""
","
",,null,run_exp/static/images/task_images/land.jpg,null,,,,,,,101,,,1,,,,,,,,,,,,,,
dig,62,439523,0.0-23.0-2.0,"""event"",""trial"",""time""
""fullscreenenter"",""1"",""5419""
","
","
","""event"",""trial"",""time""
""fullscreenenter"",""1"",""5419""
","
",,,,,,,,,,,,"[{""stimulus"":""run_exp/static/images/task_images/dig.jpg"",""time"":0.5},{""stimulus"":""run_exp/static/images/task_images/land.jpg"",""time"":677.8999999761581},{""stimulus"":""run_exp/static/images/task_images/dig.jpg"",""time"":1342.1000000238419}]",[],1,,,,,,,,,,,,,,
harvest,63,440532,0.0-23.0-3.0,"""event"",""trial"",""time""
""fullscreenenter"",""1"",""5419""
","
","
","""event"",""trial"",""time""
""fullscreenenter"",""1"",""5419""
","
",,null,run_exp/static/images/task_images/gems/101.jpg,null,,,,,,,19,,,1,,,,,101,0.190559292,0.188118812,,,,,,,
decision,64,440775,0.0-23.0-4.0,"""event"",""trial"",""time""
""fullscreenenter"",""1"",""5419""
","
","
","""event"",""trial"",""time""
""fullscreenenter"",""1"",""5419""
","
",,239.7,run_exp/static/images/task_images/land.jpg,65,,,,,,,19,,,1,,,,,,,,8787,1,0,FALSE,,,
dig,65,443545,0.0-24.0-0.0,"""event"",""trial"",""time""
""fullscreenenter"",""1"",""5419""
","
","
","""event"",""trial"",""time""
""fullscreenenter"",""1"",""5419""
","
",,,,,,,,,,,,"[{""stimulus"":""run_exp/static/images/task_images/dig.jpg"",""time"":0.19999992847442627},{""stimulus"":""run_exp/static/images/task_images/land.jpg"",""time"":927.7999999523163},{""stimulus"":""run_exp/static/images/task_images/dig.jpg"",""time"":1845.7999999523163}]",[],1,,,,,,,,,,,,,,
harvest,66,444553,0.0-24.0-1.0,"""event"",""trial"",""time""
""fullscreenenter"",""1"",""5419""
","
","
","""event"",""trial"",""time""
""fullscreenenter"",""1"",""5419""
","
",,null,run_exp/static/images/task_images/gems/19.jpg,null,,,,,,,6,,,1,,,,,19,0.298910236,0.315789474,,,,,,,
decision,67,445084,0.0-24.0-2.0,"""event"",""trial"",""time""
""fullscreenenter"",""1"",""5419""
","
","
","""event"",""trial"",""time""
""fullscreenenter"",""1"",""5419""
","
",,529,run_exp/static/images/task_images/land.jpg,65,,,,,,,6,,,1,,,,,,,,13095,1,1,FALSE,,,
dig,68,447562,0.0-25.0-0.0,"""event"",""trial"",""time""
""fullscreenenter"",""1"",""5419""
","
","
","""event"",""trial"",""time""
""fullscreenenter"",""1"",""5419""
","
",,,,,,,,,,,,"[{""stimulus"":""run_exp/static/images/task_images/dig.jpg"",""time"":0.20000004768371582},{""stimulus"":""run_exp/static/images/task_images/land.jpg"",""time"":825.2000000476837},{""stimulus"":""run_exp/static/images/task_images/dig.jpg"",""time"":1653.7000000476837}]",[],1,,,,,,,,,,,,,,
harvest,69,448572,0.0-25.0-1.0,"""event"",""trial"",""time""
""fullscreenenter"",""1"",""5419""
","
","
","""event"",""trial"",""time""
""fullscreenenter"",""1"",""5419""
","
",,null,run_exp/static/images/task_images/gems/6.jpg,null,,,,,,,2,,,1,,,,,6,0.320433174,0.333333333,,,,,,,
decision,70,449703,0.0-25.0-2.0,"""event"",""trial"",""time""
""fullscreenenter"",""1"",""5419""
","
","
","""event"",""trial"",""time""
""fullscreenenter"",""1"",""5419""
","
",,1129.1,run_exp/static/images/task_images/land.jpg,65,,,,,,,2,,,1,,,,,,,,17715,1,2,FALSE,,,
dig,71,451585,0.0-26.0-0.0,"""event"",""trial"",""time""
""fullscreenenter"",""1"",""5419""
","
","
","""event"",""trial"",""time""
""fullscreenenter"",""1"",""5419""
","
",,,,,,,,,,,,"[{""stimulus"":""run_exp/static/images/task_images/dig.jpg"",""time"":0.20000004768371582},{""stimulus"":""run_exp/static/images/task_images/land.jpg"",""time"":633.8000000715256},{""stimulus"":""run_exp/static/images/task_images/dig.jpg"",""time"":1255.3000000715256}]",[],1,,,,,,,,,,,,,,
harvest,72,452592,0.0-26.0-1.0,"""event"",""trial"",""time""
""fullscreenenter"",""1"",""5419""
","
","
","""event"",""trial"",""time""
""fullscreenenter"",""1"",""5419""
","
",,null,run_exp/static/images/task_images/gems/2.jpg,null,,,,,,,0,,,1,,,,,2,0.215568986,0,,,,,,,
decision,73,452667,0.0-26.0-2.0,"""event"",""trial"",""time""
""fullscreenenter"",""1"",""5419""
","
","
","""event"",""trial"",""time""
""fullscreenenter"",""1"",""5419""
","
",,72.19999993,run_exp/static/images/task_images/land.jpg,76,,,,,,,0,,,1,,,,,,,,20678,1,3,TRUE,,,
travel,74,462602,0.0-27.0-0.0,"""event"",""trial"",""time""
""fullscreenenter"",""1"",""5419""
","
","
","""event"",""trial"",""time""
""fullscreenenter"",""1"",""5419""
","
",,,,,,,,,,,,"[{""stimulus"":""run_exp/static/images/task_images/rocket-01.jpg"",""time"":0.20000004768371582},{""stimulus"":""run_exp/static/images/task_images/rocket-02.jpg"",""time"":1106.3000000715256},{""stimulus"":""run_exp/static/images/task_images/rocket-03.jpg"",""time"":2213.8000000715256},{""stimulus"":""run_exp/static/images/task_images/rocket-04.jpg"",""time"":3318.3000000715256},{""stimulus"":""run_exp/static/images/task_images/rocket-05.jpg"",""time"":4422.200000047684},{""stimulus"":""run_exp/static/images/task_images/rocket-06.jpg"",""time"":5522.200000047684},{""stimulus"":""run_exp/static/images/task_images/rocket-07.jpg"",""time"":6630.600000023842},{""stimulus"":""run_exp/static/images/task_images/rocket-08.jpg"",""time"":7732.100000023842},{""stimulus"":""run_exp/static/images/task_images/rocket-09.jpg"",""time"":8830.600000023842}]",[],1,,,,,,,,,,,,,,
alien_welcome,75,467612,0.0-27.0-1.0,"""event"",""trial"",""time""
""fullscreenenter"",""1"",""5419""
","
","
","""event"",""trial"",""time""
""fullscreenenter"",""1"",""5419""
","
",,null,run_exp/static/images/task_images/aliens/old_aliens/planet/alien_planet-73.jpg,null,,,,,,,,,,,,,73,"27,73,4,26,66,56,19,58,71,20,44,48,76,79,77,15,39,29,14,46,40,55,7,74,64,61,33,36,11,65,43,70,54,5,62,41",,,,,,,,,,
land,76,468122,0.0-27.0-2.0,"""event"",""trial"",""time""
""fullscreenenter"",""1"",""5419""
","
","
","""event"",""trial"",""time""
""fullscreenenter"",""1"",""5419""
","
",,null,run_exp/static/images/task_images/land.jpg,null,,,,,,,106,,,2,,,,,,,,,,,,,,
dig,77,470132,0.0-27.0-3.0,"""event"",""trial"",""time""
""fullscreenenter"",""1"",""5419""
","
","
","""event"",""trial"",""time""
""fullscreenenter"",""1"",""5419""
","
",,,,,,,,,,,,"[{""stimulus"":""run_exp/static/images/task_images/dig.jpg"",""time"":0.5},{""stimulus"":""run_exp/static/images/task_images/land.jpg"",""time"":678.1000000238419},{""stimulus"":""run_exp/static/images/task_images/dig.jpg"",""time"":1336.6000000238419}]",[],2,,,,,,,,,,,,,,
harvest,78,471141,0.0-27.0-4.0,"""event"",""trial"",""time""
""fullscreenenter"",""1"",""5419""
","
","
","""event"",""trial"",""time""
""fullscreenenter"",""1"",""5419""
","
",,null,run_exp/static/images/task_images/gems/106.jpg,null,,,,,,,17,,,2,,,,,106,0.159170154,0.160377358,,,,,,,
decision,79,471538,0.0-27.0-5.0,"""event"",""trial"",""time""
""fullscreenenter"",""1"",""5419""
","
","
","""event"",""trial"",""time""
""fullscreenenter"",""1"",""5419""
","
",,395,run_exp/static/images/task_images/land.jpg,65,,,,,,,17,,,2,,,,,,,,39549,1,0,FALSE,,,
dig,80,474152,0.0-28.0-0.0,"""event"",""trial"",""time""
""fullscreenenter"",""1"",""5419""
","
","
","""event"",""trial"",""time""
""fullscreenenter"",""1"",""5419""
","
",,,,,,,,,,,,"[{""stimulus"":""run_exp/static/images/task_images/dig.jpg"",""time"":0.30000007152557373},{""stimulus"":""run_exp/static/images/task_images/land.jpg"",""time"":874.6000000238419},{""stimulus"":""run_exp/static/images/task_images/dig.jpg"",""time"":1740.2000000476837}]",[],2,,,,,,,,,,,,,,
harvest,81,475162,0.0-28.0-1.0,"""event"",""trial"",""time""
""fullscreenenter"",""1"",""5419""
","
","
","""event"",""trial"",""time""
""fullscreenenter"",""1"",""5419""
","
",,null,run_exp/static/images/task_images/gems/17.jpg,null,,,,,,,4,,,2,,,,,17,0.225982903,0.235294118,,,,,,,
decision,82,475550,0.0-28.0-2.0,"""event"",""trial"",""time""
""fullscreenenter"",""1"",""5419""
","
","
","""event"",""trial"",""time""
""fullscreenenter"",""1"",""5419""
","
",,385.6,run_exp/static/images/task_images/land.jpg,76,,,,,,,4,,,2,,,,,,,,43561,1,1,TRUE,,,
travel,83,485172,0.0-29.0-0.0,"""event"",""trial"",""time""
""fullscreenenter"",""1"",""5419""
","
","
","""event"",""trial"",""time""
""fullscreenenter"",""1"",""5419""
","
",,,,,,,,,,,,"[{""stimulus"":""run_exp/static/images/task_images/rocket-01.jpg"",""time"":0.10000002384185791},{""stimulus"":""run_exp/static/images/task_images/rocket-02.jpg"",""time"":1072.5},{""stimulus"":""run_exp/static/images/task_images/rocket-03.jpg"",""time"":2143.2999999523163},{""stimulus"":""run_exp/static/images/task_images/rocket-04.jpg"",""time"":3207.2999999523163},{""stimulus"":""run_exp/static/images/task_images/rocket-05.jpg"",""time"":4278.299999952316},{""stimulus"":""run_exp/static/images/task_images/rocket-06.jpg"",""time"":5343.100000023842},{""stimulus"":""run_exp/static/images/task_images/rocket-07.jpg"",""time"":6418.699999928474},{""stimulus"":""run_exp/static/images/task_images/rocket-08.jpg"",""time"":7478.899999976158},{""stimulus"":""run_exp/static/images/task_images/rocket-09.jpg"",""time"":8552.899999976158}]",[],2,,,,,,,,,,,,,,
alien_welcome,84,490177,0.0-29.0-1.0,"""event"",""trial"",""time""
""fullscreenenter"",""1"",""5419""
","
","
","""event"",""trial"",""time""
""fullscreenenter"",""1"",""5419""
","
",,null,run_exp/static/images/task_images/aliens/old_aliens/planet/alien_planet-4.jpg,null,,,,,,,,,,,,,4,"27,73,4,26,66,56,19,58,71,20,44,48,76,79,77,15,39,29,14,46,40,55,7,74,64,61,33,36,11,65,43,70,54,5,62,41",,,,,,,,,,
land,85,490692,0.0-29.0-2.0,"""event"",""trial"",""time""
""fullscreenenter"",""1"",""5419""
","
","
","""event"",""trial"",""time""
""fullscreenenter"",""1"",""5419""
","
",,null,run_exp/static/images/task_images/land.jpg,null,,,,,,,97,,,3,,,,,,,,,,,,,,
dig,86,492707,0.0-29.0-3.0,"""event"",""trial"",""time""
""fullscreenenter"",""1"",""5419""
","
","
","""event"",""trial"",""time""
""fullscreenenter"",""1"",""5419""
","
",,,,,,,,,,,,"[{""stimulus"":""run_exp/static/images/task_images/dig.jpg"",""time"":0.3999999761581421},{""stimulus"":""run_exp/static/images/task_images/land.jpg"",""time"":678.0999999046326},{""stimulus"":""run_exp/static/images/task_images/dig.jpg"",""time"":1339.5}]",[],3,,,,,,,,,,,,,,
harvest,87,493712,0.0-29.0-4.0,"""event"",""trial"",""time""
""fullscreenenter"",""1"",""5419""
","
","
","""event"",""trial"",""time""
""fullscreenenter"",""1"",""5419""
","
",,null,run_exp/static/images/task_images/gems/97.jpg,null,,,,,,,58,,,3,,,,,97,0.596610139,0.597938144,,,,,,,
decision,88,494190,0.0-29.0-5.0,"""event"",""trial"",""time""
""fullscreenenter"",""1"",""5419""
","
","
","""event"",""trial"",""time""
""fullscreenenter"",""1"",""5419""
","
",,475.6,run_exp/static/images/task_images/land.jpg,65,,,,,,,58,,,3,,,,,,,,62201,1,0,FALSE,,,
dig,89,496722,0.0-30.0-0.0,"""event"",""trial"",""time""
""fullscreenenter"",""1"",""5419""
","
","
","""event"",""trial"",""time""
""fullscreenenter"",""1"",""5419""
","
",,,,,,,,,,,,"[{""stimulus"":""run_exp/static/images/task_images/dig.jpg"",""time"":0.10000002384185791},{""stimulus"":""run_exp/static/images/task_images/land.jpg"",""time"":849.2000000476837},{""stimulus"":""run_exp/static/images/task_images/dig.jpg"",""time"":1689.3000000715256}]",[],3,,,,,,,,,,,,,,
harvest,90,497732,0.0-30.0-1.0,"""event"",""trial"",""time""
""fullscreenenter"",""1"",""5419""
","
","
","""event"",""trial"",""time""
""fullscreenenter"",""1"",""5419""
","
",,null,run_exp/static/images/task_images/gems/58.jpg,null,,,,,,,25,,,3,,,,,58,0.43695849,0.431034483,,,,,,,
decision,91,497736,0.0-30.0-2.0,"""event"",""trial"",""time""
""fullscreenenter"",""1"",""5419""
","
","
","""event"",""trial"",""time""
""fullscreenenter"",""1"",""5419""
","
",,2,run_exp/static/images/task_images/land.jpg,65,,,,,,,25,,,3,,,,,,,,65747,1,1,FALSE,,,
dig,92,500748,0.0-31.0-0.0,"""event"",""trial"",""time""
""fullscreenenter"",""1"",""5419""
","
","
","""event"",""trial"",""time""
""fullscreenenter"",""1"",""5419""
","
",,,,,,,,,,,,"[{""stimulus"":""run_exp/static/images/task_images/dig.jpg"",""time"":0.20000004768371582},{""stimulus"":""run_exp/static/images/task_images/land.jpg"",""time"":1009.8000000715256},{""stimulus"":""run_exp/static/images/task_images/dig.jpg"",""time"":2009.4000000953674}]",[],3,,,,,,,,,,,,,,
harvest,93,501752,0.0-31.0-1.0,"""event"",""trial"",""time""
""fullscreenenter"",""1"",""5419""
","
","
","""event"",""trial"",""time""
""fullscreenenter"",""1"",""5419""
","
",,null,run_exp/static/images/task_images/gems/25.jpg,null,,,,,,,14,,,3,,,,,25,0.548925719,0.56,,,,,,,
decision,94,502326,0.0-31.0-2.0,"""event"",""trial"",""time""
""fullscreenenter"",""1"",""5419""
","
","
","""event"",""trial"",""time""
""fullscreenenter"",""1"",""5419""
","
",,571.8,run_exp/static/images/task_images/land.jpg,65,,,,,,,14,,,3,,,,,,,,70337,1,2,FALSE,,,
dig,95,504762,0.0-32.0-0.0,"""event"",""trial"",""time""
""fullscreenenter"",""1"",""5419""
","
","
","""event"",""trial"",""time""
""fullscreenenter"",""1"",""5419""
","
",,,,,,,,,,,,"[{""stimulus"":""run_exp/static/images/task_images/dig.jpg"",""time"":0.10000002384185791},{""stimulus"":""run_exp/static/images/task_images/land.jpg"",""time"":816.3000000715256},{""stimulus"":""run_exp/static/images/task_images/dig.jpg"",""time"":1622.1000000238419}]",[],3,,,,,,,,,,,,,,
harvest,96,505771,0.0-32.0-1.0,"""event"",""trial"",""time""
""fullscreenenter"",""1"",""5419""
","
","
","""event"",""trial"",""time""
""fullscreenenter"",""1"",""5419""
","
",,null,run_exp/static/images/task_images/gems/14.jpg,null,,,,,,,8,,,3,,,,,14,0.567928287,0.571428571,,,,,,,
decision,97,506263,0.0-32.0-2.0,"""event"",""trial"",""time""
""fullscreenenter"",""1"",""5419""
","
","
","""event"",""trial"",""time""
""fullscreenenter"",""1"",""5419""
","
",,489.7,run_exp/static/images/task_images/land.jpg,76,,,,,,,8,,,3,,,,,,,,74274,1,3,TRUE,,,
travel,98,515776,0.0-33.0-0.0,"""event"",""trial"",""time""
""fullscreenenter"",""1"",""5419""
","
","
","""event"",""trial"",""time""
""fullscreenenter"",""1"",""5419""
","
",,,,,,,,,,,,"[{""stimulus"":""run_exp/static/images/task_images/rocket-01.jpg"",""time"":0.19999992847442627},{""stimulus"":""run_exp/static/images/task_images/rocket-02.jpg"",""time"":1064.8999999761581},{""stimulus"":""run_exp/static/images/task_images/rocket-03.jpg"",""time"":2117.1999999284744},{""stimulus"":""run_exp/static/images/task_images/rocket-04.jpg"",""time"":3174.899999976158},{""stimulus"":""run_exp/static/images/task_images/rocket-05.jpg"",""time"":4233.299999952316},{""stimulus"":""run_exp/static/images/task_images/rocket-06.jpg"",""time"":5284.799999952316},{""stimulus"":""run_exp/static/images/task_images/rocket-07.jpg"",""time"":6344.299999952316},{""stimulus"":""run_exp/static/images/task_images/rocket-08.jpg"",""time"":7399.099999904633},{""stimulus"":""run_exp/static/images/task_images/rocket-09.jpg"",""time"":8452.899999976158}]",[],3,,,,,,,,,,,,,,
alien_welcome,99,520788,0.0-33.0-1.0,"""event"",""trial"",""time""
""fullscreenenter"",""1"",""5419""
","
","
","""event"",""trial"",""time""
""fullscreenenter"",""1"",""5419""
","
",,null,run_exp/static/images/task_images/aliens/old_aliens/planet/alien_planet-26.jpg,null,,,,,,,,,,,,,26,"27,73,4,26,66,56,19,58,71,20,44,48,76,79,77,15,39,29,14,46,40,55,7,74,64,61,33,36,11,65,43,70,54,5,62,41",,,,,,,,,,
land,100,521292,0.0-33.0-2.0,"""event"",""trial"",""time""
""fullscreenenter"",""1"",""5419""
","
","
","""event"",""trial"",""time""
""fullscreenenter"",""1"",""5419""
","
",,null,run_exp/static/images/task_images/land.jpg,null,,,,,,,109,,,4,,,,,,,,,,,,,,
dig,101,523305,0.0-33.0-3.0,"""event"",""trial"",""time""
""fullscreenenter"",""1"",""5419""
","
","
","""event"",""trial"",""time""
""fullscreenenter"",""1"",""5419""
","
",,,,,,,,,,,,"[{""stimulus"":""run_exp/static/images/task_images/dig.jpg"",""time"":0.3999999761581421},{""stimulus"":""run_exp/static/images/task_images/land.jpg"",""time"":677.6999999284744},{""stimulus"":""run_exp/static/images/task_images/dig.jpg"",""time"":1337.8999999761581}]",[],4,,,,,,,,,,,,,,
harvest,102,524311,0.0-33.0-4.0,"""event"",""trial"",""time""
""fullscreenenter"",""1"",""5419""
","
","
","""event"",""trial"",""time""
""fullscreenenter"",""1"",""5419""
","
",,null,run_exp/static/images/task_images/gems/109.jpg,null,,,,,,,59,,,4,,,,,109,0.539996651,0.541284404,,,,,,,
decision,103,524699,0.0-33.0-5.0,"""event"",""trial"",""time""
""fullscreenenter"",""1"",""5419""
","
","
","""event"",""trial"",""time""
""fullscreenenter"",""1"",""5419""
","
",,385.6999999,run_exp/static/images/task_images/land.jpg,65,,,,,,,59,,,4,,,,,,,,92711,1,0,FALSE,,,
dig,104,527321,0.0-34.0-0.0,"""event"",""trial"",""time""
""fullscreenenter"",""1"",""5419""
","
","
","""event"",""trial"",""time""
""fullscreenenter"",""1"",""5419""
","
",,,,,,,,,,,,"[{""stimulus"":""run_exp/static/images/task_images/dig.jpg"",""time"":0.30000007152557373},{""stimulus"":""run_exp/static/images/task_images/land.jpg"",""time"":878.1000000238419},{""stimulus"":""run_exp/static/images/task_images/dig.jpg"",""time"":1749.6000000238419}]",[],4,,,,,,,,,,,,,,
harvest,105,528331,0.0-34.0-1.0,"""event"",""trial"",""time""
""fullscreenenter"",""1"",""5419""
","
","
","""event"",""trial"",""time""
""fullscreenenter"",""1"",""5419""
","
",,null,run_exp/static/images/task_images/gems/59.jpg,null,,,,,,,32,,,4,,,,,59,0.539781846,0.542372881,,,,,,,
decision,106,528690,0.0-34.0-2.0,"""event"",""trial"",""time""
""fullscreenenter"",""1"",""5419""
","
","
","""event"",""trial"",""time""
""fullscreenenter"",""1"",""5419""
","
",,356,run_exp/static/images/task_images/land.jpg,65,,,,,,,32,,,4,,,,,,,,96701,1,1,FALSE,,,
dig,107,531347,0.0-35.0-0.0,"""event"",""trial"",""time""
""fullscreenenter"",""1"",""5419""
","
","
","""event"",""trial"",""time""
""fullscreenenter"",""1"",""5419""
","
",,,,,,,,,,,,"[{""stimulus"":""run_exp/static/images/task_images/dig.jpg"",""time"":0.20000004768371582},{""stimulus"":""run_exp/static/images/task_images/land.jpg"",""time"":891.8999999761581},{""stimulus"":""run_exp/static/images/task_images/dig.jpg"",""time"":1773.2000000476837}]",[],4,,,,,,,,,,,,,,
harvest,108,532351,0.0-35.0-1.0,"""event"",""trial"",""time""
""fullscreenenter"",""1"",""5419""
","
","
","""event"",""trial"",""time""
""fullscreenenter"",""1"",""5419""
","
",,null,run_exp/static/images/task_images/gems/32.jpg,null,,,,,,,14,,,4,,,,,32,0.438853647,0.4375,,,,,,,
decision,109,532770,0.0-35.0-2.0,"""event"",""trial"",""time""
""fullscreenenter"",""1"",""5419""
","
","
","""event"",""trial"",""time""
""fullscreenenter"",""1"",""5419""
","
",,416.4,run_exp/static/images/task_images/land.jpg,76,,,,,,,14,,,4,,,,,,,,100781,1,2,TRUE,,,
travel,110,542351,0.0-36.0-0.0,"""event"",""trial"",""time""
""fullscreenenter"",""1"",""5419""
","
","
","""event"",""trial"",""time""
""fullscreenenter"",""1"",""5419""
","
",,,,,,,,,,,,"[{""stimulus"":""run_exp/static/images/task_images/rocket-01.jpg"",""time"":0.2999999523162842},{""stimulus"":""run_exp/static/images/task_images/rocket-02.jpg"",""time"":1068.7000000476837},{""stimulus"":""run_exp/static/images/task_images/rocket-03.jpg"",""time"":2130.7000000476837},{""stimulus"":""run_exp/static/images/task_images/rocket-04.jpg"",""time"":3198.399999976158},{""stimulus"":""run_exp/static/images/task_images/rocket-05.jpg"",""time"":4262},{""stimulus"":""run_exp/static/images/task_images/rocket-06.jpg"",""time"":5322.600000023842},{""stimulus"":""run_exp/static/images/task_images/rocket-07.jpg"",""time"":6388.600000023842},{""stimulus"":""run_exp/static/images/task_images/rocket-08.jpg"",""time"":7450.5},{""stimulus"":""run_exp/static/images/task_images/rocket-09.jpg"",""time"":8514.700000047684}]",[],4,,,,,,,,,,,,,,
alien_welcome,111,547361,0.0-36.0-1.0,"""event"",""trial"",""time""
""fullscreenenter"",""1"",""5419""
","
","
","""event"",""trial"",""time""
""fullscreenenter"",""1"",""5419""
","
",,null,run_exp/static/images/task_images/aliens/old_aliens/planet/alien_planet-66.jpg,null,,,,,,,,,,,,,66,"27,73,4,26,66,56,19,58,71,20,44,48,76,79,77,15,39,29,14,46,40,55,7,74,64,61,33,36,11,65,43,70,54,5,62,41",,,,,,,,,,
land,112,547871,0.0-36.0-2.0,"""event"",""trial"",""time""
""fullscreenenter"",""1"",""5419""
","
","
","""event"",""trial"",""time""
""fullscreenenter"",""1"",""5419""
","
",,null,run_exp/static/images/task_images/land.jpg,null,,,,,,,98,,,5,,,,,,,,,,,,,,
dig,113,549881,0.0-36.0-3.0,"""event"",""trial"",""time""
""fullscreenenter"",""1"",""5419""
","
","
","""event"",""trial"",""time""
""fullscreenenter"",""1"",""5419""
","
",,,,,,,,,,,,"[{""stimulus"":""run_exp/static/images/task_images/dig.jpg"",""time"":0.6000000238418579},{""stimulus"":""run_exp/static/images/task_images/land.jpg"",""time"":674.8000000715256},{""stimulus"":""run_exp/static/images/task_images/dig.jpg"",""time"":1345}]",[],5,,,,,,,,,,,,,,
harvest,114,550890,0.0-36.0-4.0,"""event"",""trial"",""time""
""fullscreenenter"",""1"",""5419""
","
","
","""event"",""trial"",""time""
""fullscreenenter"",""1"",""5419""
","
",,null,run_exp/static/images/task_images/gems/98.jpg,null,,,,,,,43,,,5,,,,,98,0.440923098,0.43877551,,,,,,,
decision,115,551383,0.0-36.0-5.0,"""event"",""trial"",""time""
""fullscreenenter"",""1"",""5419""
","
","
","""event"",""trial"",""time""
""fullscreenenter"",""1"",""5419""
","
",,490.9,run_exp/static/images/task_images/land.jpg,65,,,,,,,43,,,5,,,,,,,,119394,1,0,FALSE,,,
dig,116,553907,0.0-37.0-0.0,"""event"",""trial"",""time""
""fullscreenenter"",""1"",""5419""
","
","
","""event"",""trial"",""time""
""fullscreenenter"",""1"",""5419""
","
",,,,,,,,,,,,"[{""stimulus"":""run_exp/static/images/task_images/dig.jpg"",""time"":0.19999992847442627},{""stimulus"":""run_exp/static/images/task_images/land.jpg"",""time"":843.8999999761581},{""stimulus"":""run_exp/static/images/task_images/dig.jpg"",""time"":1680.1999999284744}]",[],5,,,,,,,,,,,,,,
harvest,117,554914,0.0-37.0-1.0,"""event"",""trial"",""time""
""fullscreenenter"",""1"",""5419""
","
","
","""event"",""trial"",""time""
""fullscreenenter"",""1"",""5419""
","
",,null,run_exp/static/images/task_images/gems/43.jpg,null,,,,,,,24,,,5,,,,,43,0.556703581,0.558139535,,,,,,,
decision,118,555377,0.0-37.0-2.0,"""event"",""trial"",""time""
""fullscreenenter"",""1"",""5419""
","
","
","""event"",""trial"",""time""
""fullscreenenter"",""1"",""5419""
","
",,460.5,run_exp/static/images/task_images/land.jpg,65,,,,,,,24,,,5,,,,,,,,123388,1,1,FALSE,,,
dig,119,557931,0.0-38.0-0.0,"""event"",""trial"",""time""
""fullscreenenter"",""1"",""5419""
","
","
","""event"",""trial"",""time""
""fullscreenenter"",""1"",""5419""
","
",,,,,,,,,,,,"[{""stimulus"":""run_exp/static/images/task_images/dig.jpg"",""time"":0.20000004768371582},{""stimulus"":""run_exp/static/images/task_images/land.jpg"",""time"":850.2000000476837},{""stimulus"":""run_exp/static/images/task_images/dig.jpg"",""time"":1700.2000000476837}]",[],5,,,,,,,,,,,,,,
harvest,120,558939,0.0-38.0-1.0,"""event"",""trial"",""time""
""fullscreenenter"",""1"",""5419""
","
","
","""event"",""trial"",""time""
""fullscreenenter"",""1"",""5419""
","
",,null,run_exp/static/images/task_images/gems/24.jpg,null,,,,,,,12,,,5,,,,,24,0.487094735,0.5,,,,,,,
decision,121,559242,0.0-38.0-2.0,"""event"",""trial"",""time""
""fullscreenenter"",""1"",""5419""
","
","
","""event"",""trial"",""time""
""fullscreenenter"",""1"",""5419""
","
",,300.6999999,run_exp/static/images/task_images/land.jpg,65,,,,,,,12,,,5,,,,,,,,127253,1,2,FALSE,,,
dig,122,561951,0.0-39.0-0.0,"""event"",""trial"",""time""
""fullscreenenter"",""1"",""5419""
","
","
","""event"",""trial"",""time""
""fullscreenenter"",""1"",""5419""
","
",,,,,,,,,,,,"[{""stimulus"":""run_exp/static/images/task_images/dig.jpg"",""time"":0.09999990463256836},{""stimulus"":""run_exp/static/images/task_images/land.jpg"",""time"":905.2999999523163},{""stimulus"":""run_exp/static/images/task_images/dig.jpg"",""time"":1805.3999999761581}]",[],5,,,,,,,,,,,,,,
harvest,123,562961,0.0-39.0-1.0,"""event"",""trial"",""time""
""fullscreenenter"",""1"",""5419""
","
","
","""event"",""trial"",""time""
""fullscreenenter"",""1"",""5419""
","
",,null,run_exp/static/images/task_images/gems/12.jpg,null,,,,,,,7,,,5,,,,,12,0.542276078,0.583333333,,,,,,,
decision,124,563298,0.0-39.0-2.0,"""event"",""trial"",""time""
""fullscreenenter"",""1"",""5419""
","
","
","""event"",""trial"",""time""
""fullscreenenter"",""1"",""5419""
","
",,334.9,run_exp/static/images/task_images/land.jpg,76,,,,,,,7,,,5,,,,,,,,131309,1,3,TRUE,,,
travel,125,572971,0.0-40.0-0.0,"""event"",""trial"",""time""
""fullscreenenter"",""1"",""5419""
","
","
","""event"",""trial"",""time""
""fullscreenenter"",""1"",""5419""
","
",,,,,,,,,,,,"[{""stimulus"":""run_exp/static/images/task_images/rocket-01.jpg"",""time"":0.19999992847442627},{""stimulus"":""run_exp/static/images/task_images/rocket-02.jpg"",""time"":1077.3999999761581},{""stimulus"":""run_exp/static/images/task_images/rocket-03.jpg"",""time"":2155.5},{""stimulus"":""run_exp/static/images/task_images/rocket-04.jpg"",""time"":3228.6999999284744},{""stimulus"":""run_exp/static/images/task_images/rocket-05.jpg"",""time"":4298.899999976158},{""stimulus"":""run_exp/static/images/task_images/rocket-06.jpg"",""time"":5368.599999904633},{""stimulus"":""run_exp/static/images/task_images/rocket-07.jpg"",""time"":6440.899999976158},{""stimulus"":""run_exp/static/images/task_images/rocket-08.jpg"",""time"":7525.299999952316},{""stimulus"":""run_exp/static/images/task_images/rocket-09.jpg"",""time"":8597.299999952316}]",[],5,,,,,,,,,,,,,,
alien_welcome,126,577979,0.0-40.0-1.0,"""event"",""trial"",""time""
""fullscreenenter"",""1"",""5419""
","
","
","""event"",""trial"",""time""
""fullscreenenter"",""1"",""5419""
","
",,null,run_exp/static/images/task_images/aliens/old_aliens/planet/alien_planet-56.jpg,null,,,,,,,,,,,,,56,"27,73,4,26,66,56,19,58,71,20,44,48,76,79,77,15,39,29,14,46,40,55,7,74,64,61,33,36,11,65,43,70,54,5,62,41",,,,,,,,,,
land,127,578491,0.0-40.0-2.0,"""event"",""trial"",""time""
""fullscreenenter"",""1"",""5419""
","
","
","""event"",""trial"",""time""
""fullscreenenter"",""1"",""5419""
","
",,null,run_exp/static/images/task_images/land.jpg,null,,,,,,,100,,,6,,,,,,,,,,,,,,
dig,128,580505,0.0-40.0-3.0,"""event"",""trial"",""time""
""fullscreenenter"",""1"",""5419""
","
","
","""event"",""trial"",""time""
""fullscreenenter"",""1"",""5419""
","
",,,,,,,,,,,,"[{""stimulus"":""run_exp/static/images/task_images/dig.jpg"",""time"":0.5},{""stimulus"":""run_exp/static/images/task_images/land.jpg"",""time"":678.0999999046326},{""stimulus"":""run_exp/static/images/task_images/dig.jpg"",""time"":1339.6999999284744}]",[],6,,,,,,,,,,,,,,
harvest,129,581511,0.0-40.0-4.0,"""event"",""trial"",""time""
""fullscreenenter"",""1"",""5419""
","
","
","""event"",""trial"",""time""
""fullscreenenter"",""1"",""5419""
","
",,null,run_exp/static/images/task_images/gems/100.jpg,null,,,,,,,81,,,6,,,,,100,0.811215936,0.81,,,,,,,
decision,130,582059,0.0-40.0-5.0,"""event"",""trial"",""time""
""fullscreenenter"",""1"",""5419""
","
","
","""event"",""trial"",""time""
""fullscreenenter"",""1"",""5419""
","
",,545.5999999,run_exp/static/images/task_images/land.jpg,65,,,,,,,81,,,6,,,,,,,,150070,1,0,FALSE,,,
dig,131,584531,0.0-41.0-0.0,"""event"",""trial"",""time""
""fullscreenenter"",""1"",""5419""
","
","
","""event"",""trial"",""time""
""fullscreenenter"",""1"",""5419""
","
",,,,,,,,,,,,"[{""stimulus"":""run_exp/static/images/task_images/dig.jpg"",""time"":0.10000002384185791},{""stimulus"":""run_exp/static/images/task_images/land.jpg"",""time"":827.3999999761581},{""stimulus"":""run_exp/static/images/task_images/dig.jpg"",""time"":1642.8999999761581}]",[],6,,,,,,,,,,,,,,
harvest,132,585534,0.0-41.0-1.0,"""event"",""trial"",""time""
""fullscreenenter"",""1"",""5419""
","
","
","""event"",""trial"",""time""
""fullscreenenter"",""1"",""5419""
","
",,null,run_exp/static/images/task_images/gems/81.jpg,null,,,,,,,66,,,6,,,,,81,0.817590461,0.814814815,,,,,,,
decision,133,585966,0.0-41.0-2.0,"""event"",""trial"",""time""
""fullscreenenter"",""1"",""5419""
","
","
","""event"",""trial"",""time""
""fullscreenenter"",""1"",""5419""
","
",,429.3,run_exp/static/images/task_images/land.jpg,65,,,,,,,66,,,6,,,,,,,,153977,1,1,FALSE,,,
dig,134,588547,0.0-42.0-0.0,"""event"",""trial"",""time""
""fullscreenenter"",""1"",""5419""
","
","
","""event"",""trial"",""time""
""fullscreenenter"",""1"",""5419""
","
",,,,,,,,,,,,"[{""stimulus"":""run_exp/static/images/task_images/dig.jpg"",""time"":0.19999992847442627},{""stimulus"":""run_exp/static/images/task_images/land.jpg"",""time"":861.7999999523163},{""stimulus"":""run_exp/static/images/task_images/dig.jpg"",""time"":1721.8999999761581}]",[],6,,,,,,,,,,,,,,
harvest,135,589551,0.0-42.0-1.0,"""event"",""trial"",""time""
""fullscreenenter"",""1"",""5419""
","
","
","""event"",""trial"",""time""
""fullscreenenter"",""1"",""5419""
","
",,null,run_exp/static/images/task_images/gems/66.jpg,null,,,,,,,52,,,6,,,,,66,0.795211247,0.787878788,,,,,,,
decision,136,589595,0.0-42.0-2.0,"""event"",""trial"",""time""
""fullscreenenter"",""1"",""5419""
","
","
","""event"",""trial"",""time""
""fullscreenenter"",""1"",""5419""
","
",,41.69999993,run_exp/static/images/task_images/land.jpg,65,,,,,,,52,,,6,,,,,,,,157606,1,2,FALSE,,,
dig,137,592570,0.0-43.0-0.0,"""event"",""trial"",""time""
""fullscreenenter"",""1"",""5419""
","
","
","""event"",""trial"",""time""
""fullscreenenter"",""1"",""5419""
","
",,,,,,,,,,,,"[{""stimulus"":""run_exp/static/images/task_images/dig.jpg"",""time"":0.20000004768371582},{""stimulus"":""run_exp/static/images/task_images/land.jpg"",""time"":992.7000000476837},{""stimulus"":""run_exp/static/images/task_images/dig.jpg"",""time"":1980.1000000238419}]",[],6,,,,,,,,,,,,,,
harvest,138,593578,0.0-43.0-1.0,"""event"",""trial"",""time""
""fullscreenenter"",""1"",""5419""
","
","
","""event"",""trial"",""time""
""fullscreenenter"",""1"",""5419""
","
",,null,run_exp/static/images/task_images/gems/52.jpg,null,,,,,,,42,,,6,,,,,52,0.808987738,0.807692308,,,,,,,
decision,139,593968,0.0-43.0-2.0,"""event"",""trial"",""time""
""fullscreenenter"",""1"",""5419""
","
","
","""event"",""trial"",""time""
""fullscreenenter"",""1"",""5419""
","
",,387.8,run_exp/static/images/task_images/land.jpg,65,,,,,,,42,,,6,,,,,,,,161979,1,3,FALSE,,,
dig,140,596591,0.0-44.0-0.0,"""event"",""trial"",""time""
""fullscreenenter"",""1"",""5419""
","
","
","""event"",""trial"",""time""
""fullscreenenter"",""1"",""5419""
","
",,,,,,,,,,,,"[{""stimulus"":""run_exp/static/images/task_images/dig.jpg"",""time"":0.2999999523162842},{""stimulus"":""run_exp/static/images/task_images/land.jpg"",""time"":878.8999999761581},{""stimulus"":""run_exp/static/images/task_images/dig.jpg"",""time"":1749.1000000238419}]",[],6,,,,,,,,,,,,,,
harvest,141,597601,0.0-44.0-1.0,"""event"",""trial"",""time""
""fullscreenenter"",""1"",""5419""
","
","
","""event"",""trial"",""time""
""fullscreenenter"",""1"",""5419""
","
",,null,run_exp/static/images/task_images/gems/42.jpg,null,,,,,,,33,,,6,,,,,42,0.776361872,0.785714286,,,,,,,
decision,142,597928,0.0-44.0-2.0,"""event"",""trial"",""time""
""fullscreenenter"",""1"",""5419""
","
","
","""event"",""trial"",""time""
""fullscreenenter"",""1"",""5419""
","
",,325.1,run_exp/static/images/task_images/land.jpg,65,,,,,,,33,,,6,,,,,,,,165939,1,4,FALSE,,,
dig,143,600619,0.0-45.0-0.0,"""event"",""trial"",""time""
""fullscreenenter"",""1"",""5419""
","
","
","""event"",""trial"",""time""
""fullscreenenter"",""1"",""5419""
","
",,,,,,,,,,,,"[{""stimulus"":""run_exp/static/images/task_images/dig.jpg"",""time"":0.20000004768371582},{""stimulus"":""run_exp/static/images/task_images/land.jpg"",""time"":898.8000000715256},{""stimulus"":""run_exp/static/images/task_images/dig.jpg"",""time"":1788.5}]",[],6,,,,,,,,,,,,,,
harvest,144,601627,0.0-45.0-1.0,"""event"",""trial"",""time""
""fullscreenenter"",""1"",""5419""
","
","
","""event"",""trial"",""time""
""fullscreenenter"",""1"",""5419""
","
",,null,run_exp/static/images/task_images/gems/33.jpg,null,,,,,,,26,,,6,,,,,33,0.800697999,0.787878788,,,,,,,
decision,145,601925,0.0-45.0-2.0,"""event"",""trial"",""time""
""fullscreenenter"",""1"",""5419""
","
","
","""event"",""trial"",""time""
""fullscreenenter"",""1"",""5419""
","
",,295.7,run_exp/static/images/task_images/land.jpg,65,,,,,,,26,,,6,,,,,,,,169936,1,5,FALSE,,,
dig,146,604640,0.0-46.0-0.0,"""event"",""trial"",""time""
""fullscreenenter"",""1"",""5419""
","
","
","""event"",""trial"",""time""
""fullscreenenter"",""1"",""5419""
","
",,,,,,,,,,,,"[{""stimulus"":""run_exp/static/images/task_images/dig.jpg"",""time"":0.2999999523162842},{""stimulus"":""run_exp/static/images/task_images/land.jpg"",""time"":912.5},{""stimulus"":""run_exp/static/images/task_images/dig.jpg"",""time"":1810.8999999761581}]",[],6,,,,,,,,,,,,,,
harvest,147,605650,0.0-46.0-1.0,"""event"",""trial"",""time""
""fullscreenenter"",""1"",""5419""
","
","
","""event"",""trial"",""time""
""fullscreenenter"",""1"",""5419""
","
",,null,run_exp/static/images/task_images/gems/26.jpg,null,,,,,,,20,,,6,,,,,26,0.76349901,0.769230769,,,,,,,
decision,148,605947,0.0-46.0-2.0,"""event"",""trial"",""time""
""fullscreenenter"",""1"",""5419""
","
","
","""event"",""trial"",""time""
""fullscreenenter"",""1"",""5419""
","
",,294.8,run_exp/static/images/task_images/land.jpg,76,,,,,,,20,,,6,,,,,,,,173959,1,6,TRUE,,,
travel,149,615662,0.0-47.0-0.0,"""event"",""trial"",""time""
""fullscreenenter"",""1"",""5419""
","
","
","""event"",""trial"",""time""
""fullscreenenter"",""1"",""5419""
","
",,,,,,,,,,,,"[{""stimulus"":""run_exp/static/images/task_images/rocket-01.jpg"",""time"":0.19999992847442627},{""stimulus"":""run_exp/static/images/task_images/rocket-02.jpg"",""time"":1088.7999999523163},{""stimulus"":""run_exp/static/images/task_images/rocket-03.jpg"",""time"":2159.399999976158},{""stimulus"":""run_exp/static/images/task_images/rocket-04.jpg"",""time"":3243.5},{""stimulus"":""run_exp/static/images/task_images/rocket-05.jpg"",""time"":4319.100000023842},{""stimulus"":""run_exp/static/images/task_images/rocket-06.jpg"",""time"":5402.5},{""stimulus"":""run_exp/static/images/task_images/rocket-07.jpg"",""time"":6471.299999952316},{""stimulus"":""run_exp/static/images/task_images/rocket-08.jpg"",""time"":7555.799999952316},{""stimulus"":""run_exp/static/images/task_images/rocket-09.jpg"",""time"":8631.699999928474}]",[],6,,,,,,,,,,,,,,
alien_welcome,150,620670,0.0-47.0-1.0,"""event"",""trial"",""time""
""fullscreenenter"",""1"",""5419""
","
","
","""event"",""trial"",""time""
""fullscreenenter"",""1"",""5419""
","
",,null,run_exp/static/images/task_images/aliens/old_aliens/planet/alien_planet-19.jpg,null,,,,,,,,,,,,,19,"27,73,4,26,66,56,19,58,71,20,44,48,76,79,77,15,39,29,14,46,40,55,7,74,64,61,33,36,11,65,43,70,54,5,62,41",,,,,,,,,,
land,151,621174,0.0-47.0-2.0,"""event"",""trial"",""time""
""fullscreenenter"",""1"",""5419""
","
","
","""event"",""trial"",""time""
""fullscreenenter"",""1"",""5419""
","
",,null,run_exp/static/images/task_images/land.jpg,null,,,,,,,96,,,7,,,,,,,,,,,,,,
dig,152,623187,0.0-47.0-3.0,"""event"",""trial"",""time""
""fullscreenenter"",""1"",""5419""
","
","
","""event"",""trial"",""time""
""fullscreenenter"",""1"",""5419""
","
",,,,,,,,,,,,"[{""stimulus"":""run_exp/static/images/task_images/dig.jpg"",""time"":0.5},{""stimulus"":""run_exp/static/images/task_images/land.jpg"",""time"":674.5},{""stimulus"":""run_exp/static/images/task_images/dig.jpg"",""time"":1344.6000000238419}]",[],7,,,,,,,,,,,,,,
harvest,153,624190,0.0-47.0-4.0,"""event"",""trial"",""time""
""fullscreenenter"",""1"",""5419""
","
","
","""event"",""trial"",""time""
""fullscreenenter"",""1"",""5419""
","
",,null,run_exp/static/images/task_images/gems/96.jpg,null,,,,,,,73,,,7,,,,,96,0.764148187,0.760416667,,,,,,,
decision,154,624609,0.0-47.0-5.0,"""event"",""trial"",""time""
""fullscreenenter"",""1"",""5419""
","
","
","""event"",""trial"",""time""
""fullscreenenter"",""1"",""5419""
","
",,416.6999999,run_exp/static/images/task_images/land.jpg,65,,,,,,,73,,,7,,,,,,,,192620,1,0,FALSE,,,
dig,155,627200,0.0-48.0-0.0,"""event"",""trial"",""time""
""fullscreenenter"",""1"",""5419""
","
","
","""event"",""trial"",""time""
""fullscreenenter"",""1"",""5419""
","
",,,,,,,,,,,,"[{""stimulus"":""run_exp/static/images/task_images/dig.jpg"",""time"":0.20000004768371582},{""stimulus"":""run_exp/static/images/task_images/land.jpg"",""time"":867.2000000476837},{""stimulus"":""run_exp/static/images/task_images/dig.jpg"",""time"":1733.5}]",[],7,,,,,,,,,,,,,,
harvest,156,628210,0.0-48.0-1.0,"""event"",""trial"",""time""
""fullscreenenter"",""1"",""5419""
","
","
","""event"",""trial"",""time""
""fullscreenenter"",""1"",""5419""
","
",,null,run_exp/static/images/task_images/gems/73.jpg,null,,,,,,,62,,,7,,,,,73,0.852859116,0.849315068,,,,,,,
decision,157,628620,0.0-48.0-2.0,"""event"",""trial"",""time""
""fullscreenenter"",""1"",""5419""
","
","
","""event"",""trial"",""time""
""fullscreenenter"",""1"",""5419""
","
",,407.4,run_exp/static/images/task_images/land.jpg,65,,,,,,,62,,,7,,,,,,,,196631,1,1,FALSE,,,
dig,158,631227,0.0-49.0-0.0,"""event"",""trial"",""time""
""fullscreenenter"",""1"",""5419""
","
","
","""event"",""trial"",""time""
""fullscreenenter"",""1"",""5419""
","
",,,,,,,,,,,,"[{""stimulus"":""run_exp/static/images/task_images/dig.jpg"",""time"":0.20000004768371582},{""stimulus"":""run_exp/static/images/task_images/land.jpg"",""time"":875.2000000476837},{""stimulus"":""run_exp/static/images/task_images/dig.jpg"",""time"":1736.6000000238419}]",[],7,,,,,,,,,,,,,,
harvest,159,632230,0.0-49.0-1.0,"""event"",""trial"",""time""
""fullscreenenter"",""1"",""5419""
","
","
","""event"",""trial"",""time""
""fullscreenenter"",""1"",""5419""
","
",,null,run_exp/static/images/task_images/gems/62.jpg,null,,,,,,,48,,,7,,,,,62,0.772841231,0.774193548,,,,,,,
decision,160,632632,0.0-49.0-2.0,"""event"",""trial"",""time""
""fullscreenenter"",""1"",""5419""
","
","
","""event"",""trial"",""time""
""fullscreenenter"",""1"",""5419""
","
",,399.8,run_exp/static/images/task_images/land.jpg,65,,,,,,,48,,,7,,,,,,,,200643,1,2,FALSE,,,
dig,161,635240,0.0-50.0-0.0,"""event"",""trial"",""time""
""fullscreenenter"",""1"",""5419""
","
","
","""event"",""trial"",""time""
""fullscreenenter"",""1"",""5419""
","
",,,,,,,,,,,,"[{""stimulus"":""run_exp/static/images/task_images/dig.jpg"",""time"":0.20000004768371582},{""stimulus"":""run_exp/static/images/task_images/land.jpg"",""time"":867.5},{""stimulus"":""run_exp/static/images/task_images/dig.jpg"",""time"":1738.6000000238419}]",[],7,,,,,,,,,,,,,,
harvest,162,636250,0.0-50.0-1.0,"""event"",""trial"",""time""
""fullscreenenter"",""1"",""5419""
","
","
","""event"",""trial"",""time""
""fullscreenenter"",""1"",""5419""
","
",,null,run_exp/static/images/task_images/gems/48.jpg,null,,,,,,,38,,,7,,,,,48,0.791420796,0.791666667,,,,,,,
decision,163,636755,0.0-50.0-2.0,"""event"",""trial"",""time""
""fullscreenenter"",""1"",""5419""
","
","
","""event"",""trial"",""time""
""fullscreenenter"",""1"",""5419""
","
",,502.9,run_exp/static/images/task_images/land.jpg,65,,,,,,,38,,,7,,,,,,,,204766,1,3,FALSE,,,
dig,164,639262,0.0-51.0-0.0,"""event"",""trial"",""time""
""fullscreenenter"",""1"",""5419""
","
","
","""event"",""trial"",""time""
""fullscreenenter"",""1"",""5419""
","
",,,,,,,,,,,,"[{""stimulus"":""run_exp/static/images/task_images/dig.jpg"",""time"":0.2999999523162842},{""stimulus"":""run_exp/static/images/task_images/land.jpg"",""time"":840.7999999523163},{""stimulus"":""run_exp/static/images/task_images/dig.jpg"",""time"":1670.8999999761581}]",[],7,,,,,,,,,,,,,,
harvest,165,640270,0.0-51.0-1.0,"""event"",""trial"",""time""
""fullscreenenter"",""1"",""5419""
","
","
","""event"",""trial"",""time""
""fullscreenenter"",""1"",""5419""
","
",,null,run_exp/static/images/task_images/gems/38.jpg,null,,,,,,,31,,,7,,,,,38,0.804499459,0.815789474,,,,,,,
decision,166,640717,0.0-51.0-2.0,"""event"",""trial"",""time""
""fullscreenenter"",""1"",""5419""
","
","
","""event"",""trial"",""time""
""fullscreenenter"",""1"",""5419""
","
",,444.5,run_exp/static/images/task_images/land.jpg,65,,,,,,,31,,,7,,,,,,,,208728,1,4,FALSE,,,
dig,167,643280,0.0-52.0-0.0,"""event"",""trial"",""time""
""fullscreenenter"",""1"",""5419""
","
","
","""event"",""trial"",""time""
""fullscreenenter"",""1"",""5419""
","
",,,,,,,,,,,,"[{""stimulus"":""run_exp/static/images/task_images/dig.jpg"",""time"":0.10000002384185791},{""stimulus"":""run_exp/static/images/task_images/land.jpg"",""time"":854.2999999523163},{""stimulus"":""run_exp/static/images/task_images/dig.jpg"",""time"":1711.7000000476837}]",[],7,,,,,,,,,,,,,,
harvest,168,644290,0.0-52.0-1.0,"""event"",""trial"",""time""
""fullscreenenter"",""1"",""5419""
","
","
","""event"",""trial"",""time""
""fullscreenenter"",""1"",""5419""
","
",,null,run_exp/static/images/task_images/gems/31.jpg,null,,,,,,,27,,,7,,,,,31,0.881639984,0.870967742,,,,,,,
decision,169,644755,0.0-52.0-2.0,"""event"",""trial"",""time""
""fullscreenenter"",""1"",""5419""
","
","
","""event"",""trial"",""time""
""fullscreenenter"",""1"",""5419""
","
",,462.8,run_exp/static/images/task_images/land.jpg,65,,,,,,,27,,,7,,,,,,,,212766,1,5,FALSE,,,
dig,170,647306,0.0-53.0-0.0,"""event"",""trial"",""time""
""fullscreenenter"",""1"",""5419""
","
","
","""event"",""trial"",""time""
""fullscreenenter"",""1"",""5419""
","
",,,,,,,,,,,,"[{""stimulus"":""run_exp/static/images/task_images/dig.jpg"",""time"":0.19999992847442627},{""stimulus"":""run_exp/static/images/task_images/land.jpg"",""time"":851.5},{""stimulus"":""run_exp/static/images/task_images/dig.jpg"",""time"":1699.8999999761581}]",[],7,,,,,,,,,,,,,,
harvest,171,648310,0.0-53.0-1.0,"""event"",""trial"",""time""
""fullscreenenter"",""1"",""5419""
","
","
","""event"",""trial"",""time""
""fullscreenenter"",""1"",""5419""
","
",,null,run_exp/static/images/task_images/gems/27.jpg,null,,,,,,,23,,,7,,,,,27,0.866615091,0.851851852,,,,,,,
decision,172,648765,0.0-53.0-2.0,"""event"",""trial"",""time""
""fullscreenenter"",""1"",""5419""
","
","
","""event"",""trial"",""time""
""fullscreenenter"",""1"",""5419""
","
",,453.3,run_exp/static/images/task_images/land.jpg,76,,,,,,,23,,,7,,,,,,,,216776,1,6,TRUE,,,
travel,173,658310,0.0-54.0-0.0,"""event"",""trial"",""time""
""fullscreenenter"",""1"",""5419""
","
","
","""event"",""trial"",""time""
""fullscreenenter"",""1"",""5419""
","
",,,,,,,,,,,,"[{""stimulus"":""run_exp/static/images/task_images/rocket-01.jpg"",""time"":0},{""stimulus"":""run_exp/static/images/task_images/rocket-02.jpg"",""time"":1062.2999999523163},{""stimulus"":""run_exp/static/images/task_images/rocket-03.jpg"",""time"":2130.899999976158},{""stimulus"":""run_exp/static/images/task_images/rocket-04.jpg"",""time"":3182},{""stimulus"":""run_exp/static/images/task_images/rocket-05.jpg"",""time"":4246.799999952316},{""stimulus"":""run_exp/static/images/task_images/rocket-06.jpg"",""time"":5302.099999904633},{""stimulus"":""run_exp/static/images/task_images/rocket-07.jpg"",""time"":6370.799999952316},{""stimulus"":""run_exp/static/images/task_images/rocket-08.jpg"",""time"":7422.299999952316},{""stimulus"":""run_exp/static/images/task_images/rocket-09.jpg"",""time"":8489.299999952316}]",[],7,,,,,,,,,,,,,,
alien_welcome,174,663320,0.0-54.0-1.0,"""event"",""trial"",""time""
""fullscreenenter"",""1"",""5419""
","
","
","""event"",""trial"",""time""
""fullscreenenter"",""1"",""5419""
","
",,null,run_exp/static/images/task_images/aliens/old_aliens/planet/alien_planet-58.jpg,null,,,,,,,,,,,,,58,"27,73,4,26,66,56,19,58,71,20,44,48,76,79,77,15,39,29,14,46,40,55,7,74,64,61,33,36,11,65,43,70,54,5,62,41",,,,,,,,,,
land,175,663830,0.0-54.0-2.0,"""event"",""trial"",""time""
""fullscreenenter"",""1"",""5419""
","
","
","""event"",""trial"",""time""
""fullscreenenter"",""1"",""5419""
","
",,null,run_exp/static/images/task_images/land.jpg,null,,,,,,,99,,,8,,,,,,,,,,,,,,
dig,176,665840,0.0-54.0-3.0,"""event"",""trial"",""time""
""fullscreenenter"",""1"",""5419""
","
","
","""event"",""trial"",""time""
""fullscreenenter"",""1"",""5419""
","
",,,,,,,,,,,,"[{""stimulus"":""run_exp/static/images/task_images/dig.jpg"",""time"":0.6000000238418579},{""stimulus"":""run_exp/static/images/task_images/land.jpg"",""time"":671},{""stimulus"":""run_exp/static/images/task_images/dig.jpg"",""time"":1342.4000000953674}]",[],8,,,,,,,,,,,,,,
harvest,177,666849,0.0-54.0-4.0,"""event"",""trial"",""time""
""fullscreenenter"",""1"",""5419""
","
","
","""event"",""trial"",""time""
""fullscreenenter"",""1"",""5419""
","
",,null,run_exp/static/images/task_images/gems/99.jpg,null,,,,,,,79,,,8,,,,,99,0.79453855,0.797979798,,,,,,,
decision,178,667293,0.0-54.0-5.0,"""event"",""trial"",""time""
""fullscreenenter"",""1"",""5419""
","
","
","""event"",""trial"",""time""
""fullscreenenter"",""1"",""5419""
","
",,442.4,run_exp/static/images/task_images/land.jpg,65,,,,,,,79,,,8,,,,,,,,235304,1,0,FALSE,,,
dig,179,669866,0.0-55.0-0.0,"""event"",""trial"",""time""
""fullscreenenter"",""1"",""5419""
","
","
","""event"",""trial"",""time""
""fullscreenenter"",""1"",""5419""
","
",,,,,,,,,,,,"[{""stimulus"":""run_exp/static/images/task_images/dig.jpg"",""time"":0.2999999523162842},{""stimulus"":""run_exp/static/images/task_images/land.jpg"",""time"":863.5999999046326},{""stimulus"":""run_exp/static/images/task_images/dig.jpg"",""time"":1711.3999999761581}]",[],8,,,,,,,,,,,,,,
harvest,180,670869,0.0-55.0-1.0,"""event"",""trial"",""time""
""fullscreenenter"",""1"",""5419""
","
","
","""event"",""trial"",""time""
""fullscreenenter"",""1"",""5419""
","
",,null,run_exp/static/images/task_images/gems/79.jpg,null,,,,,,,61,,,8,,,,,79,0.775689019,0.772151899,,,,,,,
decision,181,671281,0.0-55.0-2.0,"""event"",""trial"",""time""
""fullscreenenter"",""1"",""5419""
","
","
","""event"",""trial"",""time""
""fullscreenenter"",""1"",""5419""
","
",,408.8,run_exp/static/images/task_images/land.jpg,65,,,,,,,61,,,8,,,,,,,,239292,1,1,FALSE,,,
dig,182,673880,0.0-56.0-0.0,"""event"",""trial"",""time""
""fullscreenenter"",""1"",""5419""
","
","
","""event"",""trial"",""time""
""fullscreenenter"",""1"",""5419""
","
",,,,,,,,,,,,"[{""stimulus"":""run_exp/static/images/task_images/dig.jpg"",""time"":0.19999992847442627},{""stimulus"":""run_exp/static/images/task_images/land.jpg"",""time"":864.8999999761581},{""stimulus"":""run_exp/static/images/task_images/dig.jpg"",""time"":1733.3999999761581}]",[],8,,,,,,,,,,,,,,
harvest,183,674885,0.0-56.0-1.0,"""event"",""trial"",""time""
""fullscreenenter"",""1"",""5419""
","
","
","""event"",""trial"",""time""
""fullscreenenter"",""1"",""5419""
","
",,null,run_exp/static/images/task_images/gems/61.jpg,null,,,,,,,47,,,8,,,,,61,0.775302568,0.770491803,,,,,,,
decision,184,675501,0.0-56.0-2.0,"""event"",""trial"",""time""
""fullscreenenter"",""1"",""5419""
","
","
","""event"",""trial"",""time""
""fullscreenenter"",""1"",""5419""
","
",,613.4,run_exp/static/images/task_images/land.jpg,65,,,,,,,47,,,8,,,,,,,,243512,1,2,FALSE,,,
dig,185,677898,0.0-57.0-0.0,"""event"",""trial"",""time""
""fullscreenenter"",""1"",""5419""
","
","
","""event"",""trial"",""time""
""fullscreenenter"",""1"",""5419""
","
",,,,,,,,,,,,"[{""stimulus"":""run_exp/static/images/task_images/dig.jpg"",""time"":0.20000004768371582},{""stimulus"":""run_exp/static/images/task_images/land.jpg"",""time"":804.6000000238419},{""stimulus"":""run_exp/static/images/task_images/dig.jpg"",""time"":1596.5}]",[],8,,,,,,,,,,,,,,
harvest,186,678902,0.0-57.0-1.0,"""event"",""trial"",""time""
""fullscreenenter"",""1"",""5419""
","
","
","""event"",""trial"",""time""
""fullscreenenter"",""1"",""5419""
","
",,null,run_exp/static/images/task_images/gems/47.jpg,null,,,,,,,37,,,8,,,,,47,0.786546639,0.787234043,,,,,,,
decision,187,679139,0.0-57.0-2.0,"""event"",""trial"",""time""
""fullscreenenter"",""1"",""5419""
","
","
","""event"",""trial"",""time""
""fullscreenenter"",""1"",""5419""
","
",,234.6999999,run_exp/static/images/task_images/land.jpg,65,,,,,,,37,,,8,,,,,,,,247150,1,3,FALSE,,,
dig,188,681910,0.0-58.0-0.0,"""event"",""trial"",""time""
""fullscreenenter"",""1"",""5419""
","
","
","""event"",""trial"",""time""
""fullscreenenter"",""1"",""5419""
","
",,,,,,,,,,,,"[{""stimulus"":""run_exp/static/images/task_images/dig.jpg"",""time"":0.19999992847442627},{""stimulus"":""run_exp/static/images/task_images/land.jpg"",""time"":926.6999999284744},{""stimulus"":""run_exp/static/images/task_images/dig.jpg"",""time"":1846.2999999523163}]",[],8,,,,,,,,,,,,,,
harvest,189,682920,0.0-58.0-1.0,"""event"",""trial"",""time""
""fullscreenenter"",""1"",""5419""
","
","
","""event"",""trial"",""time""
""fullscreenenter"",""1"",""5419""
","
",,null,run_exp/static/images/task_images/gems/37.jpg,null,,,,,,,32,,,8,,,,,37,0.855795689,0.864864865,,,,,,,
decision,190,683340,0.0-58.0-2.0,"""event"",""trial"",""time""
""fullscreenenter"",""1"",""5419""
","
","
","""event"",""trial"",""time""
""fullscreenenter"",""1"",""5419""
","
",,418,run_exp/static/images/task_images/land.jpg,65,,,,,,,32,,,8,,,,,,,,251351,1,4,FALSE,,,
dig,191,685938,0.0-59.0-0.0,"""event"",""trial"",""time""
""fullscreenenter"",""1"",""5419""
","
","
","""event"",""trial"",""time""
""fullscreenenter"",""1"",""5419""
","
",,,,,,,,,,,,"[{""stimulus"":""run_exp/static/images/task_images/dig.jpg"",""time"":0.19999992847442627},{""stimulus"":""run_exp/static/images/task_images/land.jpg"",""time"":870.2999999523163},{""stimulus"":""run_exp/static/images/task_images/dig.jpg"",""time"":1725.5}]",[],8,,,,,,,,,,,,,,
harvest,192,686946,0.0-59.0-1.0,"""event"",""trial"",""time""
""fullscreenenter"",""1"",""5419""
","
","
","""event"",""trial"",""time""
""fullscreenenter"",""1"",""5419""
","
",,null,run_exp/static/images/task_images/gems/32.jpg,null,,,,,,,28,,,8,,,,,32,0.862839013,0.875,,,,,,,
decision,193,687356,0.0-59.0-2.0,"""event"",""trial"",""time""
""fullscreenenter"",""1"",""5419""
","
","
","""event"",""trial"",""time""
""fullscreenenter"",""1"",""5419""
","
",,408.3000001,run_exp/static/images/task_images/land.jpg,65,,,,,,,28,,,8,,,,,,,,255368,1,5,FALSE,,,
dig,194,689959,0.0-60.0-0.0,"""event"",""trial"",""time""
""fullscreenenter"",""1"",""5419""
","
","
","""event"",""trial"",""time""
""fullscreenenter"",""1"",""5419""
","
",,,,,,,,,,,,"[{""stimulus"":""run_exp/static/images/task_images/dig.jpg"",""time"":0.10000002384185791},{""stimulus"":""run_exp/static/images/task_images/land.jpg"",""time"":868.6999999284744},{""stimulus"":""run_exp/static/images/task_images/dig.jpg"",""time"":1734.6999999284744}]",[],8,,,,,,,,,,,,,,
harvest,195,690969,0.0-60.0-1.0,"""event"",""trial"",""time""
""fullscreenenter"",""1"",""5419""
","
","
","""event"",""trial"",""time""
""fullscreenenter"",""1"",""5419""
","
",,null,run_exp/static/images/task_images/gems/28.jpg,null,,,,,,,22,,,8,,,,,28,0.803057169,0.785714286,,,,,,,
decision,196,691421,0.0-60.0-2.0,"""event"",""trial"",""time""
""fullscreenenter"",""1"",""5419""
","
","
","""event"",""trial"",""time""
""fullscreenenter"",""1"",""5419""
","
",,448.9,run_exp/static/images/task_images/land.jpg,65,,,,,,,22,,,8,,,,,,,,259432,1,6,FALSE,,,
dig,197,693982,0.0-61.0-0.0,"""event"",""trial"",""time""
""fullscreenenter"",""1"",""5419""
","
","
","""event"",""trial"",""time""
""fullscreenenter"",""1"",""5419""
","
",,,,,,,,,,,,"[{""stimulus"":""run_exp/static/images/task_images/dig.jpg"",""time"":0.19999992847442627},{""stimulus"":""run_exp/static/images/task_images/land.jpg"",""time"":854.7999999523163},{""stimulus"":""run_exp/static/images/task_images/dig.jpg"",""time"":1708.3999999761581}]",[],8,,,,,,,,,,,,,,
harvest,198,694989,0.0-61.0-1.0,"""event"",""trial"",""time""
""fullscreenenter"",""1"",""5419""
","
","
","""event"",""trial"",""time""
""fullscreenenter"",""1"",""5419""
","
",,null,run_exp/static/images/task_images/gems/22.jpg,null,,,,,,,17,,,8,,,,,22,0.793713605,0.772727273,,,,,,,
decision,199,695376,0.0-61.0-2.0,"""event"",""trial"",""time""
""fullscreenenter"",""1"",""5419""
","
","
","""event"",""trial"",""time""
""fullscreenenter"",""1"",""5419""
","
",,384.1999999,run_exp/static/images/task_images/land.jpg,76,,,,,,,17,,,8,,,,,,,,263387,1,7,TRUE,,,
travel,200,704999,0.0-62.0-0.0,"""event"",""trial"",""time""
""fullscreenenter"",""1"",""5419""
","
","
","""event"",""trial"",""time""
""fullscreenenter"",""1"",""5419""
","
",,,,,,,,,,,,"[{""stimulus"":""run_exp/static/images/task_images/rocket-01.jpg"",""time"":0.10000002384185791},{""stimulus"":""run_exp/static/images/task_images/rocket-02.jpg"",""time"":1068.8999999761581},{""stimulus"":""run_exp/static/images/task_images/rocket-03.jpg"",""time"":2138.600000023842},{""stimulus"":""run_exp/static/images/task_images/rocket-04.jpg"",""time"":3211.2000000476837},{""stimulus"":""run_exp/static/images/task_images/rocket-05.jpg"",""time"":4283.399999976158},{""stimulus"":""run_exp/static/images/task_images/rocket-06.jpg"",""time"":5349},{""stimulus"":""run_exp/static/images/task_images/rocket-07.jpg"",""time"":6420.100000023842},{""stimulus"":""run_exp/static/images/task_images/rocket-08.jpg"",""time"":7485.5},{""stimulus"":""run_exp/static/images/task_images/rocket-09.jpg"",""time"":8553.600000023842}]",[],8,,,,,,,,,,,,,,
alien_welcome,201,710009,0.0-62.0-1.0,"""event"",""trial"",""time""
""fullscreenenter"",""1"",""5419""
","
","
","""event"",""trial"",""time""
""fullscreenenter"",""1"",""5419""
","
",,null,run_exp/static/images/task_images/aliens/old_aliens/planet/alien_planet-71.jpg,null,,,,,,,,,,,,,71,"27,73,4,26,66,56,19,58,71,20,44,48,76,79,77,15,39,29,14,46,40,55,7,74,64,61,33,36,11,65,43,70,54,5,62,41",,,,,,,,,,
land,202,710519,0.0-62.0-2.0,"""event"",""trial"",""time""
""fullscreenenter"",""1"",""5419""
","
","
","""event"",""trial"",""time""
""fullscreenenter"",""1"",""5419""
","
",,null,run_exp/static/images/task_images/land.jpg,null,,,,,,,102,,,9,,,,,,,,,,,,,,
dig,203,712529,0.0-62.0-3.0,"""event"",""trial"",""time""
""fullscreenenter"",""1"",""5419""
","
","
","""event"",""trial"",""time""
""fullscreenenter"",""1"",""5419""
","
",,,,,,,,,,,,"[{""stimulus"":""run_exp/static/images/task_images/dig.jpg"",""time"":0.5},{""stimulus"":""run_exp/static/images/task_images/land.jpg"",""time"":677.8999999761581},{""stimulus"":""run_exp/static/images/task_images/dig.jpg"",""time"":1341}]",[],9,,,,,,,,,,,,,,
harvest,204,713534,0.0-62.0-4.0,"""event"",""trial"",""time""
""fullscreenenter"",""1"",""5419""
","
","
","""event"",""trial"",""time""
""fullscreenenter"",""1"",""5419""
","
",,null,run_exp/static/images/task_images/gems/102.jpg,null,,,,,,,17,,,9,,,,,102,0.166581009,0.166666667,,,,,,,
decision,205,713913,0.0-62.0-5.0,"""event"",""trial"",""time""
""fullscreenenter"",""1"",""5419""
","
","
","""event"",""trial"",""time""
""fullscreenenter"",""1"",""5419""
","
",,377.6,run_exp/static/images/task_images/land.jpg,65,,,,,,,17,,,9,,,,,,,,281925,1,0,FALSE,,,
dig,206,716549,0.0-63.0-0.0,"""event"",""trial"",""time""
""fullscreenenter"",""1"",""5419""
","
","
","""event"",""trial"",""time""
""fullscreenenter"",""1"",""5419""
","
",,,,,,,,,,,,"[{""stimulus"":""run_exp/static/images/task_images/dig.jpg"",""time"":0.2999999523162842},{""stimulus"":""run_exp/static/images/task_images/land.jpg"",""time"":881.7999999523163},{""stimulus"":""run_exp/static/images/task_images/dig.jpg"",""time"":1751.5999999046326}]",[],9,,,,,,,,,,,,,,
harvest,207,717559,0.0-63.0-1.0,"""event"",""trial"",""time""
""fullscreenenter"",""1"",""5419""
","
","
","""event"",""trial"",""time""
""fullscreenenter"",""1"",""5419""
","
",,null,run_exp/static/images/task_images/gems/17.jpg,null,,,,,,,3,,,9,,,,,17,0.200334906,0.176470588,,,,,,,
decision,208,718744,0.0-63.0-2.0,"""event"",""trial"",""time""
""fullscreenenter"",""1"",""5419""
","
","
","""event"",""trial"",""time""
""fullscreenenter"",""1"",""5419""
","
",,1182.9,run_exp/static/images/task_images/land.jpg,76,,,,,,,3,,,9,,,,,,,,286755,1,1,TRUE,,,
travel,209,727569,0.0-64.0-0.0,"""event"",""trial"",""time""
""fullscreenenter"",""1"",""5419""
","
","
","""event"",""trial"",""time""
""fullscreenenter"",""1"",""5419""
","
",,,,,,,,,,,,"[{""stimulus"":""run_exp/static/images/task_images/rocket-01.jpg"",""time"":0.10000002384185791},{""stimulus"":""run_exp/static/images/task_images/rocket-02.jpg"",""time"":985.6000000238419},{""stimulus"":""run_exp/static/images/task_images/rocket-03.jpg"",""time"":1961.2000000476837},{""stimulus"":""run_exp/static/images/task_images/rocket-04.jpg"",""time"":2944.7000000476837},{""stimulus"":""run_exp/static/images/task_images/rocket-05.jpg"",""time"":3920.899999976158},{""stimulus"":""run_exp/static/images/task_images/rocket-06.jpg"",""time"":4901.100000023842},{""stimulus"":""run_exp/static/images/task_images/rocket-07.jpg"",""time"":5881.100000023842},{""stimulus"":""run_exp/static/images/task_images/rocket-08.jpg"",""time"":6860.700000047684},{""stimulus"":""run_exp/static/images/task_images/rocket-09.jpg"",""time"":7843.100000023842}]",[],9,,,,,,,,,,,,,,
alien_welcome,210,732573,0.0-64.0-1.0,"""event"",""trial"",""time""
""fullscreenenter"",""1"",""5419""
","
","
","""event"",""trial"",""time""
""fullscreenenter"",""1"",""5419""
","
",,null,run_exp/static/images/task_images/aliens/old_aliens/planet/alien_planet-20.jpg,null,,,,,,,,,,,,,20,"27,73,4,26,66,56,19,58,71,20,44,48,76,79,77,15,39,29,14,46,40,55,7,74,64,61,33,36,11,65,43,70,54,5,62,41",,,,,,,,,,
land,211,733079,0.0-64.0-2.0,"""event"",""trial"",""time""
""fullscreenenter"",""1"",""5419""
","
","
","""event"",""trial"",""time""
""fullscreenenter"",""1"",""5419""
","
",,null,run_exp/static/images/task_images/land.jpg,null,,,,,,,97,,,10,,,,,,,,,,,,,,
dig,212,735089,0.0-64.0-3.0,"""event"",""trial"",""time""
""fullscreenenter"",""1"",""5419""
","
","
","""event"",""trial"",""time""
""fullscreenenter"",""1"",""5419""
","
",,,,,,,,,,,,"[{""stimulus"":""run_exp/static/images/task_images/dig.jpg"",""time"":0.6000000238418579},{""stimulus"":""run_exp/static/images/task_images/land.jpg"",""time"":678.1000000238419},{""stimulus"":""run_exp/static/images/task_images/dig.jpg"",""time"":1342.2999999523163}]",[],10,,,,,,,,,,,,,,
harvest,213,736093,0.0-64.0-4.0,"""event"",""trial"",""time""
""fullscreenenter"",""1"",""5419""
","
","
","""event"",""trial"",""time""
""fullscreenenter"",""1"",""5419""
","
",,null,run_exp/static/images/task_images/gems/97.jpg,null,,,,,,,34,,,10,,,,,97,0.351580122,0.350515464,,,,,,,
decision,214,736705,0.0-64.0-5.0,"""event"",""trial"",""time""
""fullscreenenter"",""1"",""5419""
","
","
","""event"",""trial"",""time""
""fullscreenenter"",""1"",""5419""
","
",,609.9,run_exp/static/images/task_images/land.jpg,65,,,,,,,34,,,10,,,,,,,,304716,1,0,TRUE,,,
end_of_block_continue,215,740472,0.0-65.0-0.0,"""event"",""trial"",""time""
""fullscreenenter"",""1"",""5419""
","
","
","""event"",""trial"",""time""
""fullscreenenter"",""1"",""5419""
","
",,3762,run_exp/static/audio/clip_32_block_end.m4a,,,,,,,0,,,,,,,,,,,,,,,,,,
alien_welcome,216,745479,0.0-66.0-0.0,"""event"",""trial"",""time""
""fullscreenenter"",""1"",""5419""
","
","
","""event"",""trial"",""time""
""fullscreenenter"",""1"",""5419""
","
",,null,run_exp/static/images/task_images/aliens/old_aliens/planet/alien_planet-44.jpg,null,,,,,,,,,,,,,44,"27,73,4,26,66,56,19,58,71,20,44,48,76,79,77,15,39,29,14,46,40,55,7,74,64,61,33,36,11,65,43,70,54,5,62,41",,,,,,,,,,
land,217,745989,0.0-66.0-1.0,"""event"",""trial"",""time""
""fullscreenenter"",""1"",""5419""
","
","
","""event"",""trial"",""time""
""fullscreenenter"",""1"",""5419""
","
",,null,run_exp/static/images/task_images/land.jpg,null,,,,,,,103,,,11,,,,,,,,,,,,,,
dig,218,748000,0.0-66.0-2.0,"""event"",""trial"",""time""
""fullscreenenter"",""1"",""5419""
","
","
","""event"",""trial"",""time""
""fullscreenenter"",""1"",""5419""
","
",,,,,,,,,,,,"[{""stimulus"":""run_exp/static/images/task_images/dig.jpg"",""time"":0.7999999523162842},{""stimulus"":""run_exp/static/images/task_images/land.jpg"",""time"":676.1999999284744},{""stimulus"":""run_exp/static/images/task_images/dig.jpg"",""time"":1336.1000000238419}]",[],11,,,,,,,,,,,,,,
harvest,219,749008,0.0-66.0-3.0,"""event"",""trial"",""time""
""fullscreenenter"",""1"",""5419""
","
","
","""event"",""trial"",""time""
""fullscreenenter"",""1"",""5419""
","
",,null,run_exp/static/images/task_images/gems/103.jpg,null,,,,,,,16,,,11,,,,,103,0.157171039,0.155339806,,,,,,,
decision,220,749443,0.0-66.0-4.0,"""event"",""trial"",""time""
""fullscreenenter"",""1"",""5419""
","
","
","""event"",""trial"",""time""
""fullscreenenter"",""1"",""5419""
","
",,432,run_exp/static/images/task_images/land.jpg,65,,,,,,,16,,,11,,,,,,,,8968,2,0,FALSE,,,
dig,221,752020,0.0-67.0-0.0,"""event"",""trial"",""time""
""fullscreenenter"",""1"",""5419""
","
","
","""event"",""trial"",""time""
""fullscreenenter"",""1"",""5419""
","
",,,,,,,,,,,,"[{""stimulus"":""run_exp/static/images/task_images/dig.jpg"",""time"":0.2999999523162842},{""stimulus"":""run_exp/static/images/task_images/land.jpg"",""time"":861.7999999523163},{""stimulus"":""run_exp/static/images/task_images/dig.jpg"",""time"":1721.7000000476837}]",[],11,,,,,,,,,,,,,,
harvest,222,753032,0.0-67.0-1.0,"""event"",""trial"",""time""
""fullscreenenter"",""1"",""5419""
","
","
","""event"",""trial"",""time""
""fullscreenenter"",""1"",""5419""
","
",,null,run_exp/static/images/task_images/gems/16.jpg,null,,,,,,,4,,,11,,,,,16,0.276420666,0.25,,,,,,,
decision,223,753330,0.0-67.0-2.0,"""event"",""trial"",""time""
""fullscreenenter"",""1"",""5419""
","
","
","""event"",""trial"",""time""
""fullscreenenter"",""1"",""5419""
","
",,295.5999999,run_exp/static/images/task_images/land.jpg,76,,,,,,,4,,,11,,,,,,,,12855,2,1,TRUE,,,
travel,224,763048,0.0-68.0-0.0,"""event"",""trial"",""time""
""fullscreenenter"",""1"",""5419""
","
","
","""event"",""trial"",""time""
""fullscreenenter"",""1"",""5419""
","
",,,,,,,,,,,,"[{""stimulus"":""run_exp/static/images/task_images/rocket-01.jpg"",""time"":0.19999992847442627},{""stimulus"":""run_exp/static/images/task_images/rocket-02.jpg"",""time"":1087.5},{""stimulus"":""run_exp/static/images/task_images/rocket-03.jpg"",""time"":2159.7999999523163},{""stimulus"":""run_exp/static/images/task_images/rocket-04.jpg"",""time"":3239},{""stimulus"":""run_exp/static/images/task_images/rocket-05.jpg"",""time"":4323.599999904633},{""stimulus"":""run_exp/static/images/task_images/rocket-06.jpg"",""time"":5403.699999928474},{""stimulus"":""run_exp/static/images/task_images/rocket-07.jpg"",""time"":6475.399999976158},{""stimulus"":""run_exp/static/images/task_images/rocket-08.jpg"",""time"":7555.199999928474},{""stimulus"":""run_exp/static/images/task_images/rocket-09.jpg"",""time"":8635.199999928474}]",[],11,,,,,,,,,,,,,,
alien_welcome,225,768053,0.0-68.0-1.0,"""event"",""trial"",""time""
""fullscreenenter"",""1"",""5419""
","
","
","""event"",""trial"",""time""
""fullscreenenter"",""1"",""5419""
","
",,null,run_exp/static/images/task_images/aliens/old_aliens/planet/alien_planet-48.jpg,null,,,,,,,,,,,,,48,"27,73,4,26,66,56,19,58,71,20,44,48,76,79,77,15,39,29,14,46,40,55,7,74,64,61,33,36,11,65,43,70,54,5,62,41",,,,,,,,,,
land,226,768558,0.0-68.0-2.0,"""event"",""trial"",""time""
""fullscreenenter"",""1"",""5419""
","
","
","""event"",""trial"",""time""
""fullscreenenter"",""1"",""5419""
","
",,null,run_exp/static/images/task_images/land.jpg,null,,,,,,,98,,,12,,,,,,,,,,,,,,
dig,227,770568,0.0-68.0-3.0,"""event"",""trial"",""time""
""fullscreenenter"",""1"",""5419""
","
","
","""event"",""trial"",""time""
""fullscreenenter"",""1"",""5419""
","
",,,,,,,,,,,,"[{""stimulus"":""run_exp/static/images/task_images/dig.jpg"",""time"":0.6000000238418579},{""stimulus"":""run_exp/static/images/task_images/land.jpg"",""time"":677.6999999284744},{""stimulus"":""run_exp/static/images/task_images/dig.jpg"",""time"":1342.2999999523163}]",[],12,,,,,,,,,,,,,,
harvest,228,771573,0.0-68.0-4.0,"""event"",""trial"",""time""
""fullscreenenter"",""1"",""5419""
","
","
","""event"",""trial"",""time""
""fullscreenenter"",""1"",""5419""
","
",,null,run_exp/static/images/task_images/gems/98.jpg,null,,,,,,,19,,,12,,,,,98,0.195086101,0.193877551,,,,,,,
decision,229,772026,0.0-68.0-5.0,"""event"",""trial"",""time""
""fullscreenenter"",""1"",""5419""
","
","
","""event"",""trial"",""time""
""fullscreenenter"",""1"",""5419""
","
",,450.1,run_exp/static/images/task_images/land.jpg,65,,,,,,,19,,,12,,,,,,,,31551,2,0,FALSE,,,
dig,230,774585,0.0-69.0-0.0,"""event"",""trial"",""time""
""fullscreenenter"",""1"",""5419""
","
","
","""event"",""trial"",""time""
""fullscreenenter"",""1"",""5419""
","
",,,,,,,,,,,,"[{""stimulus"":""run_exp/static/images/task_images/dig.jpg"",""time"":0.20000004768371582},{""stimulus"":""run_exp/static/images/task_images/land.jpg"",""time"":858.2000000476837},{""stimulus"":""run_exp/static/images/task_images/dig.jpg"",""time"":1705.4000000953674}]",[],12,,,,,,,,,,,,,,
harvest,231,775591,0.0-69.0-1.0,"""event"",""trial"",""time""
""fullscreenenter"",""1"",""5419""
","
","
","""event"",""trial"",""time""
""fullscreenenter"",""1"",""5419""
","
",,null,run_exp/static/images/task_images/gems/19.jpg,null,,,,,,,5,,,12,,,,,19,0.260218616,0.263157895,,,,,,,
decision,232,776310,0.0-69.0-2.0,"""event"",""trial"",""time""
""fullscreenenter"",""1"",""5419""
","
","
","""event"",""trial"",""time""
""fullscreenenter"",""1"",""5419""
","
",,716.0999999,run_exp/static/images/task_images/land.jpg,65,,,,,,,5,,,12,,,,,,,,35835,2,1,FALSE,,,
dig,233,778608,0.0-70.0-0.0,"""event"",""trial"",""time""
""fullscreenenter"",""1"",""5419""
","
","
","""event"",""trial"",""time""
""fullscreenenter"",""1"",""5419""
","
",,,,,,,,,,,,"[{""stimulus"":""run_exp/static/images/task_images/dig.jpg"",""time"":0.2999999523162842},{""stimulus"":""run_exp/static/images/task_images/land.jpg"",""time"":764.3999999761581},{""stimulus"":""run_exp/static/images/task_images/dig.jpg"",""time"":1534}]",[],12,,,,,,,,,,,,,,
harvest,234,779614,0.0-70.0-1.0,"""event"",""trial"",""time""
""fullscreenenter"",""1"",""5419""
","
","
","""event"",""trial"",""time""
""fullscreenenter"",""1"",""5419""
","
",,null,run_exp/static/images/task_images/gems/5.jpg,null,,,,,,,2,,,12,,,,,5,0.30118176,0.4,,,,,,,
decision,235,779826,0.0-70.0-2.0,"""event"",""trial"",""time""
""fullscreenenter"",""1"",""5419""
","
","
","""event"",""trial"",""time""
""fullscreenenter"",""1"",""5419""
","
",,209,run_exp/static/images/task_images/land.jpg,76,,,,,,,2,,,12,,,,,,,,39351,2,2,TRUE,,,
travel,236,789625,0.0-71.0-0.0,"""event"",""trial"",""time""
""fullscreenenter"",""1"",""5419""
","
","
","""event"",""trial"",""time""
""fullscreenenter"",""1"",""5419""
","
",,,,,,,,,,,,"[{""stimulus"":""run_exp/static/images/task_images/rocket-01.jpg"",""time"":0.20000004768371582},{""stimulus"":""run_exp/static/images/task_images/rocket-02.jpg"",""time"":1098.7000000476837},{""stimulus"":""run_exp/static/images/task_images/rocket-03.jpg"",""time"":2183.100000023842},{""stimulus"":""run_exp/static/images/task_images/rocket-04.jpg"",""time"":3271.2000000476837},{""stimulus"":""run_exp/static/images/task_images/rocket-05.jpg"",""time"":4351.200000047684},{""stimulus"":""run_exp/static/images/task_images/rocket-06.jpg"",""time"":5438.5},{""stimulus"":""run_exp/static/images/task_images/rocket-07.jpg"",""time"":6528.700000047684},{""stimulus"":""run_exp/static/images/task_images/rocket-08.jpg"",""time"":7618.700000047684},{""stimulus"":""run_exp/static/images/task_images/rocket-09.jpg"",""time"":8707.100000023842}]",[],12,,,,,,,,,,,,,,
alien_welcome,237,794628,0.0-71.0-1.0,"""event"",""trial"",""time""
""fullscreenenter"",""1"",""5419""
","
","
","""event"",""trial"",""time""
""fullscreenenter"",""1"",""5419""
","
",,null,run_exp/static/images/task_images/aliens/old_aliens/planet/alien_planet-76.jpg,null,,,,,,,,,,,,,76,"27,73,4,26,66,56,19,58,71,20,44,48,76,79,77,15,39,29,14,46,40,55,7,74,64,61,33,36,11,65,43,70,54,5,62,41",,,,,,,,,,
land,238,795136,0.0-71.0-2.0,"""event"",""trial"",""time""
""fullscreenenter"",""1"",""5419""
","
","
","""event"",""trial"",""time""
""fullscreenenter"",""1"",""5419""
","
",,null,run_exp/static/images/task_images/land.jpg,null,,,,,,,91,,,13,,,,,,,,,,,,,,
dig,239,797148,0.0-71.0-3.0,"""event"",""trial"",""time""
""fullscreenenter"",""1"",""5419""
","
","
","""event"",""trial"",""time""
""fullscreenenter"",""1"",""5419""
","
",,,,,,,,,,,,"[{""stimulus"":""run_exp/static/images/task_images/dig.jpg"",""time"":0.5},{""stimulus"":""run_exp/static/images/task_images/land.jpg"",""time"":673.7999999523163},{""stimulus"":""run_exp/static/images/task_images/dig.jpg"",""time"":1338}]",[],13,,,,,,,,,,,,,,
harvest,240,798159,0.0-71.0-4.0,"""event"",""trial"",""time""
""fullscreenenter"",""1"",""5419""
","
","
","""event"",""trial"",""time""
""fullscreenenter"",""1"",""5419""
","
",,null,run_exp/static/images/task_images/gems/91.jpg,null,,,,,,,19,,,13,,,,,91,0.205768756,0.208791209,,,,,,,
decision,241,798651,0.0-71.0-5.0,"""event"",""trial"",""time""
""fullscreenenter"",""1"",""5419""
","
","
","""event"",""trial"",""time""
""fullscreenenter"",""1"",""5419""
","
",,489.6,run_exp/static/images/task_images/land.jpg,65,,,,,,,19,,,13,,,,,,,,58176,2,0,FALSE,,,
dig,242,801174,0.0-72.0-0.0,"""event"",""trial"",""time""
""fullscreenenter"",""1"",""5419""
","
","
","""event"",""trial"",""time""
""fullscreenenter"",""1"",""5419""
","
",,,,,,,,,,,,"[{""stimulus"":""run_exp/static/images/task_images/dig.jpg"",""time"":0.30000007152557373},{""stimulus"":""run_exp/static/images/task_images/land.jpg"",""time"":848.2000000476837},{""stimulus"":""run_exp/static/images/task_images/dig.jpg"",""time"":1680.3000000715256}]",[],13,,,,,,,,,,,,,,
harvest,243,802182,0.0-72.0-1.0,"""event"",""trial"",""time""
""fullscreenenter"",""1"",""5419""
","
","
","""event"",""trial"",""time""
""fullscreenenter"",""1"",""5419""
","
",,null,run_exp/static/images/task_images/gems/19.jpg,null,,,,,,,6,,,13,,,,,19,0.30435904,0.315789474,,,,,,,
decision,244,802502,0.0-72.0-2.0,"""event"",""trial"",""time""
""fullscreenenter"",""1"",""5419""
","
","
","""event"",""trial"",""time""
""fullscreenenter"",""1"",""5419""
","
",,318,run_exp/static/images/task_images/land.jpg,76,,,,,,,6,,,13,,,,,,,,62027,2,1,TRUE,,,
travel,245,812188,0.0-73.0-0.0,"""event"",""trial"",""time""
""fullscreenenter"",""1"",""5419""
","
","
","""event"",""trial"",""time""
