trial_type,trial_index,time_elapsed,internal_node_id,interactions,blur_events,focus_events,fullscreenenter_events,fullscreenexit_events,success,rt,stimulus,key_press,prompt,subject_id,participant_id,age,gender,button_pressed,next_reward,animation_sequence,responses,planet,curr_prac_trial,n_prac_rounds,alien,aliens,reward_received,decay_rate_actual,decay_rate_exp,time_in_block,block_num,prt,last_trial_on_planet,button_html,bonus,num_failures
pavlovia,0,3,0.0-0.0,"""event"",""trial"",""time""
""fullscreenenter"",""1"",""10304""
","
","
","""event"",""trial"",""time""
""fullscreenenter"",""1"",""10304""
","
",,,,,,,,,,,,,,,,,,,,,,,,,,,,
fullscreen,1,11294,0.0-1.0,"""event"",""trial"",""time""
""fullscreenenter"",""1"",""10304""
","
","
","""event"",""trial"",""time""
""fullscreenenter"",""1"",""10304""
","
",TRUE,,,,,,,,,,,,,,,,,,,,,,,,,,,
instruc_welcome,2,21026,0.0-2.0,"""event"",""trial"",""time""
""fullscreenenter"",""1"",""10304""
","
","
","""event"",""trial"",""time""
""fullscreenenter"",""1"",""10304""
","
",,null,run_exp/static/audio/clip_1_welcome.m4a,null,"<p>Howdy! In this experiment, you’ll be an explorer traveling through space to collect space treasure.</p><p>Your mission is to collect as much treasure as possible.</p><br><br><p><img src='run_exp/static/images/task_images/opening_img-01.jpg' height='300' width='auto'></p>",10869,5202,17.08,Female,,,,,,,,,,,,,,,,,,,
audio-keyboard-response,3,37606,0.0-3.0,"""event"",""trial"",""time""
""fullscreenenter"",""1"",""10304""
","
","
","""event"",""trial"",""time""
""fullscreenenter"",""1"",""10304""
","
",,null,run_exp/static/audio/clip_2_move.m4a,null,,,,,,,,,,,,,,,,,,,,,,,,
welcome_dec,4,39102,0.0-4.0,"""event"",""trial"",""time""
""fullscreenenter"",""1"",""10304""
","
","
","""event"",""trial"",""time""
""fullscreenenter"",""1"",""10304""
","
",,1495.4,"<p>Howdy! In this experiment, you’ll be an explorer traveling through space to collect space treasure.</p><p>Your mission is to collect as much treasure as possible.</p><br><br><p><img src='run_exp/static/images/task_images/opening_img-01.jpg' height='300' width='auto'></p>",,,,,,,1,,,,,,,,,,,,,,,,,,
html-keyboard-response,5,40543,0.0-5.0,"""event"",""trial"",""time""
""fullscreenenter"",""1"",""10304""
","
","
","""event"",""trial"",""time""
""fullscreenenter"",""1"",""10304""
","
",,1439.8,"<p>Howdy! In this experiment, you’ll be an explorer traveling through space to collect space treasure.</p><p>Your mission is to collect as much treasure as possible.</p><br><br><p><img src='run_exp/static/images/task_images/opening_img-01.jpg' height='300' width='auto'></p><button class=""jspsych-html-btn-unchosen""><img src=""run_exp/static/images/task_images/planet-01.jpg"" height=""50""></button><button class=""jspsych-html-btn-chosen""><img src=""run_exp/static/images/task_images/planet-02.jpg"" height=""50""></button><p><b>[press the space bar to lock in your answer]<b><br></p>",32,,,,,,,,,,,,,,,,,,,,,,,,
instruc_goal,6,50607,0.0-6.0-0.0,"""event"",""trial"",""time""
""fullscreenenter"",""1"",""10304""
","
","
","""event"",""trial"",""time""
""fullscreenenter"",""1"",""10304""
","
",,null,run_exp/static/audio/clip_3_goal.m4a,null,"<p> As a space explorer, you’ll visit different planets to dig for space treasure, these pink gems.</p> <p> The more treasure you dig up, the more bonus money you’ll win! </p><br><br><p><img src='run_exp/static/images/task_images/pink_gem.jpg' height='300' width='auto'></p>",,,,,,,,,,,,,,,,,,,,,,,
instruc_goal,7,51536,0.0-6.0-1.0,"""event"",""trial"",""time""
""fullscreenenter"",""1"",""10304""
","
","
","""event"",""trial"",""time""
""fullscreenenter"",""1"",""10304""
","
",,925.2,"<p> As a space explorer, you’ll visit different planets to dig for space treasure, these pink gems.</p> <p> The more treasure you dig up, the more bonus money you’ll win! </p><br><br><p><img src='run_exp/static/images/task_images/pink_gem.jpg' height='300' width='auto'></p>",,,,,,,1,,,,,,,,,,,,,,,,,,
html-keyboard-response,8,52457,0.0-6.0-2.0,"""event"",""trial"",""time""
""fullscreenenter"",""1"",""10304""
","
","
","""event"",""trial"",""time""
""fullscreenenter"",""1"",""10304""
","
",,919.1000001,"<p> As a space explorer, you’ll visit different planets to dig for space treasure, these pink gems.</p> <p> The more treasure you dig up, the more bonus money you’ll win! </p><br><br><p><img src='run_exp/static/images/task_images/pink_gem.jpg' height='300' width='auto'></p><button class=""jspsych-html-btn-unchosen""><img src=""run_exp/static/images/task_images/planet-01.jpg"" height=""50""></button><button class=""jspsych-html-btn-chosen""><img src=""run_exp/static/images/task_images/planet-02.jpg"" height=""50""></button><p><b>[press the space bar to lock in your answer]<b><br></p>",32,,,,,,,,,,,,,,,,,,,,,,,,
instruc_dig,9,68468,0.0-7.0-0.0,"""event"",""trial"",""time""
""fullscreenenter"",""1"",""10304""
","
","
","""event"",""trial"",""time""
""fullscreenenter"",""1"",""10304""
","
",,null,run_exp/static/audio/clip_4_dig.m4a,null,,,,,,,100,,,,,,,,,,,,,,,,,
instruc_dig_try,10,69550,0.0-7.0-1.0,"""event"",""trial"",""time""
""fullscreenenter"",""1"",""10304""
","
","
","""event"",""trial"",""time""
""fullscreenenter"",""1"",""10304""
","
",,1079.6,"<p> When you’ve arrived at a new planet, you will dig once. </p> <p>Then, you get to decide if you want to stay on the planet and dig again or travel to a new planet and dig there.</p> <p> To stay and dig, press the letter <strong>‘A’</strong> on your keyboard. Try pressing it now! </p><p><img src='run_exp/static/images/task_images/land.jpg'  height='700' width='auto'></p>",65,"<p> When you’ve arrived at a new planet, you will dig once. </p> <p>Then, you get to decide if you want to stay on the planet and dig again or travel to a new planet and dig there.</p> <p> To stay and dig, press the letter <strong>‘A’</strong> on your keyboard. Try pressing it now! </p><p><img src='run_exp/static/images/task_images/land.jpg'  height='700' width='auto'></p>",,,,,,100,,,,,,,,,,,,,,,,,
dig_prac,11,71561,0.0-7.0-2.0,"""event"",""trial"",""time""
""fullscreenenter"",""1"",""10304""
","
","
","""event"",""trial"",""time""
""fullscreenenter"",""1"",""10304""
","
",,,,,,,,,,,,"[{""stimulus"":""run_exp/static/images/task_images/dig.jpg"",""time"":0.19999980926513672},{""stimulus"":""run_exp/static/images/task_images/land.jpg"",""time"":668.5},{""stimulus"":""run_exp/static/images/task_images/dig.jpg"",""time"":1336.3999998569489}]",[],,,,,,,,,,,,,,,
instruc_travel,12,107806,0.0-7.0-3.0,"""event"",""trial"",""time""
""fullscreenenter"",""1"",""10304""
","
","
","""event"",""trial"",""time""
""fullscreenenter"",""1"",""10304""
","
",,null,run_exp/static/audio/clip_5_travel.m4a,null,"<p>Every time you dig up gems, there are less gems on the planet, so the more you dig on a planet the fewer gems you’ll get with each dig.</p><p>When gems are running low, you may want to travel to a new planet. </p> <p>  Planets are very far apart in this galaxy, so it will take some time to travel between them. </p> <br><p>There are lots and lots of planets for you to visit, so you won’t be able to return to any planets you’ve seen before. </p><br><p>To leave this planet and travel to a new one, press the letter <strong>‘L’</strong> on your keyboard. Try pressing it now! </p><p><img src='run_exp/static/images/task_images/rocket-01.jpg'  height='600' width='auto'></p>",,,,,,,,,,,,,,,,,,,,,,,
instruc_travel_try,13,109712,0.0-7.0-4.0,"""event"",""trial"",""time""
""fullscreenenter"",""1"",""10304""
","
","
","""event"",""trial"",""time""
""fullscreenenter"",""1"",""10304""
","
",,1902.6,"<p>Every time you dig up gems, there are less gems on the planet, so the more you dig on a planet the fewer gems you’ll get with each dig.</p><p>When gems are running low, you may want to travel to a new planet. </p> <p>  Planets are very far apart in this galaxy, so it will take some time to travel between them. </p> <br><p>There are lots and lots of planets for you to visit, so you won’t be able to return to any planets you’ve seen before. </p><br><p>To leave this planet and travel to a new one, press the letter <strong>‘L’</strong> on your keyboard. Try pressing it now! </p><p><img src='run_exp/static/images/task_images/rocket-01.jpg'  height='600' width='auto'></p>",76,"<p>Every time you dig up gems, there are less gems on the planet, so the more you dig on a planet the fewer gems you’ll get with each dig.</p><p>When gems are running low, you may want to travel to a new planet. </p> <p>  Planets are very far apart in this galaxy, so it will take some time to travel between them. </p> <br><p>There are lots and lots of planets for you to visit, so you won’t be able to return to any planets you’ve seen before. </p><br><p>To leave this planet and travel to a new one, press the letter <strong>‘L’</strong> on your keyboard. Try pressing it now! </p><p><img src='run_exp/static/images/task_images/rocket-01.jpg'  height='600' width='auto'></p>",,,,,,,,,,,,,,,,,,,,,,,
travel_prac,14,119721,0.0-7.0-5.0,"""event"",""trial"",""time""
""fullscreenenter"",""1"",""10304""
","
","
","""event"",""trial"",""time""
""fullscreenenter"",""1"",""10304""
","
",,,,,,,,,,,,"[{""stimulus"":""run_exp/static/images/task_images/rocket-01.jpg"",""time"":0.2999999523162842},{""stimulus"":""run_exp/static/images/task_images/rocket-02.jpg"",""time"":1126.5},{""stimulus"":""run_exp/static/images/task_images/rocket-03.jpg"",""time"":2231.600000143051},{""stimulus"":""run_exp/static/images/task_images/rocket-04.jpg"",""time"":3348.5},{""stimulus"":""run_exp/static/images/task_images/rocket-05.jpg"",""time"":4450.299999952316},{""stimulus"":""run_exp/static/images/task_images/rocket-06.jpg"",""time"":5558.799999952316},{""stimulus"":""run_exp/static/images/task_images/rocket-07.jpg"",""time"":6675.799999952316},{""stimulus"":""run_exp/static/images/task_images/rocket-08.jpg"",""time"":7780.900000095367},{""stimulus"":""run_exp/static/images/task_images/rocket-09.jpg"",""time"":8901.600000143051}]",[],0,,,,,,,,,,,,,,
instruc_alien_greet,15,146896,0.0-7.0-6.0,"""event"",""trial"",""time""
""fullscreenenter"",""1"",""10304""
","
","
","""event"",""trial"",""time""
""fullscreenenter"",""1"",""10304""
","
",,null,run_exp/static/audio/clip_6_alien.m4a,null,"<p>When you arrive at a new planet, the alien who owns the treasure mine on that planet will greet you!</p><p>The better an alien takes care of their mine the easier it is to dig for gems. Some aliens take better care of their mine than others. So, you won’t get exactly the same amount of gems on each planet.</p><p>What the alien looks like does not tell you anything about how many gems there are on the planet.</p><br><p><img src=""run_exp/static/images/task_images/aliens/instructions_aliens/planet/alien_planet-1.jpg""  height=""600"" width=""auto""></p>",,,,,,,,,,,,,,,,,,,,,,,
instruc_alien_greet,16,149524,0.0-7.0-7.0,"""event"",""trial"",""time""
""fullscreenenter"",""1"",""10304""
","
","
","""event"",""trial"",""time""
""fullscreenenter"",""1"",""10304""
","
",,2624.7,"<p>When you arrive at a new planet, the alien who owns the treasure mine on that planet will greet you!</p><p>The better an alien takes care of their mine the easier it is to dig for gems. Some aliens take better care of their mine than others. So, you won’t get exactly the same amount of gems on each planet.</p><p>What the alien looks like does not tell you anything about how many gems there are on the planet.</p><br><p><img src=""run_exp/static/images/task_images/aliens/instructions_aliens/planet/alien_planet-1.jpg""  height=""600"" width=""auto""></p>",,,,,,,1,,,,,,,,,,,,,,,,,,
html-keyboard-response,17,151235,0.0-7.0-8.0,"""event"",""trial"",""time""
""fullscreenenter"",""1"",""10304""
","
","
","""event"",""trial"",""time""
""fullscreenenter"",""1"",""10304""
","
",,1709.4,"<p>When you arrive at a new planet, the alien who owns the treasure mine on that planet will greet you!</p><p>The better an alien takes care of their mine the easier it is to dig for gems. Some aliens take better care of their mine than others. So, you won’t get exactly the same amount of gems on each planet.</p><p>What the alien looks like does not tell you anything about how many gems there are on the planet.</p><br><p><img src=""run_exp/static/images/task_images/aliens/instructions_aliens/planet/alien_planet-1.jpg""  height=""600"" width=""auto""></p><button class=""jspsych-html-btn-unchosen""><img src=""run_exp/static/images/task_images/planet-01.jpg"" height=""50""></button><button class=""jspsych-html-btn-chosen""><img src=""run_exp/static/images/task_images/planet-02.jpg"" height=""50""></button><p><b>[press the space bar to lock in your answer]<b><br></p>",32,,,,,,,,,,,,,,,,,,,,,,,,
time_out,18,162316,0.0-8.0-0.0,"""event"",""trial"",""time""
""fullscreenenter"",""1"",""10304""
","
","
","""event"",""trial"",""time""
""fullscreenenter"",""1"",""10304""
","
",,null,run_exp/static/audio/clip_7_timeout.m4a,null,"<p>If you don't make your choice fast enough, you’ll have to wait a few seconds before you can make another one.</p><p>You can’t dig for more gems or travel to new planets. You just have to sit and wait.</p><br><p><img src='run_exp/static/images/task_images/time_out.jpg'  height='600' width='auto'></p>",,,,,,,,,,,,,,,,,,,,,,,
time_out,19,164111,0.0-8.0-1.0,"""event"",""trial"",""time""
""fullscreenenter"",""1"",""10304""
","
","
","""event"",""trial"",""time""
""fullscreenenter"",""1"",""10304""
","
",,1791.8,"<p>If you don't make your choice fast enough, you’ll have to wait a few seconds before you can make another one.</p><p>You can’t dig for more gems or travel to new planets. You just have to sit and wait.</p><br><p><img src='run_exp/static/images/task_images/time_out.jpg'  height='600' width='auto'></p>",,,,,,,1,,,,,,,,,,,,,,,,,,
html-keyboard-response,20,165342,0.0-8.0-2.0,"""event"",""trial"",""time""
""fullscreenenter"",""1"",""10304""
","
","
","""event"",""trial"",""time""
""fullscreenenter"",""1"",""10304""
","
",,1228.6,"<p>If you don't make your choice fast enough, you’ll have to wait a few seconds before you can make another one.</p><p>You can’t dig for more gems or travel to new planets. You just have to sit and wait.</p><br><p><img src='run_exp/static/images/task_images/time_out.jpg'  height='600' width='auto'></p><button class=""jspsych-html-btn-unchosen""><img src=""run_exp/static/images/task_images/planet-01.jpg"" height=""50""></button><button class=""jspsych-html-btn-chosen""><img src=""run_exp/static/images/task_images/planet-02.jpg"" height=""50""></button><p><b>[press the space bar to lock in your answer]<b><br></p>",32,,,,,,,,,,,,,,,,,,,,,,,,
instruc_break,21,180997,0.0-9.0-0.0,"""event"",""trial"",""time""
""fullscreenenter"",""1"",""10304""
","
","
","""event"",""trial"",""time""
""fullscreenenter"",""1"",""10304""
","
",,null,run_exp/static/audio/clip_8_break.m4a,null,"<p> After digging and traveling for a while, you’ll be able to take a break at home base. </p><p>The game will last 20 minutes no matter what.</p><p>You will visit home base every 5 minutes, so, you will visit home base three times during the game.</p><br><p><img src='run_exp/static/images/task_images/home_base.jpg' height='600' width='auto'></p>",,,,,,,,,,,,,,,,,,,,,,,
instruc_break,22,183372,0.0-9.0-1.0,"""event"",""trial"",""time""
""fullscreenenter"",""1"",""10304""
","
","
","""event"",""trial"",""time""
""fullscreenenter"",""1"",""10304""
","
",,2370.9,"<p> After digging and traveling for a while, you’ll be able to take a break at home base. </p><p>The game will last 20 minutes no matter what.</p><p>You will visit home base every 5 minutes, so, you will visit home base three times during the game.</p><br><p><img src='run_exp/static/images/task_images/home_base.jpg' height='600' width='auto'></p>",,,,,,,1,,,,,,,,,,,,,,,,,,
html-keyboard-response,23,184270,0.0-9.0-2.0,"""event"",""trial"",""time""
""fullscreenenter"",""1"",""10304""
","
","
","""event"",""trial"",""time""
""fullscreenenter"",""1"",""10304""
","
",,897.3999999,"<p> After digging and traveling for a while, you’ll be able to take a break at home base. </p><p>The game will last 20 minutes no matter what.</p><p>You will visit home base every 5 minutes, so, you will visit home base three times during the game.</p><br><p><img src='run_exp/static/images/task_images/home_base.jpg' height='600' width='auto'></p><button class=""jspsych-html-btn-unchosen""><img src=""run_exp/static/images/task_images/planet-01.jpg"" height=""50""></button><button class=""jspsych-html-btn-chosen""><img src=""run_exp/static/images/task_images/planet-02.jpg"" height=""50""></button><p><b>[press the space bar to lock in your answer]<b><br></p>",32,,,,,,,,,,,,,,,,,,,,,,,,
instruc_prac_game,24,194398,0.0-10.0-0.0,"""event"",""trial"",""time""
""fullscreenenter"",""1"",""10304""
","
","
","""event"",""trial"",""time""
""fullscreenenter"",""1"",""10304""
","
",,null,run_exp/static/audio/clip_9_practice.m4a,null,"<p> Are you ready to play a practice game? </p> <p>In this practice game, you'll be digging up barrels of gems. But, in the real game, you'll be digging up the gems themselves. </p>",,,,,,,,,,,,,,,,,,,,,,,
html-button-response,25,196505,0.0-10.0-1.0,"""event"",""trial"",""time""
""fullscreenenter"",""1"",""10304""
","
","
","""event"",""trial"",""time""
""fullscreenenter"",""1"",""10304""
","
",,2104.3,"<p> Are you ready to play a practice game? </p> <p>In this practice game, you'll be digging up barrels of gems. But, in the real game, you'll be digging up the gems themselves. </p>",,,,,,,0,,,,,,,,,,,,,,,,,,
alien_welcome_prac,26,201509,0.0-11.0-0.0,"""event"",""trial"",""time""
""fullscreenenter"",""1"",""10304""
","
","
","""event"",""trial"",""time""
""fullscreenenter"",""1"",""10304""
","
",,null,run_exp/static/images/task_images/aliens/practice_aliens/planet/alien_planet-5.jpg,null,,,,,,,,,,,,,,,,,,,,,,,,
land_prac,27,202023,0.0-11.0-1.0,"""event"",""trial"",""time""
""fullscreenenter"",""1"",""10304""
","
","
","""event"",""trial"",""time""
""fullscreenenter"",""1"",""10304""
","
",,null,run_exp/static/images/task_images/land.jpg,null,,,,,,,104,,,0,,,,,,,,,,,,,,
dig_prac,28,204030,0.0-11.0-2.0,"""event"",""trial"",""time""
""fullscreenenter"",""1"",""10304""
","
","
","""event"",""trial"",""time""
""fullscreenenter"",""1"",""10304""
","
",,,,,,,,,,,,"[{""stimulus"":""run_exp/static/images/task_images/dig.jpg"",""time"":0.5},{""stimulus"":""run_exp/static/images/task_images/land.jpg"",""time"":681.6999998092651},{""stimulus"":""run_exp/static/images/task_images/dig.jpg"",""time"":1335.7999999523163}]",[],,,,,,,,,,,,,,,
harvest_prac,29,205036,0.0-11.0-3.0,"""event"",""trial"",""time""
""fullscreenenter"",""1"",""10304""
","
","
","""event"",""trial"",""time""
""fullscreenenter"",""1"",""10304""
","
",,null,run_exp/static/images/task_images/barrel_text.jpg,null,,,,,,,,,,,,,,,,,,,,,,,,
decision_prac,30,206022,0.0-11.0-4.0,"""event"",""trial"",""time""
""fullscreenenter"",""1"",""10304""
","
","
","""event"",""trial"",""time""
""fullscreenenter"",""1"",""10304""
","
",,983.8999999,run_exp/static/images/task_images/land.jpg,65,,,,,,,,,,,1,,,,,,,,,,,,,
dig_prac,31,208033,0.0-12.0-0.0,"""event"",""trial"",""time""
""fullscreenenter"",""1"",""10304""
","
","
","""event"",""trial"",""time""
""fullscreenenter"",""1"",""10304""
","
",,,,,,,,,,,,"[{""stimulus"":""run_exp/static/images/task_images/dig.jpg"",""time"":0.10000014305114746},{""stimulus"":""run_exp/static/images/task_images/land.jpg"",""time"":677.7999999523163},{""stimulus"":""run_exp/static/images/task_images/dig.jpg"",""time"":1343.7000000476837}]",[],,,,,,,,,,,,,,,
harvest_prac,32,209044,0.0-12.0-1.0,"""event"",""trial"",""time""
""fullscreenenter"",""1"",""10304""
","
","
","""event"",""trial"",""time""
""fullscreenenter"",""1"",""10304""
","
",,null,run_exp/static/images/task_images/barrel_text.jpg,null,,,,,,,,,,,,,,,,,,,,,,,,
decision_prac,33,209988,0.0-12.0-2.0,"""event"",""trial"",""time""
""fullscreenenter"",""1"",""10304""
","
","
","""event"",""trial"",""time""
""fullscreenenter"",""1"",""10304""
","
",,941.7,run_exp/static/images/task_images/land.jpg,65,,,,,,,,,,,2,,,,,,,,,,,,,
dig_prac,34,212001,0.0-13.0-0.0,"""event"",""trial"",""time""
""fullscreenenter"",""1"",""10304""
","
","
","""event"",""trial"",""time""
""fullscreenenter"",""1"",""10304""
","
",,,,,,,,,,,,"[{""stimulus"":""run_exp/static/images/task_images/dig.jpg"",""time"":0.09999990463256836},{""stimulus"":""run_exp/static/images/task_images/land.jpg"",""time"":667.5999999046326},{""stimulus"":""run_exp/static/images/task_images/dig.jpg"",""time"":1341.3999998569489}]",[],,,,,,,,,,,,,,,
harvest_prac,35,213015,0.0-13.0-1.0,"""event"",""trial"",""time""
""fullscreenenter"",""1"",""10304""
","
","
","""event"",""trial"",""time""
""fullscreenenter"",""1"",""10304""
","
",,null,run_exp/static/images/task_images/barrel_text.jpg,null,,,,,,,,,,,,,,,,,,,,,,,,
decision_prac,36,213794,0.0-13.0-2.0,"""event"",""trial"",""time""
""fullscreenenter"",""1"",""10304""
","
","
","""event"",""trial"",""time""
""fullscreenenter"",""1"",""10304""
","
",,777.5,run_exp/static/images/task_images/land.jpg,65,,,,,,,,,,,3,,,,,,,,,,,,,
dig_prac,37,215806,0.0-14.0-0.0,"""event"",""trial"",""time""
""fullscreenenter"",""1"",""10304""
","
","
","""event"",""trial"",""time""
""fullscreenenter"",""1"",""10304""
","
",,,,,,,,,,,,"[{""stimulus"":""run_exp/static/images/task_images/dig.jpg"",""time"":0.2999999523162842},{""stimulus"":""run_exp/static/images/task_images/land.jpg"",""time"":675},{""stimulus"":""run_exp/static/images/task_images/dig.jpg"",""time"":1341.3999998569489}]",[],,,,,,,,,,,,,,,
harvest_prac,38,216816,0.0-14.0-1.0,"""event"",""trial"",""time""
""fullscreenenter"",""1"",""10304""
","
","
","""event"",""trial"",""time""
""fullscreenenter"",""1"",""10304""
","
",,null,run_exp/static/images/task_images/barrel_text.jpg,null,,,,,,,,,,,,,,,,,,,,,,,,
decision_prac,39,218351,0.0-14.0-2.0,"""event"",""trial"",""time""
""fullscreenenter"",""1"",""10304""
","
","
","""event"",""trial"",""time""
""fullscreenenter"",""1"",""10304""
","
",,1533.9,run_exp/static/images/task_images/land.jpg,65,,,,,,,,,,,4,,,,,,,,,,,,,
dig_prac,40,220364,0.0-15.0-0.0,"""event"",""trial"",""time""
""fullscreenenter"",""1"",""10304""
","
","
","""event"",""trial"",""time""
""fullscreenenter"",""1"",""10304""
","
",,,,,,,,,,,,"[{""stimulus"":""run_exp/static/images/task_images/dig.jpg"",""time"":0.20000004768371582},{""stimulus"":""run_exp/static/images/task_images/land.jpg"",""time"":671.4000000953674},{""stimulus"":""run_exp/static/images/task_images/dig.jpg"",""time"":1340.2000000476837}]",[],,,,,,,,,,,,,,,
harvest_prac,41,221378,0.0-15.0-1.0,"""event"",""trial"",""time""
""fullscreenenter"",""1"",""10304""
","
","
","""event"",""trial"",""time""
""fullscreenenter"",""1"",""10304""
","
",,null,run_exp/static/images/task_images/barrel_text.jpg,null,,,,,,,,,,,,,,,,,,,,,,,,
decision_prac,42,221927,0.0-15.0-2.0,"""event"",""trial"",""time""
""fullscreenenter"",""1"",""10304""
","
","
","""event"",""trial"",""time""
""fullscreenenter"",""1"",""10304""
","
",,546.9000001,run_exp/static/images/task_images/land.jpg,65,,,,,,,,,,,,1,,,,,,,,,,,,
quiz_instruc,43,223622,0.0-16.0-0.0,"""event"",""trial"",""time""
""fullscreenenter"",""1"",""10304""
","
","
","""event"",""trial"",""time""
""fullscreenenter"",""1"",""10304""
","
",,1691.8,run_exp/static/audio/clip_10_quiz.m4a,,,,,,,0,,,,,,,,,,,,,,,,,,
instruc_repeat,44,266388,0.0-16.0-1.0,"""event"",""trial"",""time""
""fullscreenenter"",""1"",""10304""
","
","
","""event"",""trial"",""time""
""fullscreenenter"",""1"",""10304""
","
",,null,"<p> Are you ready to play a practice game? </p> <p>In this practice game, you'll be digging up barrels of gems. But, in the real game, you'll be digging up the gems themselves. </p>",null,"<p>In this game, your goal is to collect as many gems as you can. That’s how you will win bonus money. </p> <p>The entire game will last 20 minutes no matter how many gems you collect or how many planets you visit. </p><p>To stay on a planet and dig again, press the letter A on your keyboard. To leave for a new planet, press the letter L.</p><p>The more you dig on a planet, the fewer gems you’ll get with each dig which is why you might consider leaving for a new planet. </p><p>When you arrive at a new planet, you’ll be greeted by an alien. What the alien looks like does not tell you anything about how much treasure is on the planet. </p>",,,,,,,,,,,,,,,,,,,,,,,
instruc_repeat_continue,45,267084,0.0-16.0-2.0,"""event"",""trial"",""time""
""fullscreenenter"",""1"",""10304""
","
","
","""event"",""trial"",""time""
""fullscreenenter"",""1"",""10304""
","
",,694,"<p> Are you ready to play a practice game? </p> <p>In this practice game, you'll be digging up barrels of gems. But, in the real game, you'll be digging up the gems themselves. </p>",,,,,,,0,,,,,,,,,,,,,,,,,,
quiz_q_1_ask,46,274469,0.0-16.0-3.0,"""event"",""trial"",""time""
""fullscreenenter"",""1"",""10304""
","
","
","""event"",""trial"",""time""
""fullscreenenter"",""1"",""10304""
","
",,7383.4,run_exp/static/audio/clip_11_q1_ask.m4a,,,,,,,0,,,,,,,,,,,,,,,,,,
quiz_q_1_fb_incorrect,47,277927,0.0-17.0-0.0,"""event"",""trial"",""time""
""fullscreenenter"",""1"",""10304""
","
","
","""event"",""trial"",""time""
""fullscreenenter"",""1"",""10304""
","
",,null,run_exp/static/audio/clip_13_q1_incorrect.m4a,null,<p>That’s incorrect. You win extra money by collecting more gems.</p>,,,,,,,,,,,,,,,,,,,,,,,
quiz_q_2_ask,48,294195,0.0-17.0-1.0,"""event"",""trial"",""time""
""fullscreenenter"",""1"",""10304""
","
","
","""event"",""trial"",""time""
""fullscreenenter"",""1"",""10304""
","
",,16265.6,run_exp/static/audio/clip_14_q2_ask.m4a,,,,,,,1,,,,,,,,,,,,,,,,,,
quiz_q_2_fb_correct,49,298187,0.0-18.0-0.0,"""event"",""trial"",""time""
""fullscreenenter"",""1"",""10304""
","
","
","""event"",""trial"",""time""
""fullscreenenter"",""1"",""10304""
","
",,null,run_exp/static/audio/clip_15_q2_correct.m4a,null,<p>That’s correct. The experiment is 20 minutes no matter what.</p>,,,,,,,,,,,,,,,,,,,,,,,
quiz_q_3_ask,50,300751,0.0-18.0-1.0,"""event"",""trial"",""time""
""fullscreenenter"",""1"",""10304""
","
","
","""event"",""trial"",""time""
""fullscreenenter"",""1"",""10304""
","
",,2561.4,run_exp/static/audio/clip_17_q3_ask.m4a,,,,,,,1,,,,,,,,,,,,,,,,,,
quiz_q_3_fb_correct,51,304727,0.0-19.0-0.0,"""event"",""trial"",""time""
""fullscreenenter"",""1"",""10304""
","
","
","""event"",""trial"",""time""
""fullscreenenter"",""1"",""10304""
","
",,null,run_exp/static/audio/clip_18_q3_correct.m4a,null,<p> That’s correct. You press the letter L to travel to a new planet.</p>,,,,,,,,,,,,,,,,,,,,,,,
quiz_q_4_ask,52,308874,0.0-19.0-1.0,"""event"",""trial"",""time""
""fullscreenenter"",""1"",""10304""
","
","
","""event"",""trial"",""time""
""fullscreenenter"",""1"",""10304""
","
",,4144.5,run_exp/static/audio/clip_20_q4_ask.m4a,,,,,,,0,,,,,,,,,,,,,,,,,,
quiz_q_4_fb_correct,53,314187,0.0-20.0-0.0,"""event"",""trial"",""time""
""fullscreenenter"",""1"",""10304""
","
","
","""event"",""trial"",""time""
""fullscreenenter"",""1"",""10304""
","
",,null,run_exp/static/audio/clip_21_q4_correct.m4a,null,<p> That’s correct. The more you dig on a planet the fewer gems you’ll get with each dig. </p>,,,,,,,,,,,,,,,,,,,,,,,
quiz_q_5_ask,54,319905,0.0-20.0-1.0,"""event"",""trial"",""time""
""fullscreenenter"",""1"",""10304""
","
","
","""event"",""trial"",""time""
""fullscreenenter"",""1"",""10304""
","
",,5714.9,run_exp/static/audio/clip_23_q5_ask.m4a,,,,,,,1,,,,,,,,,,,,,,,,,,
quiz_q_5_fb_correct,55,324907,0.0-21.0-0.0,"""event"",""trial"",""time""
""fullscreenenter"",""1"",""10304""
","
","
","""event"",""trial"",""time""
""fullscreenenter"",""1"",""10304""
","
",,null,run_exp/static/audio/clip_24_q5_correct.m4a,null,<p> That’s correct. The alien tells you nothing about how much treasure is on the planet.</p>,,,,,,,,,,,,,,,,,,,,,,,
quiz_incorrect,56,330447,0.0-22.0-0.0,"""event"",""trial"",""time""
""fullscreenenter"",""1"",""10304""
","
","
","""event"",""trial"",""time""
""fullscreenenter"",""1"",""10304""
","
",,null,run_exp/static/audio/clip_27_incorrect_quiz.m4a,null,,,,,,,,,,,,,,,,,,,,,,,,
quiz_incorrect_continue,57,331362,0.0-22.0-1.0,"""event"",""trial"",""time""
""fullscreenenter"",""1"",""10304""
","
","
","""event"",""trial"",""time""
""fullscreenenter"",""1"",""10304""
","
",,912.8,"<p>Oops, you missed some questions.</p><p>Now that you’ve heard the correct answers. Try the quiz again!</p>",,,,,,,0,,,,,,,,,,,,,,,,,,
quiz_q_1_ask,58,334559,0.0-22.0-2.0,"""event"",""trial"",""time""
""fullscreenenter"",""1"",""10304""
","
","
","""event"",""trial"",""time""
""fullscreenenter"",""1"",""10304""
","
",,3196.5,run_exp/static/audio/clip_11_q1_ask.m4a,,,,,,,1,,,,,,,,,,,,,,,,,,
quiz_q_1_fb_incorrect,59,338027,0.0-23.0-0.0,"""event"",""trial"",""time""
""fullscreenenter"",""1"",""10304""
","
","
","""event"",""trial"",""time""
""fullscreenenter"",""1"",""10304""
","
",,null,run_exp/static/audio/clip_13_q1_incorrect.m4a,null,<p>That’s incorrect. You win extra money by collecting more gems.</p>,,,,,,,,,,,,,,,,,,,,,,,
quiz_q_2_ask,60,339805,0.0-23.0-1.0,"""event"",""trial"",""time""
""fullscreenenter"",""1"",""10304""
","
","
","""event"",""trial"",""time""
""fullscreenenter"",""1"",""10304""
","
",,1776.4,run_exp/static/audio/clip_14_q2_ask.m4a,,,,,,,1,,,,,,,,,,,,,,,,,,
quiz_q_2_fb_correct,61,343807,0.0-24.0-0.0,"""event"",""trial"",""time""
""fullscreenenter"",""1"",""10304""
","
","
","""event"",""trial"",""time""
""fullscreenenter"",""1"",""10304""
","
",,null,run_exp/static/audio/clip_15_q2_correct.m4a,null,<p>That’s correct. The experiment is 20 minutes no matter what.</p>,,,,,,,,,,,,,,,,,,,,,,,
quiz_q_3_ask,62,345405,0.0-24.0-1.0,"""event"",""trial"",""time""
""fullscreenenter"",""1"",""10304""
","
","
","""event"",""trial"",""time""
""fullscreenenter"",""1"",""10304""
","
",,1594.9,run_exp/static/audio/clip_17_q3_ask.m4a,,,,,,,1,,,,,,,,,,,,,,,,,,
quiz_q_3_fb_correct,63,349387,0.0-25.0-0.0,"""event"",""trial"",""time""
""fullscreenenter"",""1"",""10304""
","
","
","""event"",""trial"",""time""
""fullscreenenter"",""1"",""10304""
","
",,null,run_exp/static/audio/clip_18_q3_correct.m4a,null,<p> That’s correct. You press the letter L to travel to a new planet.</p>,,,,,,,,,,,,,,,,,,,,,,,
quiz_q_4_ask,64,351801,0.0-25.0-1.0,"""event"",""trial"",""time""
""fullscreenenter"",""1"",""10304""
","
","
","""event"",""trial"",""time""
""fullscreenenter"",""1"",""10304""
","
",,2411.6,run_exp/static/audio/clip_20_q4_ask.m4a,,,,,,,0,,,,,,,,,,,,,,,,,,
quiz_q_4_fb_correct,65,357127,0.0-26.0-0.0,"""event"",""trial"",""time""
""fullscreenenter"",""1"",""10304""
","
","
","""event"",""trial"",""time""
""fullscreenenter"",""1"",""10304""
","
",,null,run_exp/static/audio/clip_21_q4_correct.m4a,null,<p> That’s correct. The more you dig on a planet the fewer gems you’ll get with each dig. </p>,,,,,,,,,,,,,,,,,,,,,,,
quiz_q_5_ask,66,358678,0.0-26.0-1.0,"""event"",""trial"",""time""
""fullscreenenter"",""1"",""10304""
","
","
","""event"",""trial"",""time""
""fullscreenenter"",""1"",""10304""
","
",,1550.2,run_exp/static/audio/clip_23_q5_ask.m4a,,,,,,,1,,,,,,,,,,,,,,,,,,
quiz_q_5_fb_correct,67,363686,0.0-27.0-0.0,"""event"",""trial"",""time""
""fullscreenenter"",""1"",""10304""
","
","
","""event"",""trial"",""time""
""fullscreenenter"",""1"",""10304""
","
",,null,run_exp/static/audio/clip_24_q5_correct.m4a,null,<p> That’s correct. The alien tells you nothing about how much treasure is on the planet.</p>,,,,,,,,,,,,,,,,,,,,,,,
quiz_correct,68,367147,0.0-28.0-0.0,"""event"",""trial"",""time""
""fullscreenenter"",""1"",""10304""
","
","
","""event"",""trial"",""time""
""fullscreenenter"",""1"",""10304""
","
",,null,run_exp/static/audio/clip_26_correct_quiz.m4a,null,,,,,,,,,,,,,,,,,,,,,,,,
quiz_correct_continue,69,368499,0.0-28.0-1.0,"""event"",""trial"",""time""
""fullscreenenter"",""1"",""10304""
","
","
","""event"",""trial"",""time""
""fullscreenenter"",""1"",""10304""
","
",,1349.8,<p>Good job! You're now ready to move on to the real game!</p>,,,,,,,0,,,,,,,,,,,,,,,,,,
audio-keyboard-response,70,378627,0.0-28.0-2.0,"""event"",""trial"",""time""
""fullscreenenter"",""1"",""10304""
","
","
","""event"",""trial"",""time""
""fullscreenenter"",""1"",""10304""
","
",,null,run_exp/static/audio/clip_28_real_game.m4a,null,,,,,,,,,,,,,,,,,,,,,,,,
instruc_begin_exp_contine,71,387529,0.0-28.0-3.0,"""event"",""trial"",""time""
""fullscreenenter"",""1"",""10304""
","
","
","""event"",""trial"",""time""
""fullscreenenter"",""1"",""10304""
","
",,8900.5,"<p>Now that you know how  to dig for space treasure and travel to new planets,you can start exploring! </p><p>Do you want to go over the instructions again or get started with the real game?</p>",,,,,,,1,,,,,,1,,,,,,,,,,,,
alien_welcome,72,392539,0.0-29.0-0.0,"""event"",""trial"",""time""
""fullscreenenter"",""1"",""10304""
","
","
","""event"",""trial"",""time""
""fullscreenenter"",""1"",""10304""
","
",,null,run_exp/static/images/task_images/aliens/old_aliens/planet/alien_planet-36.jpg,null,,,,,,,,,,,,,36,"36,44,57,27,18,52,42,16,50,54,31,37,74,76,40,55,19,51,22,56,10,71,77,3,49,20,79,45,53,12,69,8,39,11,33,72,26,14,70",,,,,,,,,,
land,73,393058,0.0-29.0-1.0,"""event"",""trial"",""time""
""fullscreenenter"",""1"",""10304""
","
","
","""event"",""trial"",""time""
""fullscreenenter"",""1"",""10304""
","
",,null,run_exp/static/images/task_images/land.jpg,null,,,,,,,100,,,1,,,,,,,,,,,,,,
dig,74,395068,0.0-29.0-2.0,"""event"",""trial"",""time""
""fullscreenenter"",""1"",""10304""
","
","
","""event"",""trial"",""time""
""fullscreenenter"",""1"",""10304""
","
",,,,,,,,,,,,"[{""stimulus"":""run_exp/static/images/task_images/dig.jpg"",""time"":0.40000009536743164},{""stimulus"":""run_exp/static/images/task_images/land.jpg"",""time"":683.2000000476837},{""stimulus"":""run_exp/static/images/task_images/dig.jpg"",""time"":1346.2000000476837}]",[],1,,,,,,,,,,,,,,
harvest,75,396083,0.0-29.0-3.0,"""event"",""trial"",""time""
""fullscreenenter"",""1"",""10304""
","
","
","""event"",""trial"",""time""
""fullscreenenter"",""1"",""10304""
","
",,null,run_exp/static/images/task_images/gems/100.jpg,null,,,,,,,24,,,1,,,,,100,0.239641997,0.24,,,,,,,
decision,76,396860,0.0-29.0-4.0,"""event"",""trial"",""time""
""fullscreenenter"",""1"",""10304""
","
","
","""event"",""trial"",""time""
""fullscreenenter"",""1"",""10304""
","
",,774.0999999,run_exp/static/images/task_images/land.jpg,65,,,,,,,24,,,1,,,,,,,,9329,1,0,FALSE,,,
dig,77,399091,0.0-30.0-0.0,"""event"",""trial"",""time""
""fullscreenenter"",""1"",""10304""
","
","
","""event"",""trial"",""time""
""fullscreenenter"",""1"",""10304""
","
",,,,,,,,,,,,"[{""stimulus"":""run_exp/static/images/task_images/dig.jpg"",""time"":0.09999990463256836},{""stimulus"":""run_exp/static/images/task_images/land.jpg"",""time"":747.1999998092651},{""stimulus"":""run_exp/static/images/task_images/dig.jpg"",""time"":1494.1999998092651}]",[],1,,,,,,,,,,,,,,
harvest,78,400104,0.0-30.0-1.0,"""event"",""trial"",""time""
""fullscreenenter"",""1"",""10304""
","
","
","""event"",""trial"",""time""
""fullscreenenter"",""1"",""10304""
","
",,null,run_exp/static/images/task_images/gems/24.jpg,null,,,,,,,5,,,1,,,,,24,0.205463129,0.208333333,,,,,,,
decision,79,400395,0.0-30.0-2.0,"""event"",""trial"",""time""
""fullscreenenter"",""1"",""10304""
","
","
","""event"",""trial"",""time""
""fullscreenenter"",""1"",""10304""
","
",,288.5,run_exp/static/images/task_images/land.jpg,65,,,,,,,5,,,1,,,,,,,,12864,1,1,FALSE,,,
dig,80,403118,0.0-31.0-0.0,"""event"",""trial"",""time""
""fullscreenenter"",""1"",""10304""
","
","
","""event"",""trial"",""time""
""fullscreenenter"",""1"",""10304""
","
",,,,,,,,,,,,"[{""stimulus"":""run_exp/static/images/task_images/dig.jpg"",""time"":0.09999990463256836},{""stimulus"":""run_exp/static/images/task_images/land.jpg"",""time"":905.3999998569489},{""stimulus"":""run_exp/static/images/task_images/dig.jpg"",""time"":1820.2999999523163}]",[],1,,,,,,,,,,,,,,
harvest,81,404126,0.0-31.0-1.0,"""event"",""trial"",""time""
""fullscreenenter"",""1"",""10304""
","
","
","""event"",""trial"",""time""
""fullscreenenter"",""1"",""10304""
","
",,null,run_exp/static/images/task_images/gems/5.jpg,null,,,,,,,1,,,1,,,,,5,0.154308118,0.2,,,,,,,
decision,82,404251,0.0-31.0-2.0,"""event"",""trial"",""time""
""fullscreenenter"",""1"",""10304""
","
","
","""event"",""trial"",""time""
""fullscreenenter"",""1"",""10304""
","
",,122.1000001,run_exp/static/images/task_images/land.jpg,65,,,,,,,1,,,1,,,,,,,,16720,1,2,FALSE,,,
dig,83,407135,0.0-32.0-0.0,"""event"",""trial"",""time""
""fullscreenenter"",""1"",""10304""
","
","
","""event"",""trial"",""time""
""fullscreenenter"",""1"",""10304""
","
",,,,,,,,,,,,"[{""stimulus"":""run_exp/static/images/task_images/dig.jpg"",""time"":0.20000004768371582},{""stimulus"":""run_exp/static/images/task_images/land.jpg"",""time"":962.0999999046326},{""stimulus"":""run_exp/static/images/task_images/dig.jpg"",""time"":1929}]",[],1,,,,,,,,,,,,,,
harvest,84,408149,0.0-32.0-1.0,"""event"",""trial"",""time""
""fullscreenenter"",""1"",""10304""
","
","
","""event"",""trial"",""time""
""fullscreenenter"",""1"",""10304""
","
",,null,run_exp/static/images/task_images/gems/1.jpg,null,,,,,,,0,,,1,,,,,1,0.188553588,0,,,,,,,
decision,85,408190,0.0-32.0-2.0,"""event"",""trial"",""time""
""fullscreenenter"",""1"",""10304""
","
","
","""event"",""trial"",""time""
""fullscreenenter"",""1"",""10304""
","
",,39.0999999,run_exp/static/images/task_images/land.jpg,76,,,,,,,0,,,1,,,,,,,,20659,1,3,TRUE,,,
travel,86,418151,0.0-33.0-0.0,"""event"",""trial"",""time""
""fullscreenenter"",""1"",""10304""
","
","
","""event"",""trial"",""time""
""fullscreenenter"",""1"",""10304""
","
",,,,,,,,,,,,"[{""stimulus"":""run_exp/static/images/task_images/rocket-01.jpg"",""time"":0.20000004768371582},{""stimulus"":""run_exp/static/images/task_images/rocket-02.jpg"",""time"":1111.5999999046326},{""stimulus"":""run_exp/static/images/task_images/rocket-03.jpg"",""time"":2219.399999856949},{""stimulus"":""run_exp/static/images/task_images/rocket-04.jpg"",""time"":3326.0999999046326},{""stimulus"":""run_exp/static/images/task_images/rocket-05.jpg"",""time"":4429.899999856949},{""stimulus"":""run_exp/static/images/task_images/rocket-06.jpg"",""time"":5542.399999856949},{""stimulus"":""run_exp/static/images/task_images/rocket-07.jpg"",""time"":6650.700000047684},{""stimulus"":""run_exp/static/images/task_images/rocket-08.jpg"",""time"":7749.799999952316},{""stimulus"":""run_exp/static/images/task_images/rocket-09.jpg"",""time"":8853.799999952316}]",[],1,,,,,,,,,,,,,,
alien_welcome,87,423168,0.0-33.0-1.0,"""event"",""trial"",""time""
""fullscreenenter"",""1"",""10304""
","
","
","""event"",""trial"",""time""
""fullscreenenter"",""1"",""10304""
","
",,null,run_exp/static/images/task_images/aliens/old_aliens/planet/alien_planet-44.jpg,null,,,,,,,,,,,,,44,"36,44,57,27,18,52,42,16,50,54,31,37,74,76,40,55,19,51,22,56,10,71,77,3,49,20,79,45,53,12,69,8,39,11,33,72,26,14,70",,,,,,,,,,
land,88,423684,0.0-33.0-2.0,"""event"",""trial"",""time""
""fullscreenenter"",""1"",""10304""
","
","
","""event"",""trial"",""time""
""fullscreenenter"",""1"",""10304""
","
",,null,run_exp/static/images/task_images/land.jpg,null,,,,,,,98,,,2,,,,,,,,,,,,,,
dig,89,425696,0.0-33.0-3.0,"""event"",""trial"",""time""
""fullscreenenter"",""1"",""10304""
","
","
","""event"",""trial"",""time""
""fullscreenenter"",""1"",""10304""
","
",,,,,,,,,,,,"[{""stimulus"":""run_exp/static/images/task_images/dig.jpg"",""time"":0.5},{""stimulus"":""run_exp/static/images/task_images/land.jpg"",""time"":683.2000000476837},{""stimulus"":""run_exp/static/images/task_images/dig.jpg"",""time"":1337.9000000953674}]",[],2,,,,,,,,,,,,,,
harvest,90,426706,0.0-33.0-4.0,"""event"",""trial"",""time""
""fullscreenenter"",""1"",""10304""
","
","
","""event"",""trial"",""time""
""fullscreenenter"",""1"",""10304""
","
",,null,run_exp/static/images/task_images/gems/98.jpg,null,,,,,,,21,,,2,,,,,98,0.212351497,0.214285714,,,,,,,
decision,91,427944,0.0-33.0-5.0,"""event"",""trial"",""time""
""fullscreenenter"",""1"",""10304""
","
","
","""event"",""trial"",""time""
""fullscreenenter"",""1"",""10304""
","
",,1235.9,run_exp/static/images/task_images/land.jpg,65,,,,,,,21,,,2,,,,,,,,40413,1,0,FALSE,,,
dig,92,429726,0.0-34.0-0.0,"""event"",""trial"",""time""
""fullscreenenter"",""1"",""10304""
","
","
","""event"",""trial"",""time""
""fullscreenenter"",""1"",""10304""
","
",,,,,,,,,,,,"[{""stimulus"":""run_exp/static/images/task_images/dig.jpg"",""time"":0.20000004768371582},{""stimulus"":""run_exp/static/images/task_images/land.jpg"",""time"":598.8999998569489},{""stimulus"":""run_exp/static/images/task_images/dig.jpg"",""time"":1187.3999998569489}]",[],2,,,,,,,,,,,,,,
harvest,93,430735,0.0-34.0-1.0,"""event"",""trial"",""time""
""fullscreenenter"",""1"",""10304""
","
","
","""event"",""trial"",""time""
""fullscreenenter"",""1"",""10304""
","
",,null,run_exp/static/images/task_images/gems/21.jpg,null,,,,,,,3,,,2,,,,,21,0.14981648,0.142857143,,,,,,,
decision,94,431938,0.0-34.0-2.0,"""event"",""trial"",""time""
""fullscreenenter"",""1"",""10304""
","
","
","""event"",""trial"",""time""
""fullscreenenter"",""1"",""10304""
","
",,1202.5,run_exp/static/images/task_images/land.jpg,65,,,,,,,3,,,2,,,,,,,,44407,1,1,FALSE,,,
dig,95,433744,0.0-35.0-0.0,"""event"",""trial"",""time""
""fullscreenenter"",""1"",""10304""
","
","
","""event"",""trial"",""time""
""fullscreenenter"",""1"",""10304""
","
",,,,,,,,,,,,"[{""stimulus"":""run_exp/static/images/task_images/dig.jpg"",""time"":0.20000004768371582},{""stimulus"":""run_exp/static/images/task_images/land.jpg"",""time"":605.3000001907349},{""stimulus"":""run_exp/static/images/task_images/dig.jpg"",""time"":1213.5}]",[],2,,,,,,,,,,,,,,
harvest,96,434757,0.0-35.0-1.0,"""event"",""trial"",""time""
""fullscreenenter"",""1"",""10304""
","
","
","""event"",""trial"",""time""
""fullscreenenter"",""1"",""10304""
","
",,null,run_exp/static/images/task_images/gems/3.jpg,null,,,,,,,0,,,2,,,,,3,0.161505392,0,,,,,,,
decision,97,434816,0.0-35.0-2.0,"""event"",""trial"",""time""
""fullscreenenter"",""1"",""10304""
","
","
","""event"",""trial"",""time""
""fullscreenenter"",""1"",""10304""
","
",,56.5999999,run_exp/static/images/task_images/land.jpg,76,,,,,,,0,,,2,,,,,,,,47285,1,2,TRUE,,,
travel,98,444758,0.0-36.0-0.0,"""event"",""trial"",""time""
""fullscreenenter"",""1"",""10304""
","
","
","""event"",""trial"",""time""
""fullscreenenter"",""1"",""10304""
","
",,,,,,,,,,,,"[{""stimulus"":""run_exp/static/images/task_images/rocket-01.jpg"",""time"":0.19999980926513672},{""stimulus"":""run_exp/static/images/task_images/rocket-02.jpg"",""time"":1119.6999998092651},{""stimulus"":""run_exp/static/images/task_images/rocket-03.jpg"",""time"":2210.199999809265},{""stimulus"":""run_exp/static/images/task_images/rocket-04.jpg"",""time"":3327.199999809265},{""stimulus"":""run_exp/static/images/task_images/rocket-05.jpg"",""time"":4433.599999904633},{""stimulus"":""run_exp/static/images/task_images/rocket-06.jpg"",""time"":5533.299999952316},{""stimulus"":""run_exp/static/images/task_images/rocket-07.jpg"",""time"":6639.799999952316},{""stimulus"":""run_exp/static/images/task_images/rocket-08.jpg"",""time"":7729.799999952316},{""stimulus"":""run_exp/static/images/task_images/rocket-09.jpg"",""time"":8834.399999856949}]",[],2,,,,,,,,,,,,,,
alien_welcome,99,449764,0.0-36.0-1.0,"""event"",""trial"",""time""
""fullscreenenter"",""1"",""10304""
","
","
","""event"",""trial"",""time""
""fullscreenenter"",""1"",""10304""
","
",,null,run_exp/static/images/task_images/aliens/old_aliens/planet/alien_planet-57.jpg,null,,,,,,,,,,,,,57,"36,44,57,27,18,52,42,16,50,54,31,37,74,76,40,55,19,51,22,56,10,71,77,3,49,20,79,45,53,12,69,8,39,11,33,72,26,14,70",,,,,,,,,,
land,100,450276,0.0-36.0-2.0,"""event"",""trial"",""time""
""fullscreenenter"",""1"",""10304""
","
","
","""event"",""trial"",""time""
""fullscreenenter"",""1"",""10304""
","
",,null,run_exp/static/images/task_images/land.jpg,null,,,,,,,100,,,3,,,,,,,,,,,,,,
dig,101,452287,0.0-36.0-3.0,"""event"",""trial"",""time""
""fullscreenenter"",""1"",""10304""
","
","
","""event"",""trial"",""time""
""fullscreenenter"",""1"",""10304""
","
",,,,,,,,,,,,"[{""stimulus"":""run_exp/static/images/task_images/dig.jpg"",""time"":0.6000001430511475},{""stimulus"":""run_exp/static/images/task_images/land.jpg"",""time"":683.2000000476837},{""stimulus"":""run_exp/static/images/task_images/dig.jpg"",""time"":1336.8000001907349}]",[],3,,,,,,,,,,,,,,
harvest,102,453299,0.0-36.0-4.0,"""event"",""trial"",""time""
""fullscreenenter"",""1"",""10304""
","
","
","""event"",""trial"",""time""
""fullscreenenter"",""1"",""10304""
","
",,null,run_exp/static/images/task_images/gems/100.jpg,null,,,,,,,45,,,3,,,,,100,0.446620054,0.45,,,,,,,
decision,103,453761,0.0-36.0-5.0,"""event"",""trial"",""time""
""fullscreenenter"",""1"",""10304""
","
","
","""event"",""trial"",""time""
""fullscreenenter"",""1"",""10304""
","
",,459,run_exp/static/images/task_images/land.jpg,65,,,,,,,45,,,3,,,,,,,,66230,1,0,FALSE,,,
dig,104,456316,0.0-37.0-0.0,"""event"",""trial"",""time""
""fullscreenenter"",""1"",""10304""
","
","
","""event"",""trial"",""time""
""fullscreenenter"",""1"",""10304""
","
",,,,,,,,,,,,"[{""stimulus"":""run_exp/static/images/task_images/dig.jpg"",""time"":0.20000004768371582},{""stimulus"":""run_exp/static/images/task_images/land.jpg"",""time"":856.7000000476837},{""stimulus"":""run_exp/static/images/task_images/dig.jpg"",""time"":1697.2000000476837}]",[],3,,,,,,,,,,,,,,
harvest,105,457330,0.0-37.0-1.0,"""event"",""trial"",""time""
""fullscreenenter"",""1"",""10304""
","
","
","""event"",""trial"",""time""
""fullscreenenter"",""1"",""10304""
","
",,null,run_exp/static/images/task_images/gems/45.jpg,null,,,,,,,22,,,3,,,,,45,0.498177365,0.488888889,,,,,,,
decision,106,457455,0.0-37.0-2.0,"""event"",""trial"",""time""
""fullscreenenter"",""1"",""10304""
","
","
","""event"",""trial"",""time""
""fullscreenenter"",""1"",""10304""
","
",,122.5999999,run_exp/static/images/task_images/land.jpg,65,,,,,,,22,,,3,,,,,,,,69924,1,1,FALSE,,,
dig,107,460340,0.0-38.0-0.0,"""event"",""trial"",""time""
""fullscreenenter"",""1"",""10304""
","
","
","""event"",""trial"",""time""
""fullscreenenter"",""1"",""10304""
","
",,,,,,,,,,,,"[{""stimulus"":""run_exp/static/images/task_images/dig.jpg"",""time"":0.20000004768371582},{""stimulus"":""run_exp/static/images/task_images/land.jpg"",""time"":969.2000000476837},{""stimulus"":""run_exp/static/images/task_images/dig.jpg"",""time"":1933.0999999046326}]",[],3,,,,,,,,,,,,,,
harvest,108,461356,0.0-38.0-1.0,"""event"",""trial"",""time""
""fullscreenenter"",""1"",""10304""
","
","
","""event"",""trial"",""time""
""fullscreenenter"",""1"",""10304""
","
",,null,run_exp/static/images/task_images/gems/22.jpg,null,,,,,,,12,,,3,,,,,22,0.532510811,0.545454545,,,,,,,
decision,109,461421,0.0-38.0-2.0,"""event"",""trial"",""time""
""fullscreenenter"",""1"",""10304""
","
","
","""event"",""trial"",""time""
""fullscreenenter"",""1"",""10304""
","
",,63.30000019,run_exp/static/images/task_images/land.jpg,65,,,,,,,12,,,3,,,,,,,,73890,1,2,FALSE,,,
dig,110,464371,0.0-39.0-0.0,"""event"",""trial"",""time""
""fullscreenenter"",""1"",""10304""
","
","
","""event"",""trial"",""time""
""fullscreenenter"",""1"",""10304""
","
",,,,,,,,,,,,"[{""stimulus"":""run_exp/static/images/task_images/dig.jpg"",""time"":0.09999990463256836},{""stimulus"":""run_exp/static/images/task_images/land.jpg"",""time"":990.3999998569489},{""stimulus"":""run_exp/static/images/task_images/dig.jpg"",""time"":1967.7999999523163}]",[],3,,,,,,,,,,,,,,
harvest,111,465386,0.0-39.0-1.0,"""event"",""trial"",""time""
""fullscreenenter"",""1"",""10304""
","
","
","""event"",""trial"",""time""
""fullscreenenter"",""1"",""10304""
","
",,null,run_exp/static/images/task_images/gems/12.jpg,null,,,,,,,5,,,3,,,,,12,0.440830009,0.416666667,,,,,,,
decision,112,466505,0.0-39.0-2.0,"""event"",""trial"",""time""
""fullscreenenter"",""1"",""10304""
","
","
","""event"",""trial"",""time""
""fullscreenenter"",""1"",""10304""
","
",,1117.9,run_exp/static/images/task_images/land.jpg,65,,,,,,,5,,,3,,,,,,,,78974,1,3,FALSE,,,
dig,113,468408,0.0-40.0-0.0,"""event"",""trial"",""time""
""fullscreenenter"",""1"",""10304""
","
","
","""event"",""trial"",""time""
""fullscreenenter"",""1"",""10304""
","
",,,,,,,,,,,,"[{""stimulus"":""run_exp/static/images/task_images/dig.jpg"",""time"":0.39999985694885254},{""stimulus"":""run_exp/static/images/task_images/land.jpg"",""time"":639.5},{""stimulus"":""run_exp/static/images/task_images/dig.jpg"",""time"":1259.2999999523163}]",[],3,,,,,,,,,,,,,,
harvest,114,469417,0.0-40.0-1.0,"""event"",""trial"",""time""
""fullscreenenter"",""1"",""10304""
","
","
","""event"",""trial"",""time""
""fullscreenenter"",""1"",""10304""
","
",,null,run_exp/static/images/task_images/gems/5.jpg,null,,,,,,,3,,,3,,,,,5,0.546743533,0.6,,,,,,,
decision,115,469629,0.0-40.0-2.0,"""event"",""trial"",""time""
""fullscreenenter"",""1"",""10304""
","
","
","""event"",""trial"",""time""
""fullscreenenter"",""1"",""10304""
","
",,209.2,run_exp/static/images/task_images/land.jpg,76,,,,,,,3,,,3,,,,,,,,82098,1,4,TRUE,,,
travel,116,479427,0.0-41.0-0.0,"""event"",""trial"",""time""
""fullscreenenter"",""1"",""10304""
","
","
","""event"",""trial"",""time""
""fullscreenenter"",""1"",""10304""
","
",,,,,,,,,,,,"[{""stimulus"":""run_exp/static/images/task_images/rocket-01.jpg"",""time"":0.10000014305114746},{""stimulus"":""run_exp/static/images/task_images/rocket-02.jpg"",""time"":1101.2000000476837},{""stimulus"":""run_exp/static/images/task_images/rocket-03.jpg"",""time"":2186.5},{""stimulus"":""run_exp/static/images/task_images/rocket-04.jpg"",""time"":3272.800000190735},{""stimulus"":""run_exp/static/images/task_images/rocket-05.jpg"",""time"":4357.400000095367},{""stimulus"":""run_exp/static/images/task_images/rocket-06.jpg"",""time"":5446.100000143051},{""stimulus"":""run_exp/static/images/task_images/rocket-07.jpg"",""time"":6532.600000143051},{""stimulus"":""run_exp/static/images/task_images/rocket-08.jpg"",""time"":7617.200000047684},{""stimulus"":""run_exp/static/images/task_images/rocket-09.jpg"",""time"":8704.400000095367}]",[],3,,,,,,,,,,,,,,
alien_welcome,117,484432,0.0-41.0-1.0,"""event"",""trial"",""time""
""fullscreenenter"",""1"",""10304""
","
","
","""event"",""trial"",""time""
""fullscreenenter"",""1"",""10304""
","
",,null,run_exp/static/images/task_images/aliens/old_aliens/planet/alien_planet-27.jpg,null,,,,,,,,,,,,,27,"36,44,57,27,18,52,42,16,50,54,31,37,74,76,40,55,19,51,22,56,10,71,77,3,49,20,79,45,53,12,69,8,39,11,33,72,26,14,70",,,,,,,,,,
land,118,484937,0.0-41.0-2.0,"""event"",""trial"",""time""
""fullscreenenter"",""1"",""10304""
","
","
","""event"",""trial"",""time""
""fullscreenenter"",""1"",""10304""
","
",,null,run_exp/static/images/task_images/land.jpg,null,,,,,,,101,,,4,,,,,,,,,,,,,,
dig,119,486949,0.0-41.0-3.0,"""event"",""trial"",""time""
""fullscreenenter"",""1"",""10304""
","
","
","""event"",""trial"",""time""
""fullscreenenter"",""1"",""10304""
","
",,,,,,,,,,,,"[{""stimulus"":""run_exp/static/images/task_images/dig.jpg"",""time"":0.3000001907348633},{""stimulus"":""run_exp/static/images/task_images/land.jpg"",""time"":676.3000001907349},{""stimulus"":""run_exp/static/images/task_images/dig.jpg"",""time"":1345.5}]",[],4,,,,,,,,,,,,,,
harvest,120,487962,0.0-41.0-4.0,"""event"",""trial"",""time""
""fullscreenenter"",""1"",""10304""
","
","
","""event"",""trial"",""time""
""fullscreenenter"",""1"",""10304""
","
",,null,run_exp/static/images/task_images/gems/101.jpg,null,,,,,,,49,,,4,,,,,101,0.483467527,0.485148515,,,,,,,
decision,121,488550,0.0-41.0-5.0,"""event"",""trial"",""time""
""fullscreenenter"",""1"",""10304""
","
","
","""event"",""trial"",""time""
""fullscreenenter"",""1"",""10304""
","
",,585.2,run_exp/static/images/task_images/land.jpg,65,,,,,,,49,,,4,,,,,,,,101019,1,0,FALSE,,,
dig,122,490965,0.0-42.0-0.0,"""event"",""trial"",""time""
""fullscreenenter"",""1"",""10304""
","
","
","""event"",""trial"",""time""
""fullscreenenter"",""1"",""10304""
","
",,,,,,,,,,,,"[{""stimulus"":""run_exp/static/images/task_images/dig.jpg"",""time"":0.10000014305114746},{""stimulus"":""run_exp/static/images/task_images/land.jpg"",""time"":812.6000001430511},{""stimulus"":""run_exp/static/images/task_images/dig.jpg"",""time"":1621.7000000476837}]",[],4,,,,,,,,,,,,,,
harvest,123,491979,0.0-42.0-1.0,"""event"",""trial"",""time""
""fullscreenenter"",""1"",""10304""
","
","
","""event"",""trial"",""time""
""fullscreenenter"",""1"",""10304""
","
",,null,run_exp/static/images/task_images/gems/49.jpg,null,,,,,,,25,,,4,,,,,49,0.51615968,0.510204082,,,,,,,
decision,124,492488,0.0-42.0-2.0,"""event"",""trial"",""time""
""fullscreenenter"",""1"",""10304""
","
","
","""event"",""trial"",""time""
""fullscreenenter"",""1"",""10304""
","
",,506.9000001,run_exp/static/images/task_images/land.jpg,65,,,,,,,25,,,4,,,,,,,,104957,1,1,FALSE,,,
dig,125,494994,0.0-43.0-0.0,"""event"",""trial"",""time""
""fullscreenenter"",""1"",""10304""
","
","
","""event"",""trial"",""time""
""fullscreenenter"",""1"",""10304""
","
",,,,,,,,,,,,"[{""stimulus"":""run_exp/static/images/task_images/dig.jpg"",""time"":0.20000004768371582},{""stimulus"":""run_exp/static/images/task_images/land.jpg"",""time"":844},{""stimulus"":""run_exp/static/images/task_images/dig.jpg"",""time"":1669}]",[],4,,,,,,,,,,,,,,
harvest,126,496010,0.0-43.0-1.0,"""event"",""trial"",""time""
""fullscreenenter"",""1"",""10304""
","
","
","""event"",""trial"",""time""
""fullscreenenter"",""1"",""10304""
","
",,null,run_exp/static/images/task_images/gems/25.jpg,null,,,,,,,13,,,4,,,,,25,0.523582192,0.52,,,,,,,
decision,127,496036,0.0-43.0-2.0,"""event"",""trial"",""time""
""fullscreenenter"",""1"",""10304""
","
","
","""event"",""trial"",""time""
""fullscreenenter"",""1"",""10304""
","
",,26.29999995,run_exp/static/images/task_images/land.jpg,65,,,,,,,13,,,4,,,,,,,,108505,1,2,FALSE,,,
dig,128,499021,0.0-44.0-0.0,"""event"",""trial"",""time""
""fullscreenenter"",""1"",""10304""
","
","
","""event"",""trial"",""time""
""fullscreenenter"",""1"",""10304""
","
",,,,,,,,,,,,"[{""stimulus"":""run_exp/static/images/task_images/dig.jpg"",""time"":0.09999990463256836},{""stimulus"":""run_exp/static/images/task_images/land.jpg"",""time"":1006.0999999046326},{""stimulus"":""run_exp/static/images/task_images/dig.jpg"",""time"":1986.2000000476837}]",[],4,,,,,,,,,,,,,,
harvest,129,500032,0.0-44.0-1.0,"""event"",""trial"",""time""
""fullscreenenter"",""1"",""10304""
","
","
","""event"",""trial"",""time""
""fullscreenenter"",""1"",""10304""
","
",,null,run_exp/static/images/task_images/gems/13.jpg,null,,,,,,,6,,,4,,,,,13,0.486242115,0.461538462,,,,,,,
decision,130,500093,0.0-44.0-2.0,"""event"",""trial"",""time""
""fullscreenenter"",""1"",""10304""
","
","
","""event"",""trial"",""time""
""fullscreenenter"",""1"",""10304""
","
",,58.9000001,run_exp/static/images/task_images/land.jpg,65,,,,,,,6,,,4,,,,,,,,112562,1,3,FALSE,,,
dig,131,503047,0.0-45.0-0.0,"""event"",""trial"",""time""
""fullscreenenter"",""1"",""10304""
","
","
","""event"",""trial"",""time""
""fullscreenenter"",""1"",""10304""
","
",,,,,,,,,,,,"[{""stimulus"":""run_exp/static/images/task_images/dig.jpg"",""time"":0.20000004768371582},{""stimulus"":""run_exp/static/images/task_images/land.jpg"",""time"":984.2000000476837},{""stimulus"":""run_exp/static/images/task_images/dig.jpg"",""time"":1961.9000000953674}]",[],4,,,,,,,,,,,,,,
harvest,132,504052,0.0-45.0-1.0,"""event"",""trial"",""time""
""fullscreenenter"",""1"",""10304""
","
","
","""event"",""trial"",""time""
""fullscreenenter"",""1"",""10304""
","
",,null,run_exp/static/images/task_images/gems/6.jpg,null,,,,,,,3,,,4,,,,,6,0.558367095,0.5,,,,,,,
decision,133,504133,0.0-45.0-2.0,"""event"",""trial"",""time""
""fullscreenenter"",""1"",""10304""
","
","
","""event"",""trial"",""time""
""fullscreenenter"",""1"",""10304""
","
",,79.29999995,run_exp/static/images/task_images/land.jpg,76,,,,,,,3,,,4,,,,,,,,116602,1,4,TRUE,,,
travel,134,514068,0.0-46.0-0.0,"""event"",""trial"",""time""
""fullscreenenter"",""1"",""10304""
","
","
","""event"",""trial"",""time""
""fullscreenenter"",""1"",""10304""
","
",,,,,,,,,,,,"[{""stimulus"":""run_exp/static/images/task_images/rocket-01.jpg"",""time"":0.20000004768371582},{""stimulus"":""run_exp/static/images/task_images/rocket-02.jpg"",""time"":1114.5999999046326},{""stimulus"":""run_exp/static/images/task_images/rocket-03.jpg"",""time"":2207.7999999523163},{""stimulus"":""run_exp/static/images/task_images/rocket-04.jpg"",""time"":3313.5999999046326},{""stimulus"":""run_exp/static/images/task_images/rocket-05.jpg"",""time"":4419.900000095367},{""stimulus"":""run_exp/static/images/task_images/rocket-06.jpg"",""time"":5512.200000047684},{""stimulus"":""run_exp/static/images/task_images/rocket-07.jpg"",""time"":6618.599999904633},{""stimulus"":""run_exp/static/images/task_images/rocket-08.jpg"",""time"":7721.200000047684},{""stimulus"":""run_exp/static/images/task_images/rocket-09.jpg"",""time"":8829.299999952316}]",[],4,,,,,,,,,,,,,,
alien_welcome,135,519086,0.0-46.0-1.0,"""event"",""trial"",""time""
""fullscreenenter"",""1"",""10304""
","
","
","""event"",""trial"",""time""
""fullscreenenter"",""1"",""10304""
","
",,null,run_exp/static/images/task_images/aliens/old_aliens/planet/alien_planet-18.jpg,null,,,,,,,,,,,,,18,"36,44,57,27,18,52,42,16,50,54,31,37,74,76,40,55,19,51,22,56,10,71,77,3,49,20,79,45,53,12,69,8,39,11,33,72,26,14,70",,,,,,,,,,
land,136,519600,0.0-46.0-2.0,"""event"",""trial"",""time""
""fullscreenenter"",""1"",""10304""
","
","
","""event"",""trial"",""time""
""fullscreenenter"",""1"",""10304""
","
",,null,run_exp/static/images/task_images/land.jpg,null,,,,,,,101,,,5,,,,,,,,,,,,,,
dig,137,521609,0.0-46.0-3.0,"""event"",""trial"",""time""
""fullscreenenter"",""1"",""10304""
","
","
","""event"",""trial"",""time""
""fullscreenenter"",""1"",""10304""
","
",,,,,,,,,,,,"[{""stimulus"":""run_exp/static/images/task_images/dig.jpg"",""time"":0.5},{""stimulus"":""run_exp/static/images/task_images/land.jpg"",""time"":680},{""stimulus"":""run_exp/static/images/task_images/dig.jpg"",""time"":1346.2000000476837}]",[],5,,,,,,,,,,,,,,
harvest,138,522625,0.0-46.0-4.0,"""event"",""trial"",""time""
""fullscreenenter"",""1"",""10304""
","
","
","""event"",""trial"",""time""
""fullscreenenter"",""1"",""10304""
","
",,null,run_exp/static/images/task_images/gems/101.jpg,null,,,,,,,52,,,5,,,,,101,0.517543499,0.514851485,,,,,,,
decision,139,522832,0.0-46.0-5.0,"""event"",""trial"",""time""
""fullscreenenter"",""1"",""10304""
","
","
","""event"",""trial"",""time""
""fullscreenenter"",""1"",""10304""
","
",,204.2,run_exp/static/images/task_images/land.jpg,65,,,,,,,52,,,5,,,,,,,,135301,1,0,FALSE,,,
dig,140,525644,0.0-47.0-0.0,"""event"",""trial"",""time""
""fullscreenenter"",""1"",""10304""
","
","
","""event"",""trial"",""time""
""fullscreenenter"",""1"",""10304""
","
",,,,,,,,,,,,"[{""stimulus"":""run_exp/static/images/task_images/dig.jpg"",""time"":0.20000004768371582},{""stimulus"":""run_exp/static/images/task_images/land.jpg"",""time"":945.2000000476837},{""stimulus"":""run_exp/static/images/task_images/dig.jpg"",""time"":1877.4000000953674}]",[],5,,,,,,,,,,,,,,
harvest,141,526660,0.0-47.0-1.0,"""event"",""trial"",""time""
""fullscreenenter"",""1"",""10304""
","
","
","""event"",""trial"",""time""
""fullscreenenter"",""1"",""10304""
","
",,null,run_exp/static/images/task_images/gems/52.jpg,null,,,,,,,28,,,5,,,,,52,0.546010873,0.538461538,,,,,,,
decision,142,526853,0.0-47.0-2.0,"""event"",""trial"",""time""
""fullscreenenter"",""1"",""10304""
","
","
","""event"",""trial"",""time""
""fullscreenenter"",""1"",""10304""
","
",,190.6000001,run_exp/static/images/task_images/land.jpg,65,,,,,,,28,,,5,,,,,,,,139322,1,1,FALSE,,,
dig,143,529671,0.0-48.0-0.0,"""event"",""trial"",""time""
""fullscreenenter"",""1"",""10304""
","
","
","""event"",""trial"",""time""
""fullscreenenter"",""1"",""10304""
","
",,,,,,,,,,,,"[{""stimulus"":""run_exp/static/images/task_images/dig.jpg"",""time"":0.19999980926513672},{""stimulus"":""run_exp/static/images/task_images/land.jpg"",""time"":938.1999998092651},{""stimulus"":""run_exp/static/images/task_images/dig.jpg"",""time"":1884.0999999046326}]",[],5,,,,,,,,,,,,,,
harvest,144,530684,0.0-48.0-1.0,"""event"",""trial"",""time""
""fullscreenenter"",""1"",""10304""
","
","
","""event"",""trial"",""time""
""fullscreenenter"",""1"",""10304""
","
",,null,run_exp/static/images/task_images/gems/28.jpg,null,,,,,,,14,,,5,,,,,28,0.495704245,0.5,,,,,,,
decision,145,531048,0.0-48.0-2.0,"""event"",""trial"",""time""
""fullscreenenter"",""1"",""10304""
","
","
","""event"",""trial"",""time""
""fullscreenenter"",""1"",""10304""
","
",,361.9000001,run_exp/static/images/task_images/land.jpg,76,,,,,,,14,,,5,,,,,,,,143517,1,2,TRUE,,,
travel,146,540693,0.0-49.0-0.0,"""event"",""trial"",""time""
""fullscreenenter"",""1"",""10304""
","
","
","""event"",""trial"",""time""
""fullscreenenter"",""1"",""10304""
","
",,,,,,,,,,,,"[{""stimulus"":""run_exp/static/images/task_images/rocket-01.jpg"",""time"":0.20000004768371582},{""stimulus"":""run_exp/static/images/task_images/rocket-02.jpg"",""time"":1085.8999998569489},{""stimulus"":""run_exp/static/images/task_images/rocket-03.jpg"",""time"":2146.0999999046326},{""stimulus"":""run_exp/static/images/task_images/rocket-04.jpg"",""time"":3217.5},{""stimulus"":""run_exp/static/images/task_images/rocket-05.jpg"",""time"":4293.399999856949},{""stimulus"":""run_exp/static/images/task_images/rocket-06.jpg"",""time"":5354.200000047684},{""stimulus"":""run_exp/static/images/task_images/rocket-07.jpg"",""time"":6429.899999856949},{""stimulus"":""run_exp/static/images/task_images/rocket-08.jpg"",""time"":7499.399999856949},{""stimulus"":""run_exp/static/images/task_images/rocket-09.jpg"",""time"":8573}]",[],5,,,,,,,,,,,,,,
alien_welcome,147,545698,0.0-49.0-1.0,"""event"",""trial"",""time""
""fullscreenenter"",""1"",""10304""
","
","
","""event"",""trial"",""time""
""fullscreenenter"",""1"",""10304""
","
",,null,run_exp/static/images/task_images/aliens/old_aliens/planet/alien_planet-52.jpg,null,,,,,,,,,,,,,52,"36,44,57,27,18,52,42,16,50,54,31,37,74,76,40,55,19,51,22,56,10,71,77,3,49,20,79,45,53,12,69,8,39,11,33,72,26,14,70",,,,,,,,,,
land,148,546210,0.0-49.0-2.0,"""event"",""trial"",""time""
""fullscreenenter"",""1"",""10304""
","
","
","""event"",""trial"",""time""
""fullscreenenter"",""1"",""10304""
","
",,null,run_exp/static/images/task_images/land.jpg,null,,,,,,,100,,,6,,,,,,,,,,,,,,
dig,149,548220,0.0-49.0-3.0,"""event"",""trial"",""time""
""fullscreenenter"",""1"",""10304""
","
","
","""event"",""trial"",""time""
""fullscreenenter"",""1"",""10304""
","
",,,,,,,,,,,,"[{""stimulus"":""run_exp/static/images/task_images/dig.jpg"",""time"":0.5},{""stimulus"":""run_exp/static/images/task_images/land.jpg"",""time"":683.5},{""stimulus"":""run_exp/static/images/task_images/dig.jpg"",""time"":1338.1999998092651}]",[],6,,,,,,,,,,,,,,
harvest,150,549229,0.0-49.0-4.0,"""event"",""trial"",""time""
""fullscreenenter"",""1"",""10304""
","
","
","""event"",""trial"",""time""
""fullscreenenter"",""1"",""10304""
","
",,null,run_exp/static/images/task_images/gems/100.jpg,null,,,,,,,76,,,6,,,,,100,0.763308231,0.76,,,,,,,
decision,151,549338,0.0-49.0-5.0,"""event"",""trial"",""time""
""fullscreenenter"",""1"",""10304""
","
","
","""event"",""trial"",""time""
""fullscreenenter"",""1"",""10304""
","
",,106.3,run_exp/static/images/task_images/land.jpg,65,,,,,,,76,,,6,,,,,,,,161807,1,0,FALSE,,,
dig,152,552238,0.0-50.0-0.0,"""event"",""trial"",""time""
""fullscreenenter"",""1"",""10304""
","
","
","""event"",""trial"",""time""
""fullscreenenter"",""1"",""10304""
","
",,,,,,,,,,,,"[{""stimulus"":""run_exp/static/images/task_images/dig.jpg"",""time"":0.20000004768371582},{""stimulus"":""run_exp/static/images/task_images/land.jpg"",""time"":972.2000000476837},{""stimulus"":""run_exp/static/images/task_images/dig.jpg"",""time"":1935.2000000476837}]",[],6,,,,,,,,,,,,,,
harvest,153,553254,0.0-50.0-1.0,"""event"",""trial"",""time""
""fullscreenenter"",""1"",""10304""
","
","
","""event"",""trial"",""time""
""fullscreenenter"",""1"",""10304""
","
",,null,run_exp/static/images/task_images/gems/76.jpg,null,,,,,,,60,,,6,,,,,76,0.794652736,0.789473684,,,,,,,
decision,154,553291,0.0-50.0-2.0,"""event"",""trial"",""time""
""fullscreenenter"",""1"",""10304""
","
","
","""event"",""trial"",""time""
""fullscreenenter"",""1"",""10304""
","
",,35.39999986,run_exp/static/images/task_images/land.jpg,65,,,,,,,60,,,6,,,,,,,,165760,1,1,FALSE,,,
dig,155,556263,0.0-51.0-0.0,"""event"",""trial"",""time""
""fullscreenenter"",""1"",""10304""
","
","
","""event"",""trial"",""time""
""fullscreenenter"",""1"",""10304""
","
",,,,,,,,,,,,"[{""stimulus"":""run_exp/static/images/task_images/dig.jpg"",""time"":0.2999999523162842},{""stimulus"":""run_exp/static/images/task_images/land.jpg"",""time"":996.5999999046326},{""stimulus"":""run_exp/static/images/task_images/dig.jpg"",""time"":1981.2999999523163}]",[],6,,,,,,,,,,,,,,
harvest,156,557278,0.0-51.0-1.0,"""event"",""trial"",""time""
""fullscreenenter"",""1"",""10304""
","
","
","""event"",""trial"",""time""
""fullscreenenter"",""1"",""10304""
","
",,null,run_exp/static/images/task_images/gems/60.jpg,null,,,,,,,50,,,6,,,,,60,0.832214237,0.833333333,,,,,,,
decision,157,558751,0.0-51.0-2.0,"""event"",""trial"",""time""
""fullscreenenter"",""1"",""10304""
","
","
","""event"",""trial"",""time""
""fullscreenenter"",""1"",""10304""
","
",,1470.6,run_exp/static/images/task_images/land.jpg,65,,,,,,,50,,,6,,,,,,,,171220,1,2,FALSE,,,
dig,158,560298,0.0-52.0-0.0,"""event"",""trial"",""time""
""fullscreenenter"",""1"",""10304""
","
","
","""event"",""trial"",""time""
""fullscreenenter"",""1"",""10304""
","
",,,,,,,,,,,,"[{""stimulus"":""run_exp/static/images/task_images/dig.jpg"",""time"":0.2999999523162842},{""stimulus"":""run_exp/static/images/task_images/land.jpg"",""time"":521},{""stimulus"":""run_exp/static/images/task_images/dig.jpg"",""time"":1030.3999998569489}]",[],6,,,,,,,,,,,,,,
harvest,159,561313,0.0-52.0-1.0,"""event"",""trial"",""time""
""fullscreenenter"",""1"",""10304""
","
","
","""event"",""trial"",""time""
""fullscreenenter"",""1"",""10304""
","
",,null,run_exp/static/images/task_images/gems/50.jpg,null,,,,,,,37,,,6,,,,,50,0.744332183,0.74,,,,,,,
decision,160,561366,0.0-52.0-2.0,"""event"",""trial"",""time""
""fullscreenenter"",""1"",""10304""
","
","
","""event"",""trial"",""time""
""fullscreenenter"",""1"",""10304""
","
",,50.60000014,run_exp/static/images/task_images/land.jpg,65,,,,,,,37,,,6,,,,,,,,173835,1,3,FALSE,,,
dig,161,564332,0.0-53.0-0.0,"""event"",""trial"",""time""
""fullscreenenter"",""1"",""10304""
","
","
","""event"",""trial"",""time""
""fullscreenenter"",""1"",""10304""
","
",,,,,,,,,,,,"[{""stimulus"":""run_exp/static/images/task_images/dig.jpg"",""time"":0.2999999523162842},{""stimulus"":""run_exp/static/images/task_images/land.jpg"",""time"":1000.6000001430511},{""stimulus"":""run_exp/static/images/task_images/dig.jpg"",""time"":1981.7000000476837}]",[],6,,,,,,,,,,,,,,
harvest,162,565346,0.0-53.0-1.0,"""event"",""trial"",""time""
""fullscreenenter"",""1"",""10304""
","
","
","""event"",""trial"",""time""
""fullscreenenter"",""1"",""10304""
","
",,null,run_exp/static/images/task_images/gems/37.jpg,null,,,,,,,27,,,6,,,,,37,0.743085177,0.72972973,,,,,,,
decision,163,565462,0.0-53.0-2.0,"""event"",""trial"",""time""
""fullscreenenter"",""1"",""10304""
","
","
","""event"",""trial"",""time""
""fullscreenenter"",""1"",""10304""
","
",,113.9000001,run_exp/static/images/task_images/land.jpg,65,,,,,,,27,,,6,,,,,,,,177931,1,4,FALSE,,,
dig,164,568366,0.0-54.0-0.0,"""event"",""trial"",""time""
""fullscreenenter"",""1"",""10304""
","
","
","""event"",""trial"",""time""
""fullscreenenter"",""1"",""10304""
","
",,,,,,,,,,,,"[{""stimulus"":""run_exp/static/images/task_images/dig.jpg"",""time"":0.20000004768371582},{""stimulus"":""run_exp/static/images/task_images/land.jpg"",""time"":971.5},{""stimulus"":""run_exp/static/images/task_images/dig.jpg"",""time"":1938.4000000953674}]",[],6,,,,,,,,,,,,,,
harvest,165,569379,0.0-54.0-1.0,"""event"",""trial"",""time""
""fullscreenenter"",""1"",""10304""
","
","
","""event"",""trial"",""time""
""fullscreenenter"",""1"",""10304""
","
",,null,run_exp/static/images/task_images/gems/27.jpg,null,,,,,,,21,,,6,,,,,27,0.766047204,0.777777778,,,,,,,
decision,166,569479,0.0-54.0-2.0,"""event"",""trial"",""time""
""fullscreenenter"",""1"",""10304""
","
","
","""event"",""trial"",""time""
""fullscreenenter"",""1"",""10304""
","
",,97.79999995,run_exp/static/images/task_images/land.jpg,65,,,,,,,21,,,6,,,,,,,,181948,1,5,FALSE,,,
dig,167,572398,0.0-55.0-0.0,"""event"",""trial"",""time""
""fullscreenenter"",""1"",""10304""
","
","
","""event"",""trial"",""time""
""fullscreenenter"",""1"",""10304""
","
",,,,,,,,,,,,"[{""stimulus"":""run_exp/static/images/task_images/dig.jpg"",""time"":0.20000004768371582},{""stimulus"":""run_exp/static/images/task_images/land.jpg"",""time"":972},{""stimulus"":""run_exp/static/images/task_images/dig.jpg"",""time"":1949.6000001430511}]",[],6,,,,,,,,,,,,,,
harvest,168,573410,0.0-55.0-1.0,"""event"",""trial"",""time""
""fullscreenenter"",""1"",""10304""
","
","
","""event"",""trial"",""time""
""fullscreenenter"",""1"",""10304""
","
",,null,run_exp/static/images/task_images/gems/21.jpg,null,,,,,,,18,,,6,,,,,21,0.861893995,0.857142857,,,,,,,
decision,169,575101,0.0-55.0-2.0,"""event"",""trial"",""time""
""fullscreenenter"",""1"",""10304""
","
","
","""event"",""trial"",""time""
""fullscreenenter"",""1"",""10304""
","
",,1687.9,run_exp/static/images/task_images/land.jpg,65,,,,,,,18,,,6,,,,,,,,187570,1,6,FALSE,,,
dig,170,576430,0.0-56.0-0.0,"""event"",""trial"",""time""
""fullscreenenter"",""1"",""10304""
","
","
","""event"",""trial"",""time""
""fullscreenenter"",""1"",""10304""
","
",,,,,,,,,,,,"[{""stimulus"":""run_exp/static/images/task_images/dig.jpg"",""time"":0.2999999523162842},{""stimulus"":""run_exp/static/images/task_images/land.jpg"",""time"":452.09999990463257},{""stimulus"":""run_exp/static/images/task_images/dig.jpg"",""time"":888.8999998569489}]",[],6,,,,,,,,,,,,,,
harvest,171,577441,0.0-56.0-1.0,"""event"",""trial"",""time""
""fullscreenenter"",""1"",""10304""
","
","
","""event"",""trial"",""time""
""fullscreenenter"",""1"",""10304""
","
",,null,run_exp/static/images/task_images/gems/18.jpg,null,,,,,,,14,,,6,,,,,18,0.755281217,0.777777778,,,,,,,
decision,172,577657,0.0-56.0-2.0,"""event"",""trial"",""time""
""fullscreenenter"",""1"",""10304""
","
","
","""event"",""trial"",""time""
""fullscreenenter"",""1"",""10304""
","
",,213.3999999,run_exp/static/images/task_images/land.jpg,65,,,,,,,14,,,6,,,,,,,,190126,1,7,FALSE,,,
dig,173,580461,0.0-57.0-0.0,"""event"",""trial"",""time""
""fullscreenenter"",""1"",""10304""
","
","
","""event"",""trial"",""time""
""fullscreenenter"",""1"",""10304""
","
",,,,,,,,,,,,"[{""stimulus"":""run_exp/static/images/task_images/dig.jpg"",""time"":0.20000004768371582},{""stimulus"":""run_exp/static/images/task_images/land.jpg"",""time"":933.7999999523163},{""stimulus"":""run_exp/static/images/task_images/dig.jpg"",""time"":1864.2000000476837}]",[],6,,,,,,,,,,,,,,
harvest,174,581476,0.0-57.0-1.0,"""event"",""trial"",""time""
""fullscreenenter"",""1"",""10304""
","
","
","""event"",""trial"",""time""
""fullscreenenter"",""1"",""10304""
","
",,null,run_exp/static/images/task_images/gems/14.jpg,null,,,,,,,11,,,6,,,,,14,0.808564654,0.785714286,,,,,,,
decision,175,581600,0.0-57.0-2.0,"""event"",""trial"",""time""
""fullscreenenter"",""1"",""10304""
","
","
","""event"",""trial"",""time""
""fullscreenenter"",""1"",""10304""
","
",,122,run_exp/static/images/task_images/land.jpg,65,,,,,,,11,,,6,,,,,,,,194069,1,8,FALSE,,,
dig,176,584491,0.0-58.0-0.0,"""event"",""trial"",""time""
""fullscreenenter"",""1"",""10304""
","
","
","""event"",""trial"",""time""
""fullscreenenter"",""1"",""10304""
","
",,,,,,,,,,,,"[{""stimulus"":""run_exp/static/images/task_images/dig.jpg"",""time"":0.20000004768371582},{""stimulus"":""run_exp/static/images/task_images/land.jpg"",""time"":965.4000000953674},{""stimulus"":""run_exp/static/images/task_images/dig.jpg"",""time"":1927.2000000476837}]",[],6,,,,,,,,,,,,,,
harvest,177,585504,0.0-58.0-1.0,"""event"",""trial"",""time""
""fullscreenenter"",""1"",""10304""
","
","
","""event"",""trial"",""time""
""fullscreenenter"",""1"",""10304""
","
",,null,run_exp/static/images/task_images/gems/11.jpg,null,,,,,,,8,,,6,,,,,11,0.764667679,0.727272727,,,,,,,
decision,178,585662,0.0-58.0-2.0,"""event"",""trial"",""time""
""fullscreenenter"",""1"",""10304""
","
","
","""event"",""trial"",""time""
""fullscreenenter"",""1"",""10304""
","
",,155.5,run_exp/static/images/task_images/land.jpg,76,,,,,,,8,,,6,,,,,,,,198131,1,9,TRUE,,,
travel,179,595516,0.0-59.0-0.0,"""event"",""trial"",""time""
""fullscreenenter"",""1"",""10304""
","
","
","""event"",""trial"",""time""
""fullscreenenter"",""1"",""10304""
","
",,,,,,,,,,,,"[{""stimulus"":""run_exp/static/images/task_images/rocket-01.jpg"",""time"":0.09999990463256836},{""stimulus"":""run_exp/static/images/task_images/rocket-02.jpg"",""time"":1097.7999999523163},{""stimulus"":""run_exp/static/images/task_images/rocket-03.jpg"",""time"":2189.399999856949},{""stimulus"":""run_exp/static/images/task_images/rocket-04.jpg"",""time"":3291.2999999523163},{""stimulus"":""run_exp/static/images/task_images/rocket-05.jpg"",""time"":4383.5},{""stimulus"":""run_exp/static/images/task_images/rocket-06.jpg"",""time"":5474.299999952316},{""stimulus"":""run_exp/static/images/task_images/rocket-07.jpg"",""time"":6564.199999809265},{""stimulus"":""run_exp/static/images/task_images/rocket-08.jpg"",""time"":7655.799999952316},{""stimulus"":""run_exp/static/images/task_images/rocket-09.jpg"",""time"":8759.5}]",[],6,,,,,,,,,,,,,,
alien_welcome,180,600525,0.0-59.0-1.0,"""event"",""trial"",""time""
""fullscreenenter"",""1"",""10304""
","
","
","""event"",""trial"",""time""
""fullscreenenter"",""1"",""10304""
","
",,null,run_exp/static/images/task_images/aliens/old_aliens/planet/alien_planet-42.jpg,null,,,,,,,,,,,,,42,"36,44,57,27,18,52,42,16,50,54,31,37,74,76,40,55,19,51,22,56,10,71,77,3,49,20,79,45,53,12,69,8,39,11,33,72,26,14,70",,,,,,,,,,
land,181,601041,0.0-59.0-2.0,"""event"",""trial"",""time""
""fullscreenenter"",""1"",""10304""
","
","
","""event"",""trial"",""time""
""fullscreenenter"",""1"",""10304""
","
",,null,run_exp/static/images/task_images/land.jpg,null,,,,,,,102,,,7,,,,,,,,,,,,,,
dig,182,603048,0.0-59.0-3.0,"""event"",""trial"",""time""
""fullscreenenter"",""1"",""10304""
","
","
","""event"",""trial"",""time""
""fullscreenenter"",""1"",""10304""
","
",,,,,,,,,,,,"[{""stimulus"":""run_exp/static/images/task_images/dig.jpg"",""time"":0.40000009536743164},{""stimulus"":""run_exp/static/images/task_images/land.jpg"",""time"":682.6000001430511},{""stimulus"":""run_exp/static/images/task_images/dig.jpg"",""time"":1351.3000001907349}]",[],7,,,,,,,,,,,,,,
harvest,183,604062,0.0-59.0-4.0,"""event"",""trial"",""time""
""fullscreenenter"",""1"",""10304""
","
","
","""event"",""trial"",""time""
""fullscreenenter"",""1"",""10304""
","
",,null,run_exp/static/images/task_images/gems/102.jpg,null,,,,,,,86,,,7,,,,,102,0.843615787,0.843137255,,,,,,,
decision,184,604188,0.0-59.0-5.0,"""event"",""trial"",""time""
""fullscreenenter"",""1"",""10304""
","
","
","""event"",""trial"",""time""
""fullscreenenter"",""1"",""10304""
","
",,123.6000001,run_exp/static/images/task_images/land.jpg,65,,,,,,,86,,,7,,,,,,,,216658,1,0,FALSE,,,
dig,185,607079,0.0-60.0-0.0,"""event"",""trial"",""time""
""fullscreenenter"",""1"",""10304""
","
","
","""event"",""trial"",""time""
""fullscreenenter"",""1"",""10304""
","
",,,,,,,,,,,,"[{""stimulus"":""run_exp/static/images/task_images/dig.jpg"",""time"":0.2999999523162842},{""stimulus"":""run_exp/static/images/task_images/land.jpg"",""time"":962},{""stimulus"":""run_exp/static/images/task_images/dig.jpg"",""time"":1922.9000000953674}]",[],7,,,,,,,,,,,,,,
harvest,186,608094,0.0-60.0-1.0,"""event"",""trial"",""time""
""fullscreenenter"",""1"",""10304""
","
","
","""event"",""trial"",""time""
""fullscreenenter"",""1"",""10304""
","
",,null,run_exp/static/images/task_images/gems/86.jpg,null,,,,,,,66,,,7,,,,,86,0.772653076,0.76744186,,,,,,,
decision,187,608283,0.0-60.0-2.0,"""event"",""trial"",""time""
""fullscreenenter"",""1"",""10304""
","
","
","""event"",""trial"",""time""
""fullscreenenter"",""1"",""10304""
","
",,187.4000001,run_exp/static/images/task_images/land.jpg,65,,,,,,,66,,,7,,,,,,,,220752,1,1,FALSE,,,
dig,188,611111,0.0-61.0-0.0,"""event"",""trial"",""time""
""fullscreenenter"",""1"",""10304""
","
","
","""event"",""trial"",""time""
""fullscreenenter"",""1"",""10304""
","
",,,,,,,,,,,,"[{""stimulus"":""run_exp/static/images/task_images/dig.jpg"",""time"":0.09999990463256836},{""stimulus"":""run_exp/static/images/task_images/land.jpg"",""time"":944},{""stimulus"":""run_exp/static/images/task_images/dig.jpg"",""time"":1890.7000000476837}]",[],7,,,,,,,,,,,,,,
harvest,189,612127,0.0-61.0-1.0,"""event"",""trial"",""time""
""fullscreenenter"",""1"",""10304""
","
","
","""event"",""trial"",""time""
""fullscreenenter"",""1"",""10304""
","
",,null,run_exp/static/images/task_images/gems/66.jpg,null,,,,,,,47,,,7,,,,,66,0.717625197,0.712121212,,,,,,,
decision,190,612150,0.0-61.0-2.0,"""event"",""trial"",""time""
""fullscreenenter"",""1"",""10304""
","
","
","""event"",""trial"",""time""
""fullscreenenter"",""1"",""10304""
","
",,21.0999999,run_exp/static/images/task_images/land.jpg,65,,,,,,,47,,,7,,,,,,,,224619,1,2,FALSE,,,
dig,191,615131,0.0-62.0-0.0,"""event"",""trial"",""time""
""fullscreenenter"",""1"",""10304""
","
","
","""event"",""trial"",""time""
""fullscreenenter"",""1"",""10304""
","
",,,,,,,,,,,,"[{""stimulus"":""run_exp/static/images/task_images/dig.jpg"",""time"":0.09999990463256836},{""stimulus"":""run_exp/static/images/task_images/land.jpg"",""time"":1002.8999998569489},{""stimulus"":""run_exp/static/images/task_images/dig.jpg"",""time"":1999.0999999046326}]",[],7,,,,,,,,,,,,,,
harvest,192,616136,0.0-62.0-1.0,"""event"",""trial"",""time""
""fullscreenenter"",""1"",""10304""
","
","
","""event"",""trial"",""time""
""fullscreenenter"",""1"",""10304""
","
",,null,run_exp/static/images/task_images/gems/47.jpg,null,,,,,,,35,,,7,,,,,47,0.740548495,0.744680851,,,,,,,
decision,193,616250,0.0-62.0-2.0,"""event"",""trial"",""time""
""fullscreenenter"",""1"",""10304""
","
","
","""event"",""trial"",""time""
""fullscreenenter"",""1"",""10304""
","
",,112.8,run_exp/static/images/task_images/land.jpg,65,,,,,,,35,,,7,,,,,,,,228719,1,3,FALSE,,,
dig,194,619151,0.0-63.0-0.0,"""event"",""trial"",""time""
""fullscreenenter"",""1"",""10304""
","
","
","""event"",""trial"",""time""
""fullscreenenter"",""1"",""10304""
","
",,,,,,,,,,,,"[{""stimulus"":""run_exp/static/images/task_images/dig.jpg"",""time"":0},{""stimulus"":""run_exp/static/images/task_images/land.jpg"",""time"":974.5999999046326},{""stimulus"":""run_exp/static/images/task_images/dig.jpg"",""time"":1935.8999998569489}]",[],7,,,,,,,,,,,,,,
harvest,195,620165,0.0-63.0-1.0,"""event"",""trial"",""time""
""fullscreenenter"",""1"",""10304""
","
","
","""event"",""trial"",""time""
""fullscreenenter"",""1"",""10304""
","
",,null,run_exp/static/images/task_images/gems/35.jpg,null,,,,,,,26,,,7,,,,,35,0.757005874,0.742857143,,,,,,,
decision,196,620219,0.0-63.0-2.0,"""event"",""trial"",""time""
""fullscreenenter"",""1"",""10304""
","
","
","""event"",""trial"",""time""
""fullscreenenter"",""1"",""10304""
","
",,51.5,run_exp/static/images/task_images/land.jpg,65,,,,,,,26,,,7,,,,,,,,232688,1,4,FALSE,,,
dig,197,623184,0.0-64.0-0.0,"""event"",""trial"",""time""
""fullscreenenter"",""1"",""10304""
","
","
","""event"",""trial"",""time""
""fullscreenenter"",""1"",""10304""
","
",,,,,,,,,,,,"[{""stimulus"":""run_exp/static/images/task_images/dig.jpg"",""time"":0.2999999523162842},{""stimulus"":""run_exp/static/images/task_images/land.jpg"",""time"":998},{""stimulus"":""run_exp/static/images/task_images/dig.jpg"",""time"":1967.3999998569489}]",[],7,,,,,,,,,,,,,,
harvest,198,624199,0.0-64.0-1.0,"""event"",""trial"",""time""
""fullscreenenter"",""1"",""10304""
","
","
","""event"",""trial"",""time""
""fullscreenenter"",""1"",""10304""
","
",,null,run_exp/static/images/task_images/gems/26.jpg,null,,,,,,,23,,,7,,,,,26,0.866768814,0.884615385,,,,,,,
decision,199,624213,0.0-64.0-2.0,"""event"",""trial"",""time""
""fullscreenenter"",""1"",""10304""
","
","
","""event"",""trial"",""time""
""fullscreenenter"",""1"",""10304""
","
",,12.29999995,run_exp/static/images/task_images/land.jpg,65,,,,,,,23,,,7,,,,,,,,236682,1,5,FALSE,,,
dig,200,627211,0.0-65.0-0.0,"""event"",""trial"",""time""
""fullscreenenter"",""1"",""10304""
","
","
","""event"",""trial"",""time""
""fullscreenenter"",""1"",""10304""
","
",,,,,,,,,,,,"[{""stimulus"":""run_exp/static/images/task_images/dig.jpg"",""time"":0.20000004768371582},{""stimulus"":""run_exp/static/images/task_images/land.jpg"",""time"":1011.0999999046326},{""stimulus"":""run_exp/static/images/task_images/dig.jpg"",""time"":1998.3999998569489}]",[],7,,,,,,,,,,,,,,
harvest,201,628217,0.0-65.0-1.0,"""event"",""trial"",""time""
""fullscreenenter"",""1"",""10304""
","
","
","""event"",""trial"",""time""
""fullscreenenter"",""1"",""10304""
","
",,null,run_exp/static/images/task_images/gems/23.jpg,null,,,,,,,18,,,7,,,,,23,0.801986776,0.782608696,,,,,,,
decision,202,628317,0.0-65.0-2.0,"""event"",""trial"",""time""
""fullscreenenter"",""1"",""10304""
","
","
","""event"",""trial"",""time""
""fullscreenenter"",""1"",""10304""
","
",,98.39999986,run_exp/static/images/task_images/land.jpg,65,,,,,,,18,,,7,,,,,,,,240786,1,6,FALSE,,,
dig,203,631232,0.0-66.0-0.0,"""event"",""trial"",""time""
""fullscreenenter"",""1"",""10304""
","
","
","""event"",""trial"",""time""
""fullscreenenter"",""1"",""10304""
","
",,,,,,,,,,,,"[{""stimulus"":""run_exp/static/images/task_images/dig.jpg"",""time"":0.20000004768371582},{""stimulus"":""run_exp/static/images/task_images/land.jpg"",""time"":976.7999999523163},{""stimulus"":""run_exp/static/images/task_images/dig.jpg"",""time"":1944.0999999046326}]",[],7,,,,,,,,,,,,,,
harvest,204,632248,0.0-66.0-1.0,"""event"",""trial"",""time""
""fullscreenenter"",""1"",""10304""
","
","
","""event"",""trial"",""time""
""fullscreenenter"",""1"",""10304""
","
",,null,run_exp/static/images/task_images/gems/18.jpg,null,,,,,,,15,,,7,,,,,18,0.825883607,0.833333333,,,,,,,
decision,205,633506,0.0-66.0-2.0,"""event"",""trial"",""time""
""fullscreenenter"",""1"",""10304""
","
","
","""event"",""trial"",""time""
""fullscreenenter"",""1"",""10304""
","
",,1255,run_exp/static/images/task_images/land.jpg,76,,,,,,,15,,,7,,,,,,,,245975,1,7,TRUE,,,
travel,206,642256,0.0-67.0-0.0,"""event"",""trial"",""time""
""fullscreenenter"",""1"",""10304""
","
","
","""event"",""trial"",""time""
""fullscreenenter"",""1"",""10304""
","
",,,,,,,,,,,,"[{""stimulus"":""run_exp/static/images/task_images/rocket-01.jpg"",""time"":0.20000004768371582},{""stimulus"":""run_exp/static/images/task_images/rocket-02.jpg"",""time"":986.9000000953674},{""stimulus"":""run_exp/static/images/task_images/rocket-03.jpg"",""time"":1950.4000000953674},{""stimulus"":""run_exp/static/images/task_images/rocket-04.jpg"",""time"":2918.600000143051},{""stimulus"":""run_exp/static/images/task_images/rocket-05.jpg"",""time"":3894.7000000476837},{""stimulus"":""run_exp/static/images/task_images/rocket-06.jpg"",""time"":4860.800000190735},{""stimulus"":""run_exp/static/images/task_images/rocket-07.jpg"",""time"":5834.200000047684},{""stimulus"":""run_exp/static/images/task_images/rocket-08.jpg"",""time"":6813.700000047684},{""stimulus"":""run_exp/static/images/task_images/rocket-09.jpg"",""time"":7779.700000047684}]",[],7,,,,,,,,,,,,,,
alien_welcome,207,647263,0.0-67.0-1.0,"""event"",""trial"",""time""
""fullscreenenter"",""1"",""10304""
","
","
","""event"",""trial"",""time""
""fullscreenenter"",""1"",""10304""
","
",,null,run_exp/static/images/task_images/aliens/old_aliens/planet/alien_planet-16.jpg,null,,,,,,,,,,,,,16,"36,44,57,27,18,52,42,16,50,54,31,37,74,76,40,55,19,51,22,56,10,71,77,3,49,20,79,45,53,12,69,8,39,11,33,72,26,14,70",,,,,,,,,,
land,208,647776,0.0-67.0-2.0,"""event"",""trial"",""time""
""fullscreenenter"",""1"",""10304""
","
","
","""event"",""trial"",""time""
""fullscreenenter"",""1"",""10304""
","
",,null,run_exp/static/images/task_images/land.jpg,null,,,,,,,99,,,8,,,,,,,,,,,,,,
dig,209,649789,0.0-67.0-3.0,"""event"",""trial"",""time""
""fullscreenenter"",""1"",""10304""
","
","
","""event"",""trial"",""time""
""fullscreenenter"",""1"",""10304""
","
",,,,,,,,,,,,"[{""stimulus"":""run_exp/static/images/task_images/dig.jpg"",""time"":0.5},{""stimulus"":""run_exp/static/images/task_images/land.jpg"",""time"":683.2000000476837},{""stimulus"":""run_exp/static/images/task_images/dig.jpg"",""time"":1342.4000000953674}]",[],8,,,,,,,,,,,,,,
harvest,210,650803,0.0-67.0-4.0,"""event"",""trial"",""time""
""fullscreenenter"",""1"",""10304""
","
","
","""event"",""trial"",""time""
""fullscreenenter"",""1"",""10304""
","
",,null,run_exp/static/images/task_images/gems/99.jpg,null,,,,,,,83,,,8,,,,,99,0.842182434,0.838383838,,,,,,,
decision,211,650917,0.0-67.0-5.0,"""event"",""trial"",""time""
""fullscreenenter"",""1"",""10304""
","
","
","""event"",""trial"",""time""
""fullscreenenter"",""1"",""10304""
","
",,112.2,run_exp/static/images/task_images/land.jpg,65,,,,,,,83,,,8,,,,,,,,263386,1,0,FALSE,,,
dig,212,653818,0.0-68.0-0.0,"""event"",""trial"",""time""
""fullscreenenter"",""1"",""10304""
","
","
","""event"",""trial"",""time""
""fullscreenenter"",""1"",""10304""
","
",,,,,,,,,,,,"[{""stimulus"":""run_exp/static/images/task_images/dig.jpg"",""time"":0.20000004768371582},{""stimulus"":""run_exp/static/images/task_images/land.jpg"",""time"":970.5999999046326},{""stimulus"":""run_exp/static/images/task_images/dig.jpg"",""time"":1935.7999999523163}]",[],8,,,,,,,,,,,,,,
harvest,213,654830,0.0-68.0-1.0,"""event"",""trial"",""time""
""fullscreenenter"",""1"",""10304""
","
","
","""event"",""trial"",""time""
""fullscreenenter"",""1"",""10304""
","
",,null,run_exp/static/images/task_images/gems/83.jpg,null,,,,,,,70,,,8,,,,,83,0.848462487,0.843373494,,,,,,,
decision,214,655027,0.0-68.0-2.0,"""event"",""trial"",""time""
""fullscreenenter"",""1"",""10304""
","
","
","""event"",""trial"",""time""
""fullscreenenter"",""1"",""10304""
","
",,196.5,run_exp/static/images/task_images/land.jpg,65,,,,,,,70,,,8,,,,,,,,267496,1,1,FALSE,,,
dig,215,657843,0.0-69.0-0.0,"""event"",""trial"",""time""
""fullscreenenter"",""1"",""10304""
","
","
","""event"",""trial"",""time""
""fullscreenenter"",""1"",""10304""
","
",,,,,,,,,,,,"[{""stimulus"":""run_exp/static/images/task_images/dig.jpg"",""time"":0.3000001907348633},{""stimulus"":""run_exp/static/images/task_images/land.jpg"",""time"":937.7000000476837},{""stimulus"":""run_exp/static/images/task_images/dig.jpg"",""time"":1871.5}]",[],8,,,,,,,,,,,,,,
harvest,216,658856,0.0-69.0-1.0,"""event"",""trial"",""time""
""fullscreenenter"",""1"",""10304""
","
","
","""event"",""trial"",""time""
""fullscreenenter"",""1"",""10304""
","
",,null,run_exp/static/images/task_images/gems/70.jpg,null,,,,,,,61,,,8,,,,,70,0.868639398,0.871428571,,,,,,,
decision,217,659028,0.0-69.0-2.0,"""event"",""trial"",""time""
""fullscreenenter"",""1"",""10304""
","
","
","""event"",""trial"",""time""
""fullscreenenter"",""1"",""10304""
","
",,169.5,run_exp/static/images/task_images/land.jpg,65,,,,,,,61,,,8,,,,,,,,271497,1,2,FALSE,,,
dig,218,661868,0.0-70.0-0.0,"""event"",""trial"",""time""
""fullscreenenter"",""1"",""10304""
","
","
","""event"",""trial"",""time""
""fullscreenenter"",""1"",""10304""
","
",,,,,,,,,,,,"[{""stimulus"":""run_exp/static/images/task_images/dig.jpg"",""time"":0.10000014305114746},{""stimulus"":""run_exp/static/images/task_images/land.jpg"",""time"":947.1000001430511},{""stimulus"":""run_exp/static/images/task_images/dig.jpg"",""time"":1898.9000000953674}]",[],8,,,,,,,,,,,,,,
harvest,219,662883,0.0-70.0-1.0,"""event"",""trial"",""time""
""fullscreenenter"",""1"",""10304""
","
","
","""event"",""trial"",""time""
""fullscreenenter"",""1"",""10304""
","
",,null,run_exp/static/images/task_images/gems/61.jpg,null,,,,,,,47,,,8,,,,,61,0.776916653,0.770491803,,,,,,,
decision,220,663053,0.0-70.0-2.0,"""event"",""trial"",""time""
""fullscreenenter"",""1"",""10304""
","
","
","""event"",""trial"",""time""
""fullscreenenter"",""1"",""10304""
","
",,168.9000001,run_exp/static/images/task_images/land.jpg,65,,,,,,,47,,,8,,,,,,,,275523,1,3,FALSE,,,
dig,221,665898,0.0-71.0-0.0,"""event"",""trial"",""time""
""fullscreenenter"",""1"",""10304""
","
","
","""event"",""trial"",""time""
""fullscreenenter"",""1"",""10304""
","
",,,,,,,,,,,,"[{""stimulus"":""run_exp/static/images/task_images/dig.jpg"",""time"":0.20000004768371582},{""stimulus"":""run_exp/static/images/task_images/land.jpg"",""time"":946.2000000476837},{""stimulus"":""run_exp/static/images/task_images/dig.jpg"",""time"":1893.5}]",[],8,,,,,,,,,,,,,,
harvest,222,666901,0.0-71.0-1.0,"""event"",""trial"",""time""
""fullscreenenter"",""1"",""10304""
","
","
","""event"",""trial"",""time""
""fullscreenenter"",""1"",""10304""
","
",,null,run_exp/static/images/task_images/gems/47.jpg,null,,,,,,,41,,,8,,,,,47,0.876980298,0.872340426,,,,,,,
decision,223,667119,0.0-71.0-2.0,"""event"",""trial"",""time""
""fullscreenenter"",""1"",""10304""
","
","
","""event"",""trial"",""time""
""fullscreenenter"",""1"",""10304""
","
",,216.8,run_exp/static/images/task_images/land.jpg,65,,,,,,,41,,,8,,,,,,,,279588,1,4,FALSE,,,
dig,224,669915,0.0-72.0-0.0,"""event"",""trial"",""time""
""fullscreenenter"",""1"",""10304""
","
","
","""event"",""trial"",""time""
""fullscreenenter"",""1"",""10304""
","
",,,,,,,,,,,,"[{""stimulus"":""run_exp/static/images/task_images/dig.jpg"",""time"":0.10000014305114746},{""stimulus"":""run_exp/static/images/task_images/land.jpg"",""time"":941.4000000953674},{""stimulus"":""run_exp/static/images/task_images/dig.jpg"",""time"":1858.2000000476837}]",[],8,,,,,,,,,,,,,,
harvest,225,670927,0.0-72.0-1.0,"""event"",""trial"",""time""
""fullscreenenter"",""1"",""10304""
","
","
","""event"",""trial"",""time""
""fullscreenenter"",""1"",""10304""
","
",,null,run_exp/static/images/task_images/gems/41.jpg,null,,,,,,,32,,,8,,,,,41,0.792007106,0.780487805,,,,,,,
decision,226,671005,0.0-72.0-2.0,"""event"",""trial"",""time""
""fullscreenenter"",""1"",""10304""
","
","
","""event"",""trial"",""time""
""fullscreenenter"",""1"",""10304""
","
",,76,run_exp/static/images/task_images/land.jpg,65,,,,,,,32,,,8,,,,,,,,283474,1,5,FALSE,,,
dig,227,673936,0.0-73.0-0.0,"""event"",""trial"",""time""
""fullscreenenter"",""1"",""10304""
","
","
","""event"",""trial"",""time""
""fullscreenenter"",""1"",""10304""
","
",,,,,,,,,,,,"[{""stimulus"":""run_exp/static/images/task_images/dig.jpg"",""time"":0.10000014305114746},{""stimulus"":""run_exp/static/images/task_images/land.jpg"",""time"":984},{""stimulus"":""run_exp/static/images/task_images/dig.jpg"",""time"":1963.7000000476837}]",[],8,,,,,,,,,,,,,,
harvest,228,674948,0.0-73.0-1.0,"""event"",""trial"",""time""
""fullscreenenter"",""1"",""10304""
","
","
","""event"",""trial"",""time""
""fullscreenenter"",""1"",""10304""
","
",,null,run_exp/static/images/task_images/gems/32.jpg,null,,,,,,,26,,,8,,,,,32,0.812429002,0.8125,,,,,,,
decision,229,674983,0.0-73.0-2.0,"""event"",""trial"",""time""
""fullscreenenter"",""1"",""10304""
","
","
","""event"",""trial"",""time""
""fullscreenenter"",""1"",""10304""
","
",,33.4000001,run_exp/static/images/task_images/land.jpg,65,,,,,,,26,,,8,,,,,,,,287452,1,6,FALSE,,,
dig,230,677955,0.0-74.0-0.0,"""event"",""trial"",""time""
""fullscreenenter"",""1"",""10304""
","
","
","""event"",""trial"",""time""
""fullscreenenter"",""1"",""10304""
","
",,,,,,,,,,,,"[{""stimulus"":""run_exp/static/images/task_images/dig.jpg"",""time"":0.20000004768371582},{""stimulus"":""run_exp/static/images/task_images/land.jpg"",""time"":1005.2000000476837},{""stimulus"":""run_exp/static/images/task_images/dig.jpg"",""time"":1989.2000000476837}]",[],8,,,,,,,,,,,,,,
harvest,231,678972,0.0-74.0-1.0,"""event"",""trial"",""time""
""fullscreenenter"",""1"",""10304""
","
","
","""event"",""trial"",""time""
""fullscreenenter"",""1"",""10304""
","
",,null,run_exp/static/images/task_images/gems/26.jpg,null,,,,,,,20,,,8,,,,,26,0.787375517,0.769230769,,,,,,,
decision,232,679055,0.0-74.0-2.0,"""event"",""trial"",""time""
""fullscreenenter"",""1"",""10304""
","
","
","""event"",""trial"",""time""
""fullscreenenter"",""1"",""10304""
","
",,81.20000005,run_exp/static/images/task_images/land.jpg,65,,,,,,,20,,,8,,,,,,,,291524,1,7,FALSE,,,
dig,233,681975,0.0-75.0-0.0,"""event"",""trial"",""time""
""fullscreenenter"",""1"",""10304""
","
","
","""event"",""trial"",""time""
""fullscreenenter"",""1"",""10304""
","
",,,,,,,,,,,,"[{""stimulus"":""run_exp/static/images/task_images/dig.jpg"",""time"":0.09999990463256836},{""stimulus"":""run_exp/static/images/task_images/land.jpg"",""time"":973.7999999523163},{""stimulus"":""run_exp/static/images/task_images/dig.jpg"",""time"":1952.9000000953674}]",[],8,,,,,,,,,,,,,,
harvest,234,682988,0.0-75.0-1.0,"""event"",""trial"",""time""
""fullscreenenter"",""1"",""10304""
","
","
","""event"",""trial"",""time""
""fullscreenenter"",""1"",""10304""
","
",,null,run_exp/static/images/task_images/gems/20.jpg,null,,,,,,,14,,,8,,,,,20,0.686321123,0.7,,,,,,,
decision,235,684146,0.0-75.0-2.0,"""event"",""trial"",""time""
""fullscreenenter"",""1"",""10304""
","
","
","""event"",""trial"",""time""
""fullscreenenter"",""1"",""10304""
","
",,1155.7,run_exp/static/images/task_images/land.jpg,76,,,,,,,14,,,8,,,,,,,,296615,1,8,TRUE,,,
travel,236,692993,0.0-76.0-0.0,"""event"",""trial"",""time""
""fullscreenenter"",""1"",""10304""
","
","
","""event"",""trial"",""time""
""fullscreenenter"",""1"",""10304""
","
",,,,,,,,,,,,"[{""stimulus"":""run_exp/static/images/task_images/rocket-01.jpg"",""time"":0.09999990463256836},{""stimulus"":""run_exp/static/images/task_images/rocket-02.jpg"",""time"":985.9000000953674},{""stimulus"":""run_exp/static/images/task_images/rocket-03.jpg"",""time"":1970.2999999523163},{""stimulus"":""run_exp/static/images/task_images/rocket-04.jpg"",""time"":2950.5},{""stimulus"":""run_exp/static/images/task_images/rocket-05.jpg"",""time"":3933.2999999523163},{""stimulus"":""run_exp/static/images/task_images/rocket-06.jpg"",""time"":4914.400000095367},{""stimulus"":""run_exp/static/images/task_images/rocket-07.jpg"",""time"":5899.400000095367},{""stimulus"":""run_exp/static/images/task_images/rocket-08.jpg"",""time"":6883.400000095367},{""stimulus"":""run_exp/static/images/task_images/rocket-09.jpg"",""time"":7861.299999952316}]",[],8,,,,,,,,,,,,,,
alien_welcome,237,698009,0.0-76.0-1.0,"""event"",""trial"",""time""
""fullscreenenter"",""1"",""10304""
","
","
","""event"",""trial"",""time""
""fullscreenenter"",""1"",""10304""
","
",,null,run_exp/static/images/task_images/aliens/old_aliens/planet/alien_planet-50.jpg,null,,,,,,,,,,,,,50,"36,44,57,27,18,52,42,16,50,54,31,37,74,76,40,55,19,51,22,56,10,71,77,3,49,20,79,45,53,12,69,8,39,11,33,72,26,14,70",,,,,,,,,,
land,238,698523,0.0-76.0-2.0,"""event"",""trial"",""time""
""fullscreenenter"",""1"",""10304""
","
","
","""event"",""trial"",""time""
""fullscreenenter"",""1"",""10304""
","
",,null,run_exp/static/images/task_images/land.jpg,null,,,,,,,104,,,9,,,,,,,,,,,,,,
dig,239,700536,0.0-76.0-3.0,"""event"",""trial"",""time""
""fullscreenenter"",""1"",""10304""
","
","
","""event"",""trial"",""time""
""fullscreenenter"",""1"",""10304""
","
",,,,,,,,,,,,"[{""stimulus"":""run_exp/static/images/task_images/dig.jpg"",""time"":0.5},{""stimulus"":""run_exp/static/images/task_images/land.jpg"",""time"":677.2999999523163},{""stimulus"":""run_exp/static/images/task_images/dig.jpg"",""time"":1345.1000001430511}]",[],9,,,,,,,,,,,,,,
harvest,240,701549,0.0-76.0-4.0,"""event"",""trial"",""time""
""fullscreenenter"",""1"",""10304""
","
","
","""event"",""trial"",""time""
""fullscreenenter"",""1"",""10304""
","
",,null,run_exp/static/images/task_images/gems/104.jpg,null,,,,,,,22,,,9,,,,,104,0.207965235,0.211538462,,,,,,,
decision,241,701680,0.0-76.0-5.0,"""event"",""trial"",""time""
""fullscreenenter"",""1"",""10304""
","
","
","""event"",""trial"",""time""
""fullscreenenter"",""1"",""10304""
","
",,130.0999999,run_exp/static/images/task_images/land.jpg,65,,,,,,,22,,,9,,,,,,,,314149,1,0,TRUE,,,
end_of_block_continue,242,707796,0.0-77.0-0.0,"""event"",""trial"",""time""
""fullscreenenter"",""1"",""10304""
","
","
","""event"",""trial"",""time""
""fullscreenenter"",""1"",""10304""
","
",,6111.4,run_exp/static/audio/clip_32_block_end.m4a,,,,,,,0,,,,,,,,,,,,,,,,,,
alien_welcome,243,712813,0.0-78.0-0.0,"""event"",""trial"",""time""
""fullscreenenter"",""1"",""10304""
","
","
","""event"",""trial"",""time""
""fullscreenenter"",""1"",""10304""
","
",,null,run_exp/static/images/task_images/aliens/old_aliens/planet/alien_planet-54.jpg,null,,,,,,,,,,,,,54,"36,44,57,27,18,52,42,16,50,54,31,37,74,76,40,55,19,51,22,56,10,71,77,3,49,20,79,45,53,12,69,8,39,11,33,72,26,14,70",,,,,,,,,,
land,244,713327,0.0-78.0-1.0,"""event"",""trial"",""time""
""fullscreenenter"",""1"",""10304""
","
","
","""event"",""trial"",""time""
""fullscreenenter"",""1"",""10304""
","
",,null,run_exp/static/images/task_images/land.jpg,null,,,,,,,98,,,10,,,,,,,,,,,,,,
dig,245,715344,0.0-78.0-2.0,"""event"",""trial"",""time""
""fullscreenenter"",""1"",""10304""
","
","
","""event"",""trial"",""time""
""fullscreenenter"",""1"",""10304""
","
",,,,,,,,,,,,"[{""stimulus"":""run_exp/static/images/task_images/dig.jpg"",""time"":0.39999985694885254},{""stimulus"":""run_exp/static/images/task_images/land.jpg"",""time"":676.7000000476837},{""stimulus"":""run_exp/static/images/task_images/dig.jpg"",""time"":1348.2999999523163}]",[],10,,,,,,,,,,,,,,
harvest,246,716358,0.0-78.0-3.0,"""event"",""trial"",""time""
""fullscreenenter"",""1"",""10304""
","
","
","""event"",""trial"",""time""
""fullscreenenter"",""1"",""10304""
","
",,null,run_exp/static/images/task_images/gems/98.jpg,null,,,,,,,32,,,10,,,,,98,0.327108613,0.326530612,,,,,,,
decision,247,716542,0.0-78.0-4.0,"""event"",""trial"",""time""
""fullscreenenter"",""1"",""10304""
","
","
","""event"",""trial"",""time""
""fullscreenenter"",""1"",""10304""
","
",,181.5,run_exp/static/images/task_images/land.jpg,65,,,,,,,32,,,10,,,,,,,,8744,2,0,FALSE,,,
dig,248,719368,0.0-79.0-0.0,"""event"",""trial"",""time""
""fullscreenenter"",""1"",""10304""
","
","
","""event"",""trial"",""time""
""fullscreenenter"",""1"",""10304""
","
",,,,,,,,,,,,"[{""stimulus"":""run_exp/static/images/task_images/dig.jpg"",""time"":0.20000004768371582},{""stimulus"":""run_exp/static/images/task_images/land.jpg"",""time"":948.7000000476837},{""stimulus"":""run_exp/static/images/task_images/dig.jpg"",""time"":1883.8000001907349}]",[],10,,,,,,,,,,,,,,
harvest,249,720377,0.0-79.0-1.0,"""event"",""trial"",""time""
""fullscreenenter"",""1"",""10304""
","
","
","""event"",""trial"",""time""
""fullscreenenter"",""1"",""10304""
","
",,null,run_exp/static/images/task_images/gems/32.jpg,null,,,,,,,6,,,10,,,,,32,0.191556159,0.1875,,,,,,,
decision,250,720509,0.0-79.0-2.0,"""event"",""trial"",""time""
""fullscreenenter"",""1"",""10304""
","
","
","""event"",""trial"",""time""
""fullscreenenter"",""1"",""10304""
","
